,participant,age,gender,handness,dutch_word,swa_word,trial_2,trial_3,trial_4,trial_5,keypress_2,keypress_3,keypress_4,keypress_5,choice_2,choice_3,choice_4,choice_5,accuracy_2,accuracy_3,accuracy_4,accuracy_5,confidence_2,confidence_3,confidence_4,confidence_5,onset_fix1_2,onset_fix1_3,onset_fix1_4,onset_fix1_5,jitter1_2,jitter1_3,jitter1_4,jitter1_5,onset_test_2,onset_test_3,onset_test_4,onset_test_5,rt_choice_2,rt_choice_3,rt_choice_4,rt_choice_5,onset_fix2_2,onset_fix2_3,onset_fix2_4,onset_fix2_5,jitter2_2,jitter2_3,jitter2_4,jitter2_5,onset_conf_2,onset_conf_3,onset_conf_4,onset_conf_5,rt_conf_2,rt_conf_3,rt_conf_4,rt_conf_5,onset_fix3_2,onset_fix3_3,onset_fix3_4,onset_fix3_5,jitter3_2,jitter3_3,jitter3_4,jitter3_5,onset_feed_2,onset_feed_3,onset_feed_4,onset_feed_5,run_2,run_3,run_4,run_5,test_2,test_3,test_4,test_5,feedback_2,feedback_3,feedback_4,feedback_5,hand_test,hand_conf,srpe,urpe,final_accuracy
0,2.0,23,Female,right-handed,affiche,kengele,42.0,3.0,53.0,135.0,f,2.0,j,n,lugha,nyota,nyota,nyota,False,False,False,False,1.0,1.0,1.0,1.0,403.19098489999305,44.36757670000043,,,,6.5,,,405.2024931999913,50.88448249999965,,,4.603519200027222,3.039604400000826,4868.0,4374.0,409.80530059998273,54.26646989999972,,,,1.0,,,411.8126519999933,55.2842868000007,,,0.827175399987027,0.3779522999993787,1524.2000000029802,1277.0,,56.10032610000053,,,,4.5,,,,60.61683140000059,,,,2.0,,,,1,,,,0,,,1.0,0.0,-1.0,1.0,0.0
1,2.0,23,Female,right-handed,agent,kumbuka,75.0,20.0,65.0,147.0,f,0.0,n,v,bunifu,bunifu,kumbuka,kumbuka,False,False,True,True,0.0,0.0,1.0,3.0,675.2994400000025,419.2244237999994,,,,5.0,,,677.3104277999955,424.2404504999995,,,1.204678599984618,5.379496200000176,4563.0,5008.0,678.5157780000009,430.1084588999993,,,,1.0,,,680.5218393999967,431.1233521999993,,,0.2624770999827888,0.3256036000002495,1617.0,1921.699999988079,,431.8067965999999,,,,6.0,,,,437.82325839999976,,,,1.0,,,,1,,,,0,,,0.0,0.0,0.0,0.0,1.0
2,2.0,23,Female,right-handed,appel,kasili,23.0,25.0,76.0,128.0,v,2.0,j,j,kasili,kasadpan,kesho,kesho,True,False,False,False,3.0,0.0,1.0,1.0,211.61489739999524,539.3016201,,,,4.5,,,213.6281059999892,543.8177710999998,,,5.254858999978751,6.82524580000063,6317.0,2800.0,218.88215679998396,550.8341427999994,,,,5.5,,,220.88957229998775,556.3503940999999,,,0.4894555000064429,0.9662938000001304,2265.79999999702,1861.3999999910595,,557.6502049000001,,,,7.0,,,,564.6669864999994,,,,1.0,,,,1,,,,0,,,1.0,0.0,0.0,0.0,0.0
3,2.0,23,Female,right-handed,banaan,aibu,26.0,19.0,12.0,108.0,j,3.0,n,n,aibu,aibu,aibu,aibu,True,True,True,True,3.0,3.0,2.0,2.0,244.8012586999976,402.2581204999997,,,,3.0,,,246.81521390000125,405.2752031,,,4.269028400012758,3.641324000000168,5662.0,9415.0,251.083928499982,409.17470820000017,,,,1.5,,,253.09494340000677,410.6912214999993,,,1.0372635999810882,0.2143515999996452,2142.29999999702,2239.5,,411.15788149999935,,,,4.0,,,,415.17414779999945,,,,1.0,,,,1,,,,3,,,1.0,1.0,0.0,0.0,1.0
4,2.0,23,Female,right-handed,bank,punguza,13.0,27.0,4.0,142.0,f,2.0,n,j,kabalaka,punguza,punguza,punguza,False,True,True,True,1.0,0.0,1.0,1.0,118.77455790000386,512.0274565,,,,3.5,,,120.78580369998237,515.5441088999996,,,5.893420400010655,1.6362091000009968,5259.0,7509.0,126.67925580000156,517.4602541000004,,,,1.5,,,128.6927510999958,518.9766767000001,,,0.6518040999944787,1.1031256999995094,1403.0,2132.29999999702,,520.4931519000002,,,,8.0,,,,528.5094685999993,,,,2.0,,,,1,,,,3,,,1.0,0.0,3.0,3.0,1.0
5,2.0,23,Female,right-handed,bed,kubale,48.0,26.0,43.0,116.0,v,0.0,f,n,kubale,bado,mbuzi,kubale,True,False,False,True,0.0,3.0,1.0,1.0,459.67022259999067,497.0615125999993,,,,3.0,,,461.6748651000089,500.0777245999998,,,5.189147900004173,2.375086100000772,7219.0,5669.0,466.8643451999815,502.66092969999954,,,,1.0,,,468.87319369998295,503.67735170000014,,,0.2814810000127181,0.0643978999996761,2300.0,2848.0999999940395,,503.9939434000007,,,,4.0,,,,508.0104329000005,,,,2.0,,,,1,,,,0,,,0.0,1.0,-3.0,3.0,0.0
6,2.0,23,Female,right-handed,beker,lalake,27.0,30.0,80.0,171.0,n,1.0,v,j,bega,sufuria,kerida,bega,False,False,False,False,1.0,0.0,1.0,1.0,254.1460576999816,569.8073710000008,,,,7.5,,,256.1577261000057,577.3240717999997,,,2.970264600007795,3.195539400001508,5460.0,4512.0,259.1277528000064,580.8075726999996,,,,1.0,,,261.13886350000394,581.8235091999995,,,0.3353312999824993,0.9345403999996053,1984.3999999910595,1818.9000000059605,,583.0733139000004,,,,5.0,,,,588.0903158000001,,,,2.0,,,,1,,,,0,,,0.0,0.0,0.0,0.0,0.0
7,2.0,23,Female,right-handed,bes,rangi,28.0,9.0,28.0,123.0,j,1.0,n,f,rangi,katika,dari,dari,True,False,False,False,1.0,1.0,1.0,1.0,261.4893754000077,150.7268141000004,,,,3.0,,,263.50392709998414,153.74316270000054,,,7.511183800001163,2.797761400001036,6173.0,2086.0,271.01421999998274,156.7768044000004,,,,1.5,,,273.02438409999013,158.29259430000093,,,0.4111910999927204,0.7871267000009539,2735.0999999940395,1454.7999999970198,,159.3423858999995,,,,8.0,,,,167.35884729999998,,,,3.0,,,,1,,,,0,,,0.0,0.0,-1.0,1.0,0.0
8,2.0,23,Female,right-handed,bloem,ndugu,76.0,11.0,81.0,154.0,v,3.0,f,v,adui,adui,kugita,ndugu,False,False,False,True,0.0,1.0,1.0,1.0,680.8010771999834,199.69296720000057,,,,4.0,,,682.8128183000081,203.7099631000001,,,1.993682499974966,4.181876099999499,6297.0,5888.0,684.8052543000085,208.2760605000003,,,,3.0,,,686.81860649999,211.2929194999997,,,0.4024606999882962,0.2855971999997564,1419.5,2776.4000000059605,,211.89222660000087,,,,3.5,,,,215.4092051000007,,,,2.0,,,,1,,,,0,,,1.0,0.0,-1.0,1.0,0.0
9,2.0,23,Female,right-handed,boek,mfuko,25.0,24.0,70.0,141.0,f,0.0,v,n,mfuko,mfuko,mfuko,mfuko,True,True,True,True,1.0,3,1.0,1.0,231.8085738999944,517.8857268000002,,,,3.0,,,233.82412259999543,520.9027855999993,,,7.821763100015232,8.315722399999686,3400.0,6256.0,241.64500359998783,529.5354954999993,,,,1.5,,,243.6547573999851,531.0516987999999,,,1.132272400020156,0.3456595999996352,1603.0,6992.29999999702,,531.7683096000001,,,,3.5,,,,535.2849321999993,,,,1.0,,,,0,,,,3,,,0.0,1.0,0,0,1.0
10,2.0,23,Female,right-handed,boot,simu,14.0,19.0,36.0,103.0,j,0.0,v,n,twai,jansa,ijayo,ijayo,False,False,False,False,1.0,1.0,1.0,1.0,129.36093059999985,360.8514219999997,,,,4.0,,,131.37336239998697,364.8683920000003,,,2.945510599995032,3.3533304999982647,6951.0,4625.0,134.3190461999911,368.6677887999994,,,,1.0,,,136.33026819999213,369.68435839999984,,,0.2610222999937832,0.805327699999907,1903.9000000059605,1049.9000000059605,,370.8007589000008,,,,3.0,,,,373.81729860000087,,,,2.0,,,,1,,,,0,,,0.0,0.0,-1.0,1.0,0.0
11,2.0,23,Female,right-handed,brief,ugomvi,21.0,18.0,48.0,93.0,f,1.0,j,v,nyundo,ugomvi,shule,nyundo,False,True,False,False,1.0,3,1.0,1.0,196.79898839999805,343.11916070000007,,,,4.5,,,198.81090189999668,347.6355714000001,,,4.184380300022895,2.680421499999284,5557.0,5112.0,202.9948069999809,350.70227460000024,,,,1.5,,,205.0054377999913,352.21850880000056,,,0.2989075999939814,0.8553510999990976,2969.5,2660.20000000298,,353.31843690000096,,,,3.5,,,,356.8355009999996,,,,2.0,,,,0,,,,3,,,0.0,1.0,0,0,0.0
12,2.0,23,Female,right-handed,broek,sensilyo,7.0,12.0,34.0,153.0,j,3.0,v,n,mamba,sensilyo,skina,mamba,False,True,False,False,1.0,3,1.0,1.0,57.1445967000036,214.4063526000009,,,,5.0,,,59.15782649998437,219.42314199999964,,,6.43287990000681,1.4768929999991087,4788.0,11689.0,65.59075740000117,221.20666530000017,,,,2.0,,,67.60440939999535,223.2226169000005,,,0.283503800019389,0.7046900000004825,4033.6000000089407,5089.5,,224.2224170000009,,,,4.5,,,,228.7570085000007,,,,3.0,,,,0,,,,3,,,1.0,1.0,0,0,0.0
13,2.0,23,Female,right-handed,brood,chupa,69.0,24.0,30.0,118.0,n,2.0,n,f,mkasi,chupa,moyo,moyo,False,True,False,False,0.0,3.0,1.0,1.0,630.1017143999925,451.98017939999954,,,,3.5,,,632.1148943000007,455.4970649000006,,,2.015900800004601,3.671122199999445,4335.0,3150.0,634.1305243999814,459.4802233999999,,,,2.0,,,636.1405008999864,461.49622550000095,,,0.2944132999982685,0.2196170000006532,1783.7000000029802,1825.5,,461.9461491000002,,,,7.0,,,,468.9625804999996,,,,2.0,,,,1,,,,3,,,1.0,1.0,0.0,0.0,0.0
14,2.0,23,Female,right-handed,brug,bandari,33.0,10.0,16.0,109.0,n,1.0,f,j,bandari,bandari,kuna,bandari,True,True,False,True,3.0,3,1.0,1.0,316.10342679999303,201.35174879999977,,,,3.0,,,318.1165234000073,204.36839569999935,,,2.919860900001368,2.911059799999748,6728.0,5424.0,321.0353684999864,207.7015703999996,,,,4.0,,,323.04497119999724,211.7180284999995,,,0.2919026000017766,0.4875326000001223,1342.9000000059605,5883.09999999404,,212.66787639999984,,,,3.5,,,,216.18447629999991,,,,1.0,,,,0,,,,3,,,0.0,1.0,0,0,0.0
15,2.0,23,Female,right-handed,cadeau,kuacha,53.0,1.0,29.0,156.0,f,0.0,f,f,kuacha,kuacha,kuacha,kuacha,True,True,True,True,3.0,3,3.0,3.0,504.5637917999993,0.028917999999976,,,,3.5,,,506.5730240999837,3.5460752999997567,,,2.44653620000463,1.9472021999999924,6655.0,2200.0,509.01919609998,5.861969300000055,,,,3.0,,,511.0287491999916,8.878397699999368,,,0.3598558000230696,0.7620143000003736,1627.7000000029802,2100.79999999702,,9.895521899999949,,,,6.5,,,,16.411310599999524,,,,1.0,,,,0,,,,3,,,0.0,1.0,0,0,1.0
16,2.0,23,Female,right-handed,cijfer,kamba,3.0,7.0,83.0,177.0,j,3.0,n,n,kamba,kamba,kamba,kamba,True,True,True,True,1.0,0.0,1.0,1.0,18.530528300005244,124.4988644999994,,,,6.5,,,20.54322629998205,131.00583240000014,,,5.946628200006671,10.947229499999594,4435.0,2278.0,26.489865899988217,142.2057391999997,,,,2.5,,,28.49890700000105,144.72158169999966,,,0.3735234999912791,2.1685434999999416,1390.0,2106.70000000298,,147.33833369999957,,,,3.0,,,,150.35441269999956,,,,1.0,,,,1,,,,3,,,1.0,0.0,3.0,3.0,1.0
17,2.0,23,Female,right-handed,deur,bloke,85.0,12.0,44.0,151.0,j,1.0,n,n,hari,bloke,lima,hari,False,True,False,False,1.0,1.0,1.0,1.0,746.5095124999934,219.42520700000023,,,,3.0,,,748.5245075999992,222.44234169999984,,,3.9548898999928497,4.553691099999924,11951.0,3978.0,752.4777007999946,227.34308790000068,,,,1.5,,,754.4870115999947,228.8583424000008,,,0.2903646999911871,0.0,2029.4000000059605,2286.29999999702,,229.6079952,,,,3.5,,,,233.12461819999956,,,,2.0,,,,1,,,,3,,,0.0,0.0,2.0,2.0,0.0
18,2.0,23,Female,right-handed,doos,lisud,10.0,27.0,19.0,102.0,n,1.0,f,v,pundok,pundok,pundok,baba,False,False,False,False,1.0,1.0,1.0,1.0,86.74541030000546,584.1331207999992,,,,4.0,,,88.75320919998921,588.1489958000002,,,3.03171250000014,5.1084360999993805,11755.0,2676.0,91.78532709999126,593.5318846999999,,,,1.5,,,93.79573330000858,595.048504299999,,,0.2560191999946255,1.076811100001578,3051.5999999940395,2154.0,,597.3820746999991,,,,5.5,,,,602.8981502000006,,,,1.0,,,,1,,,,0,,,0.0,0.0,-1.0,1.0,0.0
19,2.0,23,Female,right-handed,driehoek,bulwawan,63.0,29.0,85.0,121.0,v,3.0,j,f,goma,mchuzi,daraja,daraja,False,False,False,False,0.0,1.0,1.0,1.0,584.4370763000043,552.4248158999999,,,,5.0,,,586.4497195000004,557.4414197000006,,,3.1638105000020005,1.2453256000007968,5961.0,6007.0,589.6130871000059,558.924684900001,,,,3.0,,,591.6261964000005,561.9410451000003,,,0.2359715999918989,0.383583599999838,1036.5,1280.699999988079,,562.7745049999994,,,,3.0,,,,565.7908893000003,,,,2.0,,,,1,,,,0,,,1.0,0.0,-1.0,1.0,0.0
20,2.0,23,Female,right-handed,eekhoorn,kisu,17.0,5.0,54.0,174.0,v,2.0,v,n,kisu,picha,init,init,True,False,False,False,1.0,0.0,2.0,1.0,160.22468549999758,79.17515360000016,,,,3.0,,,162.23558079998477,82.19135000000006,,,4.697299699997529,6.115627900000618,6126.0,6514.0,166.93261349998647,88.69108649999998,,,,2.0,,,168.9426553999947,90.70758099999966,,,0.4157121999887749,0.9578367000003708,2419.0,2837.3999999910598,,92.04068769999958,,,,7.5,,,,99.55706439999994,,,,1.0,,,,1,,,,0,,,1.0,0.0,0.0,0.0,0.0
21,2.0,23,Female,right-handed,emmer,kweli,60.0,3.0,75.0,166.0,f,3.0,j,n,kweli,gubat,gubat,gubat,True,False,False,False,3.0,2.0,1.0,1.0,560.3207832000044,40.04866679999941,,,,3.5,,,562.3321656000044,43.565606500000285,,,4.189078700001119,1.8144344000011188,7998.0,2428.0,566.5211971999961,45.59835810000004,,,,2.0,,,568.5305746999802,47.615038699999786,,,0.2409282999869901,0.88431060000039,1902.4000000059605,2168.29999999702,,48.79828020000059,,,,3.5,,,,52.31523560000096,,,,3.0,,,,1,,,,0,,,1.0,1.0,-2.0,2.0,0.0
22,2.0,23,Female,right-handed,ezel,geza,34.0,14.0,17.0,150.0,v,1.0,n,j,geza,geza,geza,geza,True,True,True,True,3.0,3,1.0,2.0,323.3520957999863,263.5731522000005,,,,5.0,,,325.3628097999899,268.5898417000008,,,3.908829899999546,3.5499712000000727,5472.0,4261.0,329.27148110000417,272.6576838000001,,,,3.5,,,331.2810370000079,276.1723751999998,,,0.3239861999754794,0.343387500000972,4766.29999999702,2066.29999999702,,276.9555519000005,,,,5.5,,,,282.4726324000003,,,,2.0,,,,0,,,,3,,,0.0,1.0,0,0,1.0
23,2.0,23,Female,right-handed,foto,farasi,40.0,18.0,62.0,133.0,f,2.0,n,f,farasi,kiti,kiti,farasi,True,False,False,True,2.0,0.0,1.0,1.0,379.0983828000026,371.9433583999999,,,,8.0,,,381.1107905999816,379.9599008999994,,,8.86861060000956,12.43859479999992,9561.0,8261.0,389.9788027000032,392.6755336999995,,,,1.0,,,391.9887919999892,393.6921169999996,,,0.3011154999840073,0.686601200000041,5885.0,2431.5,,394.7252883000001,,,,3.5,,,,398.2418975000001,,,,1.0,,,,1,,,,0,,,1.0,0.0,0.0,0.0,0.0
24,2.0,23,Female,right-handed,giraf,fedha,68.0,20.0,73.0,167.0,f,3.0,f,n,fedha,kila,kila,kila,True,False,False,False,1.0,2.0,2.0,2.0,621.7542156999989,360.0821672000002,,,,3.0,,,623.765278899984,363.0991553000004,,,2.472799299983308,2.252251800000522,4753.0,3644.0,626.237060399988,365.5820960000001,,,,1.0,,,628.253429400007,366.5986262000006,,,1.833909100008896,0.2726524999998219,2361.9000000059605,1040.7000000029802,,367.0985505999997,,,,6.0,,,,373.11493770000016,,,,3.0,,,,1,,,,0,,,1.0,1.0,-2.0,2.0,0.0
25,2.0,23,Female,right-handed,gordijn,mungu,12.0,6.0,31.0,122.0,n,3.0,v,j,mungu,tinapay,mechezo,mechezo,True,False,False,False,2.0,0.0,1.0,1.0,108.8639223999926,92.37914610000009,,,,3.0,,,110.87698499998078,95.39581060000091,,,4.316283899999689,2.8025656000008894,6556.0,4808.0,115.19289979999304,98.37975809999988,,,,2.5,,,117.20467609999469,100.89548130000004,,,1.5564630999870133,0.3405153000003338,2479.6000000089407,2316.70000000298,,101.66217169999982,,,,7.5,,,,109.17896400000063,,,,3.0,,,,1,,,,0,,,1.0,0.0,0.0,0.0,0.0
26,2.0,23,Female,right-handed,grot,kalamu,35.0,2.0,33.0,148.0,j,3.0,v,v,pahiyum,kanding,kalamu,adhabu,False,False,True,False,0.0,1.0,1.0,1.0,331.61930479999864,25.86869850000039,,,,3.5,,,333.63011050000205,29.38512369999989,,,4.570418499992229,3.946878900000229,8493.0,4318.0,338.19951049998053,33.61820910000097,,,,2.0,,,340.2099823000026,35.634753599999385,,,0.5419868000026327,0.3147005999999237,2455.8999999910598,2408.4000000059605,,36.3346474000009,,,,4.0,,,,40.35133830000086,,,,2.0,,,,1,,,,0,,,1.0,0.0,-1.0,1.0,0.0
27,2.0,23,Female,right-handed,hamer,maji,89.0,15.0,52.0,145.0,f,3.0,v,j,mekno,mekno,baho,mekno,False,False,False,False,1.0,1.0,1.0,1.0,774.3272167999821,286.4890821000008,,,,3.0,,,776.3404448000074,289.5050582999993,,,1.8581239999912211,2.738798000000316,4925.0,5605.0,778.1974319999863,292.48834850000094,,,,4.5,,,780.206600000005,297.00468379999984,,,0.3347694000112824,2.8425881000002846,983.7000000029802,1636.199999988079,,300.15454789999967,,,,3.5,,,,303.67111400000067,,,,2.0,,,,1,,,,0,,,1.0,0.0,-1.0,1.0,0.0
28,2.0,23,Female,right-handed,handdoek,mkboa,11.0,27.0,7.0,158.0,f,3.0,f,n,paghalad,soko,mkboa,paghalad,False,False,True,False,1.0,1.0,1.0,1.0,94.06905639998148,482.4597675999994,,,,3.5,,,96.08098430000246,485.9758533999993,,,10.366327399999136,2.327020599999741,4680.0,8681.0,106.44697709998582,488.5432562999995,,,,1.0,,,108.4565763999999,489.55901430000085,,,0.3890010999748483,0.4035043999992922,1969.300000011921,1806.70000000298,,490.4255281000005,,,,4.0,,,,494.44221560000005,,,,3.0,,,,1,,,,0,,,1.0,0.0,-1.0,1.0,0.0
29,2.0,23,Female,right-handed,heuvel,msitu,19.0,10.0,47.0,111.0,n,0.0,f,j,maisha,maisha,mbwa,msitu,False,False,False,True,1.0,1.0,1.0,1.0,176.98180619999766,181.11066570000003,,,,3.5,,,178.9877324999834,184.6271213,,,2.6672254000150133,5.6383439999990514,3832.0,5475.0,181.6550714999903,191.0100865000004,,,,1.0,,,183.6676962999918,192.02671800000095,,,1.859620700008236,0.3274615999998786,1873.70000000298,1481.7999999970198,,192.6599045999992,,,,3.0,,,,195.67641299999923,,,,2.0,,,,1,,,,0,,,0.0,0.0,-1.0,1.0,0.0
30,2.0,23,Female,right-handed,hond,lamigas,80.0,8.0,78.0,178.0,j,2.0,j,n,kikapu,kazi,kazi,kazi,False,False,False,False,1.0,1.0,1.0,1.0,709.6303030999843,133.3271380999995,,,,3.5,,,711.644352400006,136.843679900001,,,3.1139295999892056,2.531819899999391,5714.0,4560.0,714.7581815999874,139.61034950000067,,,,3.5,,,716.7661390999856,143.1268615000008,,,0.2824689999979455,0.0,8560.5,1576.9000000059605,,143.69334040000103,,,,3.0,,,,146.71018840000033,,,,3.0,,,,1,,,,0,,,1.0,0.0,-1.0,1.0,0.0
31,2.0,23,Female,right-handed,kaars,sayari,36.0,24.0,89.0,117.0,n,2.0,n,v,sayari,sayari,sayari,sayari,True,True,True,True,3.0,3.0,1.0,1.0,340.7679247999913,432.3117770000008,,,,4.5,,,342.77975190000143,436.8283616999997,,,4.79114399998798,2.7738122999999177,4442.0,7047.0,347.5704252999858,439.8120278999995,,,,1.0,,,349.581148199999,440.8281024000007,,,0.3182863999973051,0.3325625999987096,2195.5999999940395,1425.2999999970198,,441.42807300000095,,,,3.5,,,,444.9450324999998,,,,3.0,,,,1,,,,3,,,1.0,1.0,0.0,0.0,1.0
32,2.0,23,Female,right-handed,kampvuur,itik,54.0,15.0,59.0,92.0,j,2.0,v,f,itik,itik,itik,itik,True,True,True,True,3.0,3.0,3.0,3.0,511.40471410000464,268.50405669999964,,,,4.0,,,513.4160197000019,272.52012680000007,,,2.4934092999901623,2.1854236999988643,3838.0,6283.0,515.909158800001,274.95350979999967,,,,1.0,,,517.9192283999873,275.9698647999994,,,0.3243584999872837,0.3352758999990328,1577.0999999940395,2563.0,,276.5865393000004,,,,5.0,,,,281.6032926000007,,,,3.0,,,,1,,,,3,,,1.0,1.0,0.0,0.0,1.0
33,2.0,23,Female,right-handed,kantoor,tamasha,67.0,21.0,24.0,134.0,n,0.0,f,j,tamasha,tamasha,usiku,tamasha,True,True,False,True,3.0,3.0,1.0,1.0,615.3582312999933,441.8394361999999,,,,3.0,,,617.3713055999833,444.85658499999954,,,2.042060700012371,7.016506999999365,4261.0,6381.0,619.4132416000066,452.1894659,,,,1.0,,,621.4239272999985,453.2055254999996,,,0.3145814000163227,0.3264613000001191,1988.20000000298,1872.20000000298,,453.8556983999997,,,,4.0,,,,457.8721283999994,,,,1.0,,,,1,,,,3,,,0.0,1.0,0.0,0.0,0.0
34,2.0,23,Female,right-handed,kat,gundi,65.0,1.0,21.0,113.0,v,3.0,n,n,kichwa,gundi,gundi,gundi,False,True,True,True,2.0,3,3.0,1.0,598.5922305999848,0.0173993000007612,,,,7.0,,,600.6039055000001,7.033630100000664,,,5.618872700026259,1.5772045999983677,4594.0,4661.0,606.2222925999959,8.833709000000454,,,,3.5,,,608.2315525999875,12.35005749999982,,,0.7075848999957088,0.587119599998914,2718.1000000089407,1480.7000000029802,,13.233318799999324,,,,3.5,,,,16.749867300000915,,,,3.0,,,,0,,,,3,,,1.0,1.0,0,0,1.0
35,2.0,23,Female,right-handed,kist,amani,22.0,23.0,42.0,94.0,f,0.0,n,v,amani,amani,amani,amani,True,True,True,True,3.0,3.0,3.0,3.0,205.32231859999592,431.3179651999999,,,,5.5,,,207.33437369999592,436.8308479999996,,,1.8372184000036211,2.113160799999605,2418.0,2665.0,209.17142709999465,439.2488613000005,,,,5.0,,,211.18282499999623,444.26431330000014,,,0.4170987000106834,0.3549874000000272,2015.3999999910595,1606.0,,444.94708750000063,,,,3.0,,,,447.9637124000001,,,,2.0,,,,1,,,,3,,,0.0,1.0,0.0,0.0,1.0
36,2.0,23,Female,right-handed,klok,rayna,66.0,29.0,26.0,104.0,v,3.0,j,j,napulo,isda,napulo,siagi,False,False,False,False,2.0,1.0,1.0,1.0,608.9539325000078,517.6575376000001,,,,7.5,,,610.9661908999842,525.1741610999998,,,1.8023668000241744,2.7958177999989857,3882.0,3254.0,612.7678222999966,528.1911768000009,,,,4.5,,,614.777645299997,532.7067631000009,,,0.5655928999767639,0.3204879999993864,1487.3999999910593,1354.6000000089407,,533.3233412999998,,,,3.5,,,,536.8399466999999,,,,3.0,,,,1,,,,0,,,1.0,0.0,-1.0,1.0,0.0
37,2.0,23,Female,right-handed,knie,buli,87.0,25.0,67.0,98.0,n,3.0,j,j,pilak,buli,kiatu,kiatu,False,True,False,False,1.0,3,1.0,1.0,760.8533566999831,448.9614247999998,,,,3.0,,,762.866647399991,451.9779354000002,,,2.358099699980812,1.283632899998338,3204.0,3114.0,765.2244448999991,453.51151369999934,,,,1.5,,,767.2373979999975,455.0278328000004,,,0.3369826000125613,0.3425326000015047,1697.0,1347.2999999970198,,455.6272374,,,,5.5,,,,461.143764800001,,,,3.0,,,,0,,,,3,,,1.0,1.0,0,0,0.0
38,2.0,23,Female,right-handed,ladder,shimoni,49.0,13.0,87.0,125.0,j,1.0,f,f,nyundu,nyundu,nyundu,baadaye,False,False,False,False,0.0,1.0,1.0,1.0,469.1735140999954,237.14143420000076,,,,8.0,,,471.1795914999966,245.17936329999972,,,3.0588579999748617,4.637613500000953,5014.0,6068.0,474.2387470999965,250.14068419999967,,,,2.5,,,476.24610389999,252.6570800000009,,,0.2770422000030521,0.5775873999991745,1810.5,2039.199999988079,,253.54026859999976,,,,6.0,,,,259.5565908000008,,,,2.0,,,,1,,,,0,,,0.0,0.0,-1.0,1.0,0.0
39,2.0,23,Female,right-handed,laken,kuhesa,32.0,28.0,14.0,170.0,v,1.0,f,j,tualya,tubag,kuhesa,kuhesa,False,False,True,True,0.0,0.0,1.0,1.0,307.08800779999,532.5259939999996,,,,4.0,,,309.10001719999127,536.5429495999997,,,4.728639000008116,1.8205963000000336,5394.0,2402.0,313.82843540000613,538.7093267,,,,3.5,,,315.84005060000345,542.2255208000006,,,0.2478240999917034,0.0658817999992606,2890.79999999702,1915.5,,542.8919999999998,,,,5.5,,,,548.4088456999998,,,,2.0,,,,1,,,,0,,,0.0,0.0,0.0,0.0,1.0
40,2.0,23,Female,right-handed,lamp,mazishi,38.0,2.0,40.0,152.0,v,1.0,j,j,dizeli,dizeli,mazishi,mazishi,False,False,True,True,0.0,0.0,1.0,1.0,360.5872466999863,20.782868399999643,,,,6.0,,,362.5984303999867,26.799683400000504,,,2.100252599979285,2.24351790000037,5149.0,3824.0,364.6984795999888,29.34925149999981,,,,1.5,,,366.7100382999925,30.86585919999925,,,1.0710928000044078,0.8368344000009529,4800.300000011921,1757.2000000029802,,32.01628359999995,,,,4.0,,,,36.03221459999986,,,,3.0,,,,1,,,,0,,,0.0,0.0,0.0,0.0,1.0
41,2.0,23,Female,right-handed,lepel,ukame,30.0,13.0,5.0,126.0,j,1.0,j,v,kabuang,kabuang,ukame,kabuang,False,False,True,False,1.0,1.0,1.0,1.0,289.35251599998446,232.7733962000002,,,,4.5,,,291.36632919998374,237.28858240000045,,,4.174370199994883,3.725159100000383,5136.0,5196.0,295.5403635999828,241.28847189999945,,,,1.5,,,297.55374149998534,242.80495879999944,,,0.5893801999918651,0.9861295999999128,1393.2999999970198,1680.800000011921,,244.12146209999992,,,,3.0,,,,247.1380712000009,,,,3.0,,,,1,,,,0,,,0.0,0.0,-1.0,1.0,0.0
42,2.0,23,Female,right-handed,lichaam,mchanga,46.0,17.0,3.0,112.0,j,2.0,j,v,mchanga,mchanga,uyoga,mchanga,True,True,False,True,1.0,3,1.0,1.0,440.9009742999915,325.9364024000006,,,,4.0,,,442.9070803000068,329.9531079999997,,,7.130097000015667,2.377587900000435,5373.0,13455.0,450.0381203999859,332.58630260000064,,,,1.5,,,452.0453126000066,334.1028225000009,,,0.2558942000032402,0.2462854000004881,2084.0999999940395,2168.3999999910598,,334.5860221999992,,,,4.5,,,,339.10254910000003,,,,2.0,,,,0,,,,3,,,1.0,1.0,0,0,0.0
43,2.0,23,Female,right-handed,lijst,watu,61.0,5.0,38.0,115.0,f,2.0,j,j,kartasi,kitanda,kitanda,watu,False,False,False,True,0.0,1.0,1.0,1.0,568.7891133000085,73.34728779999932,,,,3.0,,,570.8014458999969,76.36380740000095,,,5.2389294000167865,2.840506099999402,4246.0,4625.0,576.0398966000066,79.44664060000105,,,,1.0,,,578.0499001999851,80.46313279999958,,,0.2751581000047736,0.5399845000010828,2592.79999999702,2034.5999999940395,,81.34637819999989,,,,7.0,,,,88.36291410000013,,,,3.0,,,,1,,,,0,,,1.0,0.0,-1.0,1.0,0.0
44,2.0,23,Female,right-handed,magazine,matumbo,81.0,21.0,37.0,120.0,f,2.0,v,j,kudhibi,matumbo,matumbo,matumbo,False,True,True,True,1.0,0.0,1.0,1.0,717.0663091999886,391.8501694000006,,,,3.0,,,719.0760630999866,394.8663247000004,,,2.0530935999995563,2.9310102999988885,9628.0,11694.0,721.1294007999822,398.06670570000097,,,,2.0,,,723.1431040999887,400.0829642999997,,,0.2185289999761153,0.6624827999985428,1235.2000000029802,4249.5,,401.1493615,,,,4.0,,,,405.1656858000006,,,,2.0,,,,1,,,,3,,,1.0,0.0,3.0,3.0,1.0
45,2.0,23,Female,right-handed,mand,basi,74.0,20.0,2.0,105.0,v,3.0,n,n,basi,mgonjwa,basi,basi,True,False,True,True,1.0,1.0,1.0,1.0,668.3543984999997,377.8343442000005,,,,3.5,,,670.3585284999863,381.3509381999993,,,2.192661000008229,1.368766699999469,5602.0,6988.0,672.5515095999872,382.9508262,,,,1.0,,,674.5613796999969,383.96700670000064,,,0.7228735999960918,0.4914809000001696,2242.79999999702,2234.9000000059605,,384.8167013000002,,,,3.0,,,,387.8332725,,,,2.0,,,,1,,,,0,,,1.0,0.0,-1.0,1.0,1.0
46,2.0,23,Female,right-handed,mens,mwanga,86.0,4.0,82.0,129.0,n,1.0,f,v,mwanga,mwanga,mwanga,mwanga,True,True,True,True,3.0,3,3.0,2.0,754.7950853999937,59.0091397999995,,,,4.5,,,756.8090492000047,63.52581629999986,,,1.7793281999765895,4.187188200000492,6054.0,8918.0,758.5879260000074,68.05903750000016,,,,3.0,,,760.5987210999883,71.07567469999958,,,0.2399844999890774,0.8541210999992472,1577.2999999970198,2033.5999999940395,,72.14169899999979,,,,3.0,,,,75.15867389999949,,,,1.0,,,,0,,,,3,,,0.0,1.0,0,0,1.0
47,2.0,23,Female,right-handed,moeder,iring,39.0,5.0,63.0,175.0,f,3.0,v,f,iring,iring,iring,iring,True,True,True,True,3.0,3.0,3.0,3.0,367.796645800001,83.3821435000009,,,,4.5,,,369.8094671999861,87.89882550000038,,,5.010837600013474,4.56466619999992,11511.0,5573.0,374.8199598999927,92.7322232000006,,,,1.0,,,376.8292160999845,93.74888020000073,,,2.2538930000155237,0.2922572999996191,1603.8999999910593,3626.5,,94.34824669999944,,,,4.5,,,,98.86489509999956,,,,2.0,,,,1,,,,3,,,1.0,1.0,0.0,0.0,1.0
48,2.0,23,Female,right-handed,mug,dagat,18.0,8.0,57.0,157.0,n,3.0,f,v,singizi,dagat,singizi,singizi,False,True,False,False,1.0,3,1.0,1.0,169.3738747999887,144.56235820000074,,,,3.0,,,171.38919849999365,147.57906469999944,,,3.2798658999963664,2.3483347999990656,7435.0,9889.0,174.66901290000533,150.1624040000006,,,,1.5,,,176.67815550000523,151.6789157000003,,,0.285067099990556,0.2670723999999609,2112.800000011921,1835.800000011921,,152.1953064999998,,,,6.5,,,,158.71199890000025,,,,2.0,,,,0,,,,3,,,1.0,1.0,0,0,0.0
49,2.0,23,Female,right-handed,muziek,jeraha,4.0,2.0,84.0,95.0,n,3.0,v,f,jeraha,jeraha,jeraha,jeraha,True,True,True,True,3.0,3.0,1.0,1.0,28.890760299982503,20.42773539999962,,,,3.0,,,30.90300930000376,23.44485369999984,,,3.23111739999149,4.999872700000196,3893.0,3902.0,34.13394889998017,28.660864599999517,,,,1.0,,,36.14425599999959,29.67746499999976,,,1.1710192000027746,0.6958707000003415,1283.5999999940395,1962.20000000298,,30.66052889999992,,,,3.0,,,,33.67765699999927,,,,1.0,,,,1,,,,3,,,1.0,1.0,0.0,0.0,1.0
50,2.0,23,Female,right-handed,neus,jikoni,70.0,22.0,69.0,100.0,j,3.0,n,j,kifua,jikoni,kidole,kidole,False,True,False,False,1.0,3,1.0,1.0,636.4500356999924,461.8889136999997,,,,5.0,,,638.462567199982,466.90551199999936,,,2.196353300008923,12.514419700000872,5392.0,2908.0,640.6582781999896,479.6545503999996,,,,6.0,,,642.6670817999984,485.6707214999997,,,1.2047357000119518,0.4535925000000134,2037.0,1408.5,,486.5205084999998,,,,3.0,,,,489.5372112999994,,,,1.0,,,,0,,,,3,,,1.0,1.0,0,0,0.0
51,2.0,23,Female,right-handed,olifant,kimysa,82.0,18.0,8.0,101.0,n,2.0,n,f,kimysa,kimysa,kimysa,kimysa,True,True,True,True,1.0,3,1.0,3.0,723.3781635999912,327.61768180000035,,,,3.0,,,725.3919288000034,330.6341193999997,,,2.117106199992122,1.0554128000003402,7282.0,4458.0,727.5087332999974,331.93394679999983,,,,1.5,,,729.5220880999987,333.4503079999995,,,0.3025612999917939,0.2771597999999358,1656.2000000029802,2009.79999999702,,334.03361940000104,,,,3.5,,,,337.5500769999999,,,,3.0,,,,0,,,,3,,,1.0,1.0,0,0,1.0
52,2.0,23,Female,right-handed,olijf,kito,88.0,15.0,9.0,163.0,v,3.0,n,n,akili,akili,kito,kito,False,False,True,True,1.0,1.0,1.0,1.0,767.5899437000044,306.8801855000001,,,,4.0,,,769.6014364000002,310.89663649999966,,,2.2983989999920595,5.7451467999999295,8621.0,5611.0,771.8998625999957,316.9628597000001,,,,5.0,,,773.909950900008,321.97897699999976,,,0.4008500999771058,0.5183868000003713,1775.7000000029802,1857.4000000059605,,322.8122542000001,,,,4.0,,,,326.8286688999997,,,,1.0,,,,1,,,,0,,,1.0,0.0,-1.0,1.0,1.0
53,2.0,23,Female,right-handed,pagina,hatua,52.0,23.0,46.0,161.0,v,3.0,n,v,mapafu,hatua,mapafu,mapafu,False,True,False,False,0.0,0.0,1.0,1.0,497.3526947000064,493.5539427999993,,,,3.5,,,499.36688079999294,497.0701456999996,,,2.4386818000057247,6.970074800000475,7573.0,7570.0,501.8056457999919,504.2866516999993,,,,2.5,,,503.816213699989,506.8029460999997,,,0.7313780999975279,1.6538015000005544,1762.0,1642.2999999970198,,509.3527139999997,,,,4.5,,,,513.8692582999993,,,,1.0,,,,1,,,,3,,,1.0,0.0,3.0,3.0,0.0
54,2.0,23,Female,right-handed,paling,kunywa,51.0,9.0,79.0,160.0,v,0.0,f,v,kunywa,kunywa,kunywa,kunywa,True,True,True,True,1.0,1.0,1.0,1.0,485.2246707000013,162.72822129999986,,,,4.5,,,487.23480069998186,167.24501260000034,,,7.747415099991485,4.074819100000241,4714.0,4276.0,494.9820831999823,171.79449620000014,,,,1.0,,,496.9933609,172.81139470000016,,,0.3429403000045568,0.947378099999696,1865.79999999702,1435.5,,174.07759439999973,,,,3.0,,,,177.0946189999995,,,,2.0,,,,1,,,,3,,,0.0,0.0,2.0,2.0,1.0
55,2.0,23,Female,right-handed,pap,karon,78.0,29.0,25.0,172.0,j,3.0,j,j,karon,uadui,uadui,uadui,True,False,False,False,1.0,1.0,1.0,1.0,695.8947963999817,625.8471656000002,,,,3.0,,,697.9068010000046,628.8634225000005,,,3.5335674000089057,3.553637400000298,5276.0,3351.0,701.4401477999927,632.6801740999999,,,,2.0,,,703.4507129999984,634.6962874000001,,,0.2063258999842219,0.0,1657.5999999940395,2076.3999999910598,,634.8462282,,,,5.5,,,,640.3628948999994,,,,1.0,,,,1,,,,0,,,1.0,0.0,-1.0,1.0,0.0
56,2.0,23,Female,right-handed,parfum,kumba,71.0,26.0,27.0,132.0,j,1.0,v,f,afya,afya,afya,afya,False,False,False,False,1.0,1.0,1.0,2.0,643.8844784999965,465.160267700001,,,,5.0,,,645.8985210999963,470.1767562999994,,,2.8323319999908563,1.900101900000664,6146.0,1885.0,648.7307520000031,472.3599670000003,,,,1.5,,,650.7418876999873,473.87643840000055,,,0.4354299000115134,0.3182706999996298,1895.0,2094.5,,474.4264562999997,,,,4.0,,,,478.4432321000004,,,,3.0,,,,1,,,,0,,,0.0,0.0,-1.0,1.0,0.0
57,2.0,23,Female,right-handed,park,elfu,47.0,17.0,56.0,119.0,j,0.0,j,n,pwani,pwani,liso,pwani,False,False,False,False,1.0,1.0,1.0,1.0,452.3246565999871,349.54431639999984,,,,3.5,,,454.32933989999583,353.0613278999999,,,3.117003300023498,7.285157899999831,6071.0,16389.0,457.4468939999933,360.6938001999997,,,,1.0,,,459.4506432999915,361.71039519999977,,,0.2048044999828562,0.9039684999997916,2633.1000000089407,1917.5,,362.9102616999999,,,,5.0,,,,367.92710480000005,,,,1.0,,,,1,,,,0,,,0.0,0.0,-1.0,1.0,0.0
58,2.0,23,Female,right-handed,plafond,tumbo,5.0,17.0,66.0,169.0,f,1.0,j,j,ukweli,tumbo,ukweli,ukweli,False,True,False,False,2.0,3,1.0,1.0,37.32950429999619,304.51883029999954,,,,8.0,,,39.33992480000597,312.53466800000024,,,7.941947500017704,1.5796858000012437,3881.0,6863.0,47.28185149998171,314.3680891000004,,,,4.0,,,49.29350599998725,318.3845268999994,,,0.4443211999896448,0.3254214999997202,2277.20000000298,2047.29999999702,,319.0843445999999,,,,4.5,,,,323.60084350000034,,,,3.0,,,,0,,,,3,,,0.0,1.0,0,0,0.0
59,2.0,23,Female,right-handed,plank,tindashan,79.0,7.0,55.0,137.0,v,1.0,n,j,ahos,ahos,tindashan,tindashan,False,False,True,True,1.0,0.0,1.0,1.0,703.6743224999809,113.19541980000032,,,,3.5,,,705.6801885000023,116.7114218000006,,,1.7003600999887567,2.470270899999377,4071.0,10367.0,707.3808221000072,119.54457550000006,,,,6.0,,,709.395116700005,125.56107080000038,,,0.2218155000009574,0.3244580000009591,2200.800000011921,1710.1000000089407,,126.29417430000105,,,,3.0,,,,129.31109389999983,,,,3.0,,,,1,,,,0,,,0.0,0.0,0.0,0.0,1.0
60,2.0,23,Female,right-handed,raam,chuki,84.0,14.0,77.0,107.0,v,2.0,j,v,chuki,chuki,chuki,chuki,True,True,True,True,3.0,3.0,3.0,2.0,735.7550935999898,251.1548717000005,,,,4.0,,,737.7665473000088,255.17132970000057,,,6.473662000003969,2.897412899999836,3478.0,2310.0,744.2403856999881,258.28793829999995,,,,2.0,,,746.2516247000021,260.30395320000025,,,0.2427490000263787,0.942424299999402,1867.699999988079,2253.0999999940395,,261.47111290000066,,,,3.0,,,,264.48727750000035,,,,3.0,,,,1,,,,3,,,1.0,1.0,0.0,0.0,1.0
61,2.0,23,Female,right-handed,roos,mtirka,16.0,14.0,41.0,140.0,n,3.0,f,v,mtirka,mtirka,abogado,abogado,True,True,False,False,1.0,1.0,1.0,1.0,144.3092115999898,286.84736619999967,,,,4.0,,,146.31967749999603,290.8645153999996,,,11.333686300000409,6.362215499999365,3653.0,7121.0,157.65338089998113,297.49723540000014,,,,1.5,,,159.66413089999696,299.0136687999993,,,0.5448543000093196,0.4515092000001459,2560.79999999702,1837.20000000298,,299.84690619999947,,,,3.0,,,,302.8632582,,,,1.0,,,,1,,,,3,,,1.0,0.0,2.0,2.0,0.0
62,2.0,23,Female,right-handed,schaar,jokofu,50.0,10.0,51.0,162.0,n,3.0,v,j,jokofu,babaye,babaye,babaye,True,False,False,False,0.0,1.0,1.0,1.0,476.539790299983,171.37520720000066,,,,4.5,,,478.5517092999944,175.89176580000094,,,4.102409500017529,3.791386299999431,7422.0,3145.0,482.6539544999832,179.89207949999945,,,,3.0,,,484.6639682999812,182.9079001000009,,,0.5448328999918886,0.2322846000006393,1067.6000000089407,1421.1000000089407,,183.42461619999995,,,,3.0,,,,186.4410363999996,,,,3.0,,,,1,,,,0,,,1.0,0.0,-1.0,1.0,0.0
63,2.0,23,Female,right-handed,schoen,pangalan,59.0,8.0,6.0,114.0,n,1.0,n,n,ganti,sulagma,pangalan,pangalan,False,False,True,True,1.0,1.0,1.0,1.0,552.0912641999894,154.37094829999933,,,,3.5,,,554.1016737000027,157.88791519999995,,,3.642983300000196,5.3082449999992605,9918.0,4325.0,557.7446014999878,163.6874625999999,,,,4.5,,,559.7554023999837,168.20368849999977,,,0.5517740999930538,0.2982938000004651,2640.70000000298,1721.8999999910593,,168.9368715999999,,,,4.0,,,,172.9535275999997,,,,1.0,,,,1,,,,0,,,0.0,0.0,-1.0,1.0,1.0
64,2.0,23,Female,right-handed,schouder,paghukom,73.0,21.0,20.0,97.0,n,2.0,n,j,mashua,paghukom,paghukom,haraka,False,True,True,False,1.0,1.0,1.0,1.0,660.3439747999946,377.1315376000002,,,,3.5,,,662.3569538999873,380.6479940999998,,,3.7342054000182543,3.248770500000319,8606.0,2876.0,666.0912117999978,384.0981966,,,,1.0,,,668.0950138999906,385.1144547999993,,,0.2443729999940842,0.6616543000000092,1720.5,3054.300000011921,,386.0308409000008,,,,4.0,,,,390.0474857999998,,,,3.0,,,,1,,,,3,,,1.0,0.0,2.0,2.0,0.0
65,2.0,23,Female,right-handed,schrift,duga,64.0,22.0,86.0,149.0,n,3.0,j,n,furaha,kovuli,kovuli,mara,False,False,False,False,2.0,0.0,1.0,1.0,591.8781881000032,409.18248330000097,,,,5.5,,,593.8900514999987,414.6986591999994,,,2.404203099984443,3.032565899999099,4707.0,4030.0,596.2939720999857,417.9656035000007,,,,6.0,,,598.3044460999954,423.9815612000002,,,0.2726029000186827,0.0,1244.0999999940395,1836.9000000059605,,424.2480667,,,,3.0,,,,427.2647132000002,,,,2.0,,,,1,,,,0,,,1.0,0.0,0.0,0.0,0.0
66,2.0,23,Female,right-handed,sigaar,pintal,57.0,30.0,18.0,110.0,f,2.0,f,v,pintal,pintal,pintal,ndogo,True,True,True,False,3.0,3.0,1.0,1.0,535.7177284999925,540.8567249000007,,,,4.0,,,537.7299706999911,544.8728759000005,,,2.6210927000211086,2.9921016999996937,4099.0,34198.0,540.3505597999902,548.0565535000005,,,,5.0,,,542.3603966000082,553.072752600001,,,0.3557120999903418,0.2788366000004316,1638.7999999970198,5379.0,,553.6224364999998,,,,5.0,,,,558.6391418999992,,,,3.0,,,,1,,,,3,,,1.0,1.0,0.0,0.0,0.0
67,2.0,23,Female,right-handed,slang,jiwe,1.0,22.0,88.0,168.0,j,1.0,n,f,jiwe,salita,jiwe,jiwe,True,False,True,True,2.0,1.0,3.0,3.0,0.0109177999838721,394.0642165999998,,,,3.0,,,2.0222435999894515,397.0804301999997,,,2.4444852999877185,3.3928799999994226,5880.0,3437.0,4.466723799996544,400.7139430999996,,,,1.0,,,6.478565900004469,401.7301712000008,,,1.3366144000028726,0.7618993999985832,1646.300000011921,1470.199999988079,,402.7301454999997,,,,6.5,,,,409.2464307999999,,,,3.0,,,,1,,,,0,,,0.0,0.0,-1.0,1.0,1.0
68,2.0,23,Female,right-handed,sleutel,bituin,29.0,30.0,1.0,155.0,n,1.0,v,j,kawaida,hulma,kawaida,kawaida,False,False,False,False,1.0,1.0,1.0,1.0,273.45631499998854,644.3795154,,,,4.0,,,275.4704858000041,648.3962210999998,,,10.851707599998916,7.879266399999324,4352.0,4275.0,286.3220947999798,656.5454489999993,,,,1.0,,,288.3336071999802,657.5617788999989,,,1.0050335999985691,1.1825748000010208,2418.5,1835.4000000059605,,659.0616862999996,,,,3.0,,,,662.0784022999997,,,,1.0,,,,1,,,,0,,,0.0,0.0,-1.0,1.0,0.0
69,2.0,23,Female,right-handed,sok,baiski,72.0,4.0,15.0,136.0,n,1.0,j,n,baiski,baiski,baiski,ngazi,True,True,True,False,3.0,1.0,1.0,1.0,651.1940025000076,56.3311264999993,,,,4.0,,,653.2058805999986,60.347694399999455,,,4.810962599993218,1.929424100000688,4918.0,5301.0,658.0157266999886,62.59792059999927,,,,2.5,,,660.0287106999895,65.1140078999997,,,0.2998091999907046,0.8911931000002369,1573.7000000029802,2056.0,,66.31394100000034,,,,3.0,,,,69.33048960000087,,,,3.0,,,,1,,,,3,,,0.0,0.0,2.0,2.0,0.0
70,2.0,23,Female,right-handed,spiegel,tuburan,44.0,13.0,74.0,139.0,n,0.0,n,n,luha,umaga,umaga,umaga,False,False,False,False,1.0,2.0,1.0,1.0,422.4819770999893,263.04907269999967,,,,6.0,,,424.4920601999911,269.0653986999996,,,7.098139900015667,4.090503899999931,4261.0,8004.0,431.58984000000055,273.61506199999985,,,,3.5,,,433.6011037999997,277.1315053999997,,,0.2804931999999098,0.8411770000002434,1354.0999999940395,2019.5999999940395,,278.3145301999993,,,,4.5,,,,282.83107029999974,,,,1.0,,,,1,,,,0,,,0.0,1.0,-2.0,2.0,0.0
71,2.0,23,Female,right-handed,spin,mwanake,41.0,23.0,22.0,124.0,n,1.0,j,v,mwanake,mdudu,mwanake,mwanake,True,False,True,True,3.0,1.0,3.0,1.0,392.30353439998,413.2962260999993,,,,5.5,,,394.3174086000072,418.8124869999992,,,6.575078499998199,4.0927083999995375,1839.0,3645.0,400.89233299999614,423.1807270000008,,,,1.0,,,402.89980729998206,424.19596719999936,,,0.2748752000043168,0.8175874999997177,2012.6000000089407,5830.5,,425.2787994000009,,,,3.0,,,,428.29581300000063,,,,3.0,,,,1,,,,0,,,0.0,0.0,-1.0,1.0,1.0
72,2.0,23,Female,right-handed,steen,baki,55.0,6.0,11.0,91.0,j,2.0,v,v,baki,baki,baki,baki,True,True,True,True,1.0,1.0,1.0,1.0,518.2598992999992,102.8816442999996,,,,3.5,,,520.274690899998,106.39827309999964,,,6.421327199990628,5.490117900000769,3332.0,3753.0,526.6958749000041,112.164309400001,,,,2.0,,,528.7077964000055,114.18073639999966,,,0.701872799982084,0.0,1640.7999999970198,1541.2000000029802,,115.14722470000017,,,,3.5,,,,118.66428880000058,,,,2.0,,,,1,,,,3,,,1.0,0.0,2.0,2.0,1.0
73,2.0,23,Female,right-handed,stift,chupi,9.0,7.0,10.0,130.0,j,1.0,j,f,chupi,chupi,chupi,chupi,True,True,True,True,1.0,3,1.0,1.0,78.51024800000596,122.68082160000084,,,,7.0,,,80.5234736999846,129.69706020000012,,,3.899016100011068,4.3535320999999385,6038.0,6307.0,84.42259169998579,134.34642669999994,,,,1.5,,,86.4360394999967,135.8629946000001,,,0.2948537000047508,0.91539819999889,1903.6000000089407,2830.0,,137.0299959999993,,,,3.5,,,,140.5460750000002,,,,2.0,,,,0,,,,3,,,0.0,1.0,0,0,1.0
74,2.0,23,Female,right-handed,stuur,barua,31.0,6.0,23.0,138.0,j,2.0,f,f,chaki,barua,chaki,chaki,False,True,False,False,1.0,0.0,3.0,1.0,298.1584879999864,103.5733891,,,,5.5,,,300.1672280000057,109.0904714999997,,,4.516465799999423,5.424001100000169,3096.0,7428.0,304.6835627999972,114.92297979999968,,,,1.5,,,306.6945973999973,116.43965819999994,,,0.3752110000059474,0.5536111999999775,2004.9000000059605,2520.699999988079,,117.4397798,,,,3.0,,,,120.45611109999936,,,,1.0,,,,1,,,,3,,,1.0,0.0,3.0,3.0,0.0
75,2.0,23,Female,right-handed,tand,samaki,37.0,12.0,64.0,164.0,f,0.0,f,f,samaki,gabi,samaki,samaki,True,False,True,True,1.0,1.0,1.0,2.0,349.91516089998186,238.7672028999996,,,,7.0,,,351.9223878000048,245.78334129999985,,,5.431075500004226,4.870227599999453,5068.0,2541.0,357.3535403999849,251.09919679999985,,,,3.5,,,359.3605528000044,254.615863,,,1.2133367999922484,0.4851882000002661,3791.6000000089407,1068.0,,255.5158181999996,,,,3.5,,,,259.0326371000001,,,,1.0,,,,1,,,,0,,,0.0,0.0,-1.0,1.0,1.0
76,2.0,23,Female,right-handed,telefoon,nanga,56.0,16.0,72.0,99.0,f,1.0,f,f,kinywa,bilaska,nanga,nanga,False,False,True,True,0.0,1.0,1.0,1.0,529.425840299984,330.8456372999999,,,,4.5,,,531.4365886999876,335.3621955999997,,,1.991845200012904,4.679675499999576,7033.0,4009.0,533.4283189999987,340.5619223999993,,,,1.0,,,535.4371301000065,341.5781234999995,,,0.2653143999923486,0.6526526999996349,1400.4000000059605,1638.3999999910593,,342.51124379999965,,,,3.0,,,,345.52832919999946,,,,1.0,,,,1,,,,0,,,0.0,0.0,-1.0,1.0,1.0
77,2.0,23,Female,right-handed,tomaat,rafiki,77.0,11.0,68.0,127.0,n,2.0,j,n,osha,rafiki,osha,osha,False,True,False,False,0.0,2.0,1.0,1.0,687.23542859999,190.4574895000005,,,,5.5,,,689.2480655999971,195.97397249999997,,,3.985318200022448,3.4434144999995624,6966.0,14006.0,693.2331217000028,199.6418814000008,,,,5.5,,,695.2435604000057,205.15679120000092,,,0.6349115999764763,1.4940286999990349,999.4000000059604,1509.7000000029802,,206.8733278,,,,3.5,,,,210.3902734000003,,,,3.0,,,,1,,,,3,,,1.0,1.0,1.0,1.0,0.0
78,2.0,23,Female,right-handed,trein,leso,20.0,16.0,71.0,159.0,j,2.0,j,j,mali,leso,ishara,ishara,False,True,False,False,1.0,3.0,1.0,2.0,185.54532790000667,285.61944419999963,,,,3.5,,,187.5521810000064,289.13629220000075,,,6.962596700002905,3.3737792000010813,4346.0,10100.0,194.51483249999,292.7196165000005,,,,3.0,,,196.52704379998613,295.73559399999976,,,0.2506882000016048,1.4930564000005688,1196.699999988079,1669.2999999970198,,297.4854907999997,,,,3.0,,,,300.50195899999926,,,,3.0,,,,1,,,,3,,,1.0,1.0,0.0,0.0,0.0
79,2.0,23,Female,right-handed,vinger,punda,15.0,26.0,50.0,106.0,v,0.0,f,n,punda,kopa,nzuri,pito,True,False,False,False,3.0,0.0,1.0,1.0,136.60885739998776,568.6832734,,,,3.5,,,138.62220690000686,572.1996140000001,,,3.276582899998175,0.0,5027.0,6711.0,141.89853020000737,572.6499877999995,,,,2.5,,,143.90540689998306,575.1661396,,,0.3873555999889504,0.0,1616.0,1844.70000000298,,576.5992728000001,,,,3.5,,,,580.1164011000001,,,,1.0,,,,1,,,,0,,,0.0,0.0,0.0,0.0,0.0
80,2.0,23,Female,right-handed,vis,mvringo,45.0,19.0,60.0,179.0,v,1.0,v,j,mvringo,pagtawag,pagtawag,pagtawag,True,False,False,False,3.0,1.0,1.0,1.0,433.8966238999856,341.5664350999996,,,,3.0,,,435.9093180999917,344.58340099999987,,,2.710912700014888,3.2227965999991284,11533.0,7414.0,438.620124899986,348.0667618000007,,,,2.0,,,440.6232158000057,350.0829938999996,,,0.2616788000159431,0.231703399998878,2281.20000000298,1574.5,,350.5493556000001,,,,5.5,,,,356.0659108,,,,3.0,,,,1,,,,0,,,0.0,0.0,-1.0,1.0,0.0
81,2.0,23,Female,right-handed,vlag,surali,2.0,28.0,35.0,144.0,f,3.0,v,v,surali,surali,surali,surali,True,True,True,True,1.0,3,2.0,1.0,7.836379299988039,498.4587382000009,,,,6.5,,,9.847566499985987,504.9753526000004,,,5.340732399985427,0.7928873999990174,5247.0,3819.0,15.188274999993157,506.0082989000002,,,,2.5,,,17.19781700000749,508.5250503999996,,,1.314524799992796,0.3107153000000835,2344.0,1815.8999999910595,,509.1246947,,,,4.5,,,,513.6411398,,,,3.0,,,,0,,,,3,,,1.0,1.0,0,0,1.0
82,2.0,23,Female,right-handed,vork,bililhon,8.0,9.0,0.0,96.0,j,2.0,v,n,seri,seri,seri,seri,False,False,False,False,1.0,1.0,1.0,1.0,67.90395859998534,176.96997359999932,,,,5.5,,,69.91706179999164,182.48620570000003,,,6.27713699999731,3.990199899999425,4381.0,6112.0,76.19360579998465,187.1030528000001,,,,1.5,,,78.20578230000683,188.6192431999998,,,0.2858369000023231,0.3158836000002338,3926.29999999702,2136.300000011921,,189.3191436999996,,,,8.0,,,,197.3354282,,,,1.0,,,,1,,,,0,,,1.0,0.0,-1.0,1.0,0.0
83,2.0,23,Female,right-handed,vrouw,panya,58.0,11.0,39.0,131.0,f,2.0,v,v,kawa,panya,panya,panya,False,True,True,True,1.0,3,3.0,2.0,542.7339158999966,220.20131649999985,,,,3.0,,,544.7449369999813,223.21753529999933,,,5.03097870000056,4.6961128000002645,4255.0,8704.0,549.7756580999994,228.2673122999995,,,,1.0,,,551.7857874000038,229.2837073000001,,,0.289092699997127,0.6481471999995847,2383.0999999940395,1520.0999999940395,,230.2337461999996,,,,4.5,,,,234.7501197000001,,,,1.0,,,,0,,,,3,,,1.0,1.0,0,0,1.0
84,2.0,23,Female,right-handed,winkel,kama,83.0,28.0,32.0,173.0,f,2.0,v,n,kama,tawo,kama,tawo,True,False,True,False,1.0,0.0,2.0,1.0,729.8422132999985,606.9143101999998,,,,3.5,,,731.8551069999812,610.4309754000005,,,1.6026001000136605,3.170304400000532,4968.0,6333.0,733.4570062999846,613.9661281999997,,,,2.0,,,735.4680243000039,615.9808383,,,0.2704690000100527,0.4477393999986816,2421.5,2008.20000000298,,616.8138902999999,,,,5.0,,,,621.8302347999997,,,,1.0,,,,1,,,,0,,,1.0,0.0,0.0,0.0,0.0
85,2.0,23,Female,right-handed,wolf,kuzama,90.0,4.0,49.0,146.0,j,0.0,n,f,kuzama,kuzama,kuzama,kuzama,True,True,True,True,2.0,2.0,1.0,1.0,780.5562468999997,64.63358030000018,,,,3.0,,,782.5658753000025,67.65029080000022,,,4.722004400013248,3.621832100001484,8157.0,6323.0,787.287500699982,71.64976799999931,,,,2.5,,,789.2911241999827,74.16620270000021,,,0.2943774999876041,1.9602990000003049,2653.4000000059605,1941.5,,76.34919799999989,,,,3.0,,,,79.36570810000012,,,,2.0,,,,1,,,,3,,,0.0,1.0,1.0,1.0,1.0
86,2.0,23,Female,right-handed,zakdoek,kadaot,43.0,1.0,58.0,90.0,n,0.0,j,j,kisiwa,kubwa,kisiwa,kisiwa,False,False,False,False,1.0,1.0,1.0,1.0,412.6556692000013,0.0207429000001866,,,,6.0,,,414.6705984,6.036085300000195,,,4.708420300012222,4.393747100000837,2488.0,4938.0,419.3786965000036,10.786217700000634,,,,5.5,,,421.3896826999844,16.302431300000535,,,1.0750941000005696,1.163151500000822,1720.5,2391.29999999702,,17.81897840000056,,,,4.0,,,,21.83546430000024,,,,2.0,,,,1,,,,0,,,0.0,0.0,-1.0,1.0,0.0
87,2.0,23,Female,right-handed,zalm,bakus,62.0,16.0,13.0,165.0,f,1.0,j,v,hazini,bakus,bakus,bakus,False,True,True,True,1.0,3,3.0,3.0,578.3427428999858,307.68738440000016,,,,3.0,,,580.3564885999949,310.70458119999967,,,1.862307300005341,2.491631400000188,2463.0,2826.0,582.2183782999928,313.57056209999973,,,,2.5,,,584.2286769000057,316.0870292,,,0.1934600000095088,0.526814299999387,2418.0999999940395,1918.3999999910595,,316.90358410000044,,,,5.0,,,,321.92058800000086,,,,2.0,,,,0,,,,3,,,0.0,0.0,0,0,1.0
88,2.0,23,Female,right-handed,zon,asin,6.0,3.0,61.0,143.0,n,2.0,j,f,asin,asin,asin,asin,True,True,True,True,3.0,3.0,3.0,1.0,49.75135800000862,37.69411179999952,,,,7.5,,,51.76134959998308,45.21036009999989,,,2.1193760999885853,3.106878900000084,10248.0,3275.0,53.88082530000247,48.74301419999938,,,,2.0,,,55.89150159998098,50.75959090000015,,,1.2364000999950804,0.426504300000488,1895.70000000298,2876.29999999702,,51.47618479999983,,,,3.5,,,,54.99320569999964,,,,1.0,,,,1,,,,3,,,1.0,1.0,0.0,0.0,1.0
89,2.0,23,Female,right-handed,zuil,gutom,24.0,25.0,45.0,176.0,j,2.0,v,f,gutom,gutom,dila,dila,True,True,False,False,1.0,0.0,1.0,1.0,221.44043749998676,472.9790646000001,,,,3.0,,,223.45486689999237,475.9956361000004,,,6.037756100005936,3.845782099999269,13066.0,2719.0,229.49198150000305,480.18002870000055,,,,4.0,,,231.50442230000044,484.1951279999994,,,0.2892349000030663,0.9613940000017464,2173.0999999940395,2132.20000000298,,485.5282293,,,,7.5,,,,493.0451641,,,,2.0,,,,1,,,,3,,,1.0,0.0,3.0,3.0,0.0
90,3.0,18,Female,right-handed,affiche,kengele,59.0,28.0,25.0,102.0,j,2.0,n,j,kengele,kengele,kengele,kengele,True,True,True,True,3.0,2.0,1.0,2.0,580.5556960999966,543.6423116999995,,,,8.0,,,582.5705932999845,551.6581047,,,4.58132990001468,4.581422100000054,5896.0,11347.0,587.1514164999826,556.4744389999996,,,,4.5,,,589.1614984000043,560.9907240000011,,,0.2728948000003584,0.4945158000009542,1249.2999999523165,3023.700000047684,,561.7572562999994,,,,3.5,,,,565.2738308999997,,,,2.0,,,,1,,,,3,,,1.0,1.0,1.0,1.0,1.0
91,3.0,18,Female,right-handed,agent,kumbuka,31.0,17.0,75.0,154.0,n,2.0,j,f,kumbuka,kumbuka,bunifu,bahandi,True,True,False,False,3.0,3.0,2.0,2.0,307.6254375999852,341.7965695999992,,,,3.0,,,309.6352185999858,344.8134950000004,,,5.704710599995451,2.8422463000006246,6340.0,5753.0,315.3399712999817,347.9628641999989,,,,5.0,,,317.3511574000004,352.97928879999927,,,0.3207755000039469,0.3518751999999949,2658.2999999523163,2104.0,,353.6290152999991,,,,3.0,,,,356.64572810000027,,,,1.0,,,,1,,,,3,,,1.0,1.0,0.0,0.0,0.0
92,3.0,18,Female,right-handed,appel,kasili,86.0,13.0,5.0,173.0,j,2.0,v,v,kasili,kesho,kasili,kasili,True,False,True,True,1.0,0.0,2.0,2.0,833.1863188999996,268.2668298999997,,,,3.0,,,835.1995504999941,271.2838637999994,,,5.763558999984525,4.011247200000071,7679.0,5342.0,840.9628248999943,275.5502101999991,,,,1.0,,,842.9684390999901,276.5663791999996,,,0.3425824000150896,0.6567773999995552,7585.299999952316,1099.7000000476835,,277.4830450999998,,,,3.5,,,,280.9995490000001,,,,1.0,,,,1,,,,0,,,1.0,0.0,0.0,0.0,1.0
93,3.0,18,Female,right-handed,banaan,aibu,84.0,15.0,13.0,150.0,j,2.0,n,v,aibu,aibu,aibu,neyemba,True,True,True,False,3.0,3.0,2.0,1.0,816.0901718999958,302.9317309999988,,,,8.0,,,818.1021720999852,310.94801749999897,,,3.848935500020161,2.425723199999993,6984.0,1973.0,821.9500592999975,313.6152356999992,,,,3.5,,,823.960824299982,317.1311941999993,,,0.2701155999966431,0.4094850000001315,1181.5,3918.299999952316,,317.8308954999993,,,,4.0,,,,321.84741380000014,,,,1.0,,,,1,,,,3,,,1.0,1.0,0.0,0.0,0.0
94,3.0,18,Female,right-handed,bank,punguza,69.0,3.0,70.0,161.0,v,0.0,v,v,kabalaka,kabalaka,punguza,kabalaka,False,False,True,False,1.0,0.0,1.0,2.0,668.1534809999866,38.50052979999964,,,,3.0,,,670.1675219000026,41.517342900000585,,,4.218803199997637,7.88138600000093,7810.0,3380.0,674.3848293999908,49.6494574999997,,,,5.5,,,676.3959863999917,55.16651110000021,,,0.2807234000065364,0.5271091999984492,1379.100000023842,1834.0,,55.96638239999993,,,,3.5,,,,59.48315279999952,,,,2.0,,,,1,,,,0,,,0.0,0.0,0.0,0.0,0.0
95,3.0,18,Female,right-handed,bed,kubale,24.0,7.0,22.0,96.0,v,2.0,n,v,kubale,kubale,bahari,bahari,True,True,False,False,3.0,3.0,1.0,2.0,229.8666112999781,134.47926580000058,,,,3.0,,,231.878827699984,137.4961070999998,,,8.096931799984304,2.650044199999684,11182.0,4601.0,239.9751613999833,140.39568950000103,,,,2.5,,,241.9872814999835,142.91201060000094,,,0.6873319000005722,0.3914203000003908,2143.6999999284744,2852.2999999523163,,143.54534910000075,,,,3.0,,,,146.56191659999968,,,,2.0,,,,1,,,,3,,,1.0,1.0,0.0,0.0,0.0
96,3.0,18,Female,right-handed,beker,lalake,53.0,11.0,34.0,119.0,f,2.0,v,n,lalake,lalake,bega,bega,True,True,False,False,1.0,1.0,2.0,2.0,521.0534934999887,205.52541120000024,,,,4.5,,,523.0665455999842,210.04194880000068,,,5.865842700004578,3.445449100001497,5562.0,3106.0,528.9321311999811,213.7255949000009,,,,1.0,,,530.9410670999787,214.74176740000075,,,0.2921063000103459,0.4432926999998017,1700.0,1672.2000000476835,,215.52542530000028,,,,3.0,,,,218.5415223,,,,2.0,,,,1,,,,3,,,1.0,0.0,2.0,2.0,0.0
97,3.0,18,Female,right-handed,bes,rangi,90.0,15.0,16.0,160.0,n,1.0,n,n,rangi,rangi,rangi,rangi,True,True,True,True,3.0,3.0,2.0,2.0,867.8933095999819,279.62243320000016,,,,3.5,,,869.9095593999955,283.1391123000012,,,10.582557999994606,2.6260161999998672,3970.0,2825.0,880.491627099982,286.0727540000007,,,,3.0,,,882.5043347000028,289.0888242000001,,,0.4155971999862231,0.5127290999989782,1768.399999976158,2129.0,,289.8721158000008,,,,8.0,,,,297.8886763999999,,,,3.0,,,,1,,,,3,,,0.0,1.0,0.0,0.0,1.0
98,3.0,18,Female,right-handed,bloem,ndugu,65.0,20.0,19.0,141.0,v,3.0,j,f,ndugu,ndugu,ndugu,kugita,True,True,True,False,3.0,3.0,3.0,2.0,629.8592741999892,378.6671489,,,,5.5,,,631.8729041999904,384.1829061999997,,,4.2995974000077695,2.5435309000004054,3816.0,2882.0,636.1721636999864,386.966528500001,,,,1.5,,,638.176152799977,388.4827958999995,,,0.2845473999914247,0.6026312000012695,1305.0,2109.399999976158,,389.3332183000002,,,,3.0,,,,392.3494348000004,,,,2.0,,,,1,,,,3,,,1.0,1.0,0.0,0.0,0.0
99,3.0,18,Female,right-handed,boek,mfuko,1.0,24.0,67.0,107.0,f,0.0,v,f,mfuko,mfuko,matumai,jumatu,True,True,False,False,3.0,3.0,2.0,1.0,0.0097992999944835,489.8055160999993,,,,4.0,,,2.0204212999960878,493.82247259999895,,,3.949172399996314,1.9129112000009627,4157.0,15022.0,5.969595299975481,496.0053563999991,,,,1.0,,,7.979205499985255,497.0221197999999,,,1.7979875000019092,0.3918677999990905,2744.2999999523163,3042.599999904633,,497.7051119999997,,,,3.0,,,,500.7215102999999,,,,1.0,,,,1,,,,3,,,0.0,1.0,0.0,0.0,0.0
100,3.0,18,Female,right-handed,boot,simu,56.0,1.0,46.0,177.0,n,2.0,n,n,twai,twai,simu,twai,False,False,True,False,0.0,1.0,2.0,1.0,552.6307044999849,0.0197378000011667,,,,3.5,,,554.6438542999967,3.5359815000010717,,,4.414662800001679,3.1166131000009045,4401.0,5957.0,559.0585619999911,6.869440200000099,,,,1.5,,,561.0685151999933,8.385685999999623,,,0.2504231000202708,0.3452886000013677,1722.7999999523165,1426.0,,9.018715600001087,,,,6.0,,,,15.035338199999387,,,,2.0,,,,1,,,,0,,,1.0,0.0,-1.0,1.0,0.0
101,3.0,18,Female,right-handed,brief,ugomvi,20.0,23.0,20.0,104.0,f,2.0,f,f,ugomvi,ugomvi,kihozi,kihozi,True,True,False,False,0.0,0.0,2.0,2.0,195.4648501999909,435.1802459999999,,,,3.5,,,197.4752893999976,438.6970108999994,,,4.931509099988034,5.532559599998422,4857.0,6411.0,202.4065402999986,444.48014859999967,,,,1.0,,,204.41965239998532,445.4965087000001,,,0.5585853999946266,0.4323855000002368,2329.1999999284744,3081.0,,446.1963391000008,,,,7.0,,,,453.2132832000007,,,,2.0,,,,1,,,,3,,,1.0,0.0,3.0,3.0,0.0
102,3.0,18,Female,right-handed,broek,sensilyo,38.0,2.0,56.0,165.0,j,1.0,n,n,sensilyo,sensilyo,sensilyo,sensilyo,True,True,True,True,3.0,3,3.0,2.0,376.48538420000114,23.02194109999982,,,,5.0,,,378.49631849999423,28.03548310000042,,,5.053098300006241,1.6276166000006924,2660.0,2592.0,383.5494512000005,29.93593710000096,,,,1.0,,,385.55800419999287,30.95187220000116,,,0.4779216999886557,0.3404367000002821,3580.200000047684,1947.3000000715256,,31.55187819999992,,,,3.5,,,,35.06896170000073,,,,3.0,,,,0,,,,3,,,0.0,1.0,0,0,1.0
103,3.0,18,Female,right-handed,brood,chupa,47.0,18.0,28.0,166.0,v,2.0,f,n,chupa,chupa,chupa,chupa,True,True,True,True,3.0,3.0,3.0,3.0,466.4692819999764,341.5855329999995,,,,6.0,,,468.4803777999769,347.60145320000083,,,2.414518000005046,1.8445326000000928,2760.0,2276.0,470.8952998000023,349.65140650000103,,,,2.0,,,472.90529619998415,351.6678797999993,,,0.4634332999994512,0.3561153000009653,1521.0,4237.199999928474,,352.30139659999986,,,,3.0,,,,355.3184094999997,,,,2.0,,,,1,,,,3,,,1.0,1.0,0.0,0.0,1.0
104,3.0,18,Female,right-handed,brug,bandari,89.0,22.0,40.0,163.0,n,2.0,v,n,bandari,bandari,bandari,bandari,True,True,True,True,3.0,3.0,3.0,2.0,860.1729433999863,455.2411859999993,,,,3.5,,,862.186326199997,458.7576209999989,,,3.324253800004953,1.7464536000006774,6377.0,4937.0,865.5097733000002,460.7571489000002,,,,1.0,,,867.5204338999756,461.77352919999976,,,0.3576623999979347,0.5808276000007027,6897.399999976158,1560.2000000476835,,462.6401597000004,,,,3.0,,,,465.65663440000026,,,,1.0,,,,1,,,,3,,,1.0,1.0,0.0,0.0,1.0
105,3.0,18,Female,right-handed,cadeau,kuacha,49.0,29.0,43.0,97.0,f,3.0,f,f,kuacha,kuacha,kuacha,kuacha,True,True,True,True,2.0,2.0,3.0,3.0,481.3169652999786,581.8013295000001,,,,3.0,,,483.327768099989,584.8177493999992,,,6.878098699991824,10.879047600001286,3999.0,2606.0,490.20572529998026,595.9499741,,,,3.0,,,492.21701349999057,598.9665832999999,,,0.3040929000126198,0.3346337000002677,2566.7999999523163,2617.100000023842,,599.5332331999998,,,,3.0,,,,602.5499898999988,,,,1.0,,,,1,,,,3,,,1.0,1.0,1.0,1.0,1.0
106,3.0,18,Female,right-handed,cijfer,kamba,30.0,18.0,10.0,153.0,v,3.0,j,j,kamba,kamba,kamba,kamba,True,True,True,True,1.0,1.0,2.0,3.0,291.0467331999971,360.6624777999986,,,,6.0,,,293.0588366999873,366.6783994999987,,,12.03646679999656,4.758083800001259,5075.0,1899.0,305.0946053999942,371.6633576000004,,,,3.0,,,307.1045673999761,374.6782954999999,,,0.5047588000015821,2.133658900000228,2369.7999999523163,1297.399999976158,,377.1278008999998,,,,4.0,,,,381.14488960000017,,,,1.0,,,,1,,,,3,,,1.0,0.0,2.0,2.0,1.0
107,3.0,18,Female,right-handed,deur,bloke,42.0,2.0,15.0,168.0,n,1.0,n,v,bloke,bloke,bloke,bloke,True,True,True,True,3.0,3,3.0,3.0,412.29289699997753,19.0515448999995,,,,4.0,,,414.3071922999807,23.06854469999962,,,2.5615300000063144,3.698277900000903,3063.0,2661.0,416.868614099978,27.1524773000001,,,,3.0,,,418.880187999981,30.16831009999987,,,0.4748580000014044,1.0043421999998827,1559.399999976158,1791.4000000953674,,31.467752200000177,,,,3.0,,,,34.48409660000107,,,,2.0,,,,0,,,,3,,,0.0,1.0,0,0,1.0
108,3.0,18,Female,right-handed,doos,lisud,71.0,11.0,39.0,106.0,v,1.0,n,f,mahugaw,lisud,pundok,pundok,False,True,False,False,0.0,3,2.0,2.0,686.5305445999838,219.35334599999987,,,,5.5,,,688.5435279999801,224.86946389999864,,,7.904429999995045,8.109678700000586,6740.0,2451.0,696.448095699976,233.3021111999988,,,,5.5,,,698.4612285999756,238.8185771999997,,,0.602689499995904,0.4555696000006719,3041.5,1072.5,,239.58483479999995,,,,5.5,,,,245.10131509999883,,,,1.0,,,,0,,,,3,,,0.0,1.0,0,0,0.0
109,3.0,18,Female,right-handed,driehoek,bulwawan,25.0,29.0,48.0,170.0,f,0.0,f,v,bulwawan,bulwawan,bulwawan,bulwawan,True,True,True,True,3.0,3.0,2.0,2.0,242.69110629998613,569.2905625000003,,,,7.0,,,244.7050300999836,576.3068433999997,,,4.710202199988999,2.633539500000552,3945.0,3853.0,249.41473589997625,579.2232879000003,,,,1.0,,,251.42527949999203,580.2397796000005,,,0.5430753000255208,0.4595948999995016,2855.7999999523163,2015.4000000953677,,581.0562640000007,,,,5.5,,,,586.5731383000002,,,,2.0,,,,1,,,,3,,,0.0,1.0,0.0,0.0,1.0
110,3.0,18,Female,right-handed,eekhoorn,kisu,27.0,19.0,33.0,131.0,n,2.0,j,j,kisu,kisu,kisu,kisu,True,True,True,True,1.0,0.0,1.0,1.0,258.20643059999566,385.1611498000002,,,,7.0,,,260.2177406999981,392.177670699999,,,8.78436019999208,6.287676799998735,5465.0,1904.0,269.00217579997843,398.7436359000003,,,,1.0,,,271.0112560999987,399.76003130000026,,,0.7029258000256959,0.8035475999986375,1760.4000000953674,1190.2999999523165,,400.8433965999993,,,,6.0,,,,406.85976709999886,,,,1.0,,,,1,,,,3,,,1.0,0.0,3.0,3.0,1.0
111,3.0,18,Female,right-handed,emmer,kweli,6.0,22.0,60.0,99.0,f,1.0,n,n,kweli,kweli,kweli,kweli,True,True,True,True,3.0,3.0,3.0,3.0,52.74410280000302,424.1655510000001,,,,4.0,,,54.75494289997732,428.18212870000025,,,4.653809899988119,3.3367417999998,3560.0,1695.0,59.40881789999548,431.81609650000064,,,,1.5,,,61.41868849997991,433.33142469999984,,,0.9438128999900072,0.4461274999994202,2521.8000000715256,1240.399999976158,,434.0145806,,,,3.5,,,,437.5312799000003,,,,3.0,,,,1,,,,3,,,0.0,1.0,0.0,0.0,1.0
112,3.0,18,Female,right-handed,ezel,geza,55.0,12.0,17.0,124.0,n,3.0,f,j,geza,geza,geza,geza,True,True,True,True,1.0,1.0,2.0,2.0,542.8269228999852,222.5580663000001,,,,3.5,,,544.8308542000013,226.07498789999957,,,5.493308099976275,3.7573173999990095,7536.0,2418.0,550.324564599985,230.04087100000103,,,,1.0,,,552.3356561999826,231.05756930000095,,,0.2807393000111915,0.5941777000007278,2625.899999976158,1411.3000000715256,,231.9074184000001,,,,8.0,,,,239.92393249999984,,,,2.0,,,,1,,,,3,,,1.0,0.0,2.0,2.0,1.0
113,3.0,18,Female,right-handed,foto,farasi,79.0,5.0,9.0,91.0,j,1.0,f,n,farasi,farasi,farasi,mbolea,True,True,True,False,0.0,3,1.0,1.0,767.2074462999881,92.04295559999991,,,,3.0,,,769.2196519999998,95.0590022999986,,,6.132881199999247,7.086648500000592,3244.0,2500.0,775.3522097999812,102.49900189999973,,,,1.5,,,777.3601229999913,104.00858909999988,,,0.3200647999765351,1.353773499999079,2417.0,1471.2999999523165,,105.6251672999988,,,,3.5,,,,109.14171809999972,,,,1.0,,,,0,,,,3,,,0.0,1.0,0,0,0.0
114,3.0,18,Female,right-handed,giraf,fedha,57.0,3.0,57.0,172.0,v,1.0,j,n,kalipay,bili,kalipay,kalipay,False,False,False,False,0.0,0.0,1.0,2.0,561.3372121999855,39.08472170000096,,,,3.0,,,563.3501662999915,42.101371599999766,,,6.883329900010722,6.366351900000154,3015.0,1778.0,570.2332559999777,48.7685732000009,,,,3.5,,,572.2436685999855,52.2842227000001,,,0.3297835999983363,0.3199624000008043,1389.399999976158,1122.600000023842,,52.91742650000015,,,,7.0,,,,59.9339013000008,,,,3.0,,,,1,,,,0,,,0.0,0.0,0.0,0.0,0.0
115,3.0,18,Female,right-handed,gordijn,mungu,72.0,10.0,6.0,151.0,v,1.0,j,j,mungu,mungu,mungu,mungu,True,True,True,True,0.0,1.0,3.0,2.0,699.0797194999759,182.2776264000004,,,,7.5,,,701.0920624999853,189.79416870000023,,,9.265140000003155,5.4336894000007305,3506.0,2467.0,710.3569071999809,195.5269445000013,,,,1.5,,,712.3667282999959,197.04340539999976,,,0.282434299995657,0.6828433000009682,2780.8000000715256,4158.700000047684,,198.0100749000012,,,,3.0,,,,201.02662640000017,,,,3.0,,,,1,,,,3,,,0.0,0.0,2.0,2.0,1.0
116,3.0,18,Female,right-handed,grot,kalamu,17.0,24.0,54.0,140.0,n,0.0,f,f,kalamu,kalamu,kalamu,kalamu,True,True,True,True,0.0,0.0,2.0,1.0,165.23734039999545,457.2297808000003,,,,3.0,,,167.25022099999478,460.2458789000011,,,5.25106730000698,10.053412000001115,5330.0,5029.0,172.50128810000024,470.5953327000007,,,,1.5,,,174.5102623999992,472.1119176000011,,,1.9958187000011092,0.3652867999990121,2387.399999976158,1314.3000000715256,,472.8284760000006,,,,5.5,,,,478.345319,,,,2.0,,,,1,,,,3,,,0.0,0.0,3.0,3.0,1.0
117,3.0,18,Female,right-handed,hamer,maji,2.0,16.0,14.0,175.0,j,1.0,j,j,maji,maji,baho,maji,True,True,False,True,1.0,3,2.0,1.0,9.799210700002732,302.3872009000006,,,,4.0,,,11.811231400002724,306.4037253999996,,,3.662418300024001,2.3061273000002984,4890.0,5928.0,15.473045299993828,308.9538850000008,,,,4.0,,,17.483522299997276,312.9698311000011,,,0.831054000009317,0.3970159000000421,3040.600000023842,1154.5,,313.6198280000008,,,,3.0,,,,316.63630790000025,,,,2.0,,,,0,,,,3,,,0.0,1.0,0,0,0.0
118,3.0,18,Female,right-handed,handdoek,mkboa,9.0,14.0,52.0,158.0,j,2.0,j,v,mkboa,mkboa,soko,soko,True,True,False,False,3.0,3.0,2.0,1.0,84.08173849998275,258.9902622999998,,,,5.5,,,86.09350309998263,264.50656739999977,,,2.999070799996844,2.183248299999832,1955.0,2569.0,89.09202209999785,266.9066815999995,,,,4.5,,,91.10178739999536,271.4230351999995,,,0.4735021000087727,0.3929791999998997,2276.7999999523163,2516.0,,272.089493200001,,,,3.5,,,,275.6061105000008,,,,3.0,,,,1,,,,3,,,1.0,1.0,0.0,0.0,0.0
119,3.0,18,Female,right-handed,heuvel,msitu,37.0,6.0,21.0,115.0,v,2.0,n,n,msitu,msitu,msitu,msitu,True,True,True,True,3.0,3.0,3.0,3.0,369.3900468999928,111.46358139999938,,,,3.0,,,371.4024017999764,114.48066380000093,,,2.767937799973879,2.374692100000175,5228.0,2232.0,374.16972999999416,117.0967285000006,,,,6.0,,,376.1801804999996,123.1132037999996,,,0.2895902000018395,0.5558058000005985,1539.1999999284744,1760.7999999523165,,123.94621310000002,,,,6.5,,,,130.4627304000005,,,,2.0,,,,1,,,,3,,,1.0,1.0,0.0,0.0,1.0
120,3.0,18,Female,right-handed,hond,lamigas,29.0,26.0,1.0,147.0,j,3.0,n,v,lamigas,lamigas,lamigas,lamigas,True,True,True,True,3.0,3.0,3.0,3.0,284.4305819000001,499.3284435000005,,,,3.0,,,286.4440964999958,502.34455440000056,,,1.9668932000058703,6.47280900000078,3371.0,2373.0,288.41056960000424,509.0612137000008,,,,1.5,,,290.42215269999,510.57756100000006,,,0.6095715999836102,0.3479387000006682,3005.5,1371.2999999523165,,511.17734569999993,,,,4.5,,,,515.6938914000002,,,,3.0,,,,1,,,,3,,,1.0,1.0,0.0,0.0,1.0
121,3.0,18,Female,right-handed,kaars,sayari,73.0,11.0,72.0,113.0,n,1.0,n,f,sayari,sayari,sayari,sayari,True,True,True,True,1.0,1.0,2.0,2.0,712.6649931999855,205.04353360000096,,,,4.0,,,714.6772880999779,209.06006499999967,,,2.911024600005476,3.5037465000004886,5347.0,4670.0,717.5875376999902,212.8592064000004,,,,5.0,,,719.595396299992,217.8757168000011,,,0.3259130000078585,0.3840438999995967,1094.399999976158,1629.0,,218.5589559,,,,3.5,,,,222.0760091000011,,,,3.0,,,,1,,,,3,,,0.0,0.0,2.0,2.0,1.0
122,3.0,18,Female,right-handed,kampvuur,itik,41.0,23.0,58.0,108.0,j,3.0,f,f,itik,itik,itik,itik,True,True,True,True,3.0,3.0,2.0,2.0,404.2252698999946,441.5839792000006,,,,3.5,,,406.2377896999824,445.0975251,,,3.638744800002314,1.539282199999434,9564.0,4849.0,409.8759944999765,446.89786860000095,,,,1.0,,,411.8861376999994,447.9138825000009,,,0.3917918000079226,0.4411978000007366,2716.899999976158,2015.2999999523165,,448.6139034999997,,,,4.5,,,,453.1308612000012,,,,3.0,,,,1,,,,3,,,1.0,1.0,0.0,0.0,1.0
123,3.0,18,Female,right-handed,kantoor,tamasha,85.0,12.0,51.0,110.0,v,1.0,f,j,tamasha,tamasha,usiku,tamasha,True,True,False,True,1.0,2.0,1.0,2.0,824.2486093000043,249.1176787999993,,,,3.5,,,826.260912800004,252.6349914999992,,,4.617497100000037,3.045223999999507,4427.0,4612.0,830.8781646999996,256.0008178999997,,,,1.5,,,832.8878656000015,257.5174580999992,,,0.2827042999851983,0.9609901999992873,1259.7999999523165,1175.0999999046326,,258.73401620000004,,,,5.5,,,,264.2508963,,,,1.0,,,,1,,,,3,,,0.0,1.0,1.0,1.0,0.0
124,3.0,18,Female,right-handed,kat,gundi,81.0,27.0,44.0,171.0,j,1.0,n,j,gundi,kichwa,gundi,gundi,True,False,True,True,0.0,0.0,3.0,2.0,783.4739413999778,519.710721200001,,,,4.5,,,785.4875990999863,524.2267935,,,7.951679300022079,3.605852099999538,7346.0,4534.0,793.4391691999917,528.1100676999995,,,,3.0,,,795.4504023999907,531.1268742000011,,,0.2532139999966603,0.292615599999408,1696.0,1207.0,,531.7096393000011,,,,7.5,,,,539.2259926999996,,,,3.0,,,,1,,,,0,,,0.0,0.0,0.0,0.0,1.0
125,3.0,18,Female,right-handed,kist,amani,3.0,15.0,71.0,111.0,f,3.0,f,n,amani,amani,amani,amani,True,True,True,True,0.0,3,3.0,3.0,18.32992580000428,283.5718080000006,,,,5.0,,,20.345489699975587,288.5880183999998,,,5.084710100025404,1.8861620999996376,1745.0,2680.0,25.428465099976165,290.7210778999997,,,,3.5,,,27.44058889997541,294.23766090000026,,,0.7323809999797959,0.3532087999992654,1496.100000023842,2959.5,,294.8541363000004,,,,3.5,,,,298.3707594999996,,,,2.0,,,,0,,,,3,,,1.0,1.0,0,0,1.0
126,3.0,18,Female,right-handed,klok,rayna,75.0,4.0,89.0,156.0,j,0.0,f,j,siagi,siagi,siagi,rayna,False,False,False,True,0.0,0.0,1.0,1.0,732.0648082999978,63.95026839999991,,,,3.0,,,734.0777105999878,66.96736349999992,,,4.074278399988543,5.641024000000471,4589.0,3830.0,738.1514044999785,72.91671359999964,,,,1.0,,,740.1633091999975,73.93316380000033,,,0.3066162999894004,0.3834449000005406,1158.399999976158,2527.700000047684,,74.64958090000073,,,,4.0,,,,78.66620570000123,,,,3.0,,,,1,,,,0,,,0.0,0.0,0.0,0.0,0.0
127,3.0,18,Female,right-handed,knie,buli,82.0,17.0,59.0,98.0,f,3.0,n,f,buli,buli,buli,buli,True,True,True,True,3.0,3.0,3.0,3.0,795.7190783999977,324.48750760000075,,,,3.5,,,797.7307170999993,328.00349989999995,,,2.280960000003688,2.0648548000008304,2198.0,4026.0,800.0109572999936,330.3201028000003,,,,4.0,,,802.0217564999766,334.33645799999977,,,0.3295302999904379,0.48932109999987,1629.7999999523165,1789.5,,335.10307060000014,,,,5.5,,,,340.6198163000008,,,,3.0,,,,1,,,,3,,,1.0,1.0,0.0,0.0,1.0
128,3.0,18,Female,right-handed,ladder,shimoni,19.0,26.0,4.0,138.0,j,0.0,j,v,nyundu,nyundu,shimoni,shimoni,False,False,True,True,1.0,0.0,2.0,2.0,185.2596944999823,505.1599788000003,,,,3.0,,,187.27309319999767,508.1766884000008,,,5.722276199987391,6.216310199999498,9389.0,2954.0,192.9949907999835,514.6931721000001,,,,2.5,,,195.0054436999781,517.2096552000003,,,0.4439685000106692,0.3806201999996119,2321.5,1490.100000023842,,517.8765579999999,,,,5.0,,,,522.8929222999996,,,,2.0,,,,1,,,,0,,,0.0,0.0,0.0,0.0,1.0
129,3.0,18,Female,right-handed,laken,kuhesa,70.0,21.0,31.0,174.0,v,1.0,f,f,ndege,ndege,tubag,tubag,False,False,False,False,0.0,1.0,1.0,1.0,676.6924708999868,396.3660746999994,,,,4.0,,,678.7073608999781,400.3820477999998,,,5.521206200006418,5.038743600000089,3484.0,3136.0,684.2284809999983,405.7494604000003,,,,1.0,,,686.2393332999782,406.76525670000046,,,0.2752896999882068,0.9740244000004168,1588.0,1878.5,,408.0651114000011,,,,5.0,,,,413.08192210000016,,,,2.0,,,,1,,,,0,,,0.0,0.0,-1.0,1.0,0.0
130,3.0,18,Female,right-handed,lamp,mazishi,62.0,16.0,36.0,125.0,v,3.0,v,f,mazishi,dizeli,godoro,dizeli,True,False,False,False,0.0,0.0,2.0,2.0,607.3399319000018,301.9046670000007,,,,4.5,,,609.3513746999961,306.4212652999995,,,2.664015100017423,5.4034409999985655,5119.0,14902.0,612.0149098999973,312.0877141000001,,,,2.0,,,614.0257790999894,314.1040473000012,,,0.2575480000232346,0.5482112999998208,2051.3000000715256,1876.899999976158,,314.95406990000083,,,,5.5,,,,320.47104200000103,,,,3.0,,,,1,,,,0,,,1.0,0.0,0.0,0.0,0.0
131,3.0,18,Female,right-handed,lepel,ukame,18.0,29.0,29.0,90.0,v,1.0,n,n,ukame,kabuang,baso,baso,True,False,False,False,1.0,1.0,2.0,2.0,176.52214990000357,563.6084322999995,,,,3.5,,,178.5301102999947,567.1249066,,,4.332817199989222,4.711145400000532,10355.0,7863.0,182.86305620000348,572.1242626000003,,,,2.5,,,184.875341099978,574.6409490000005,,,0.3680203999974765,0.3724578000001202,1717.3000000715256,4696.099999904633,,575.3240949999999,,,,3.0,,,,578.3406776000011,,,,3.0,,,,1,,,,0,,,0.0,0.0,-1.0,1.0,0.0
132,3.0,18,Female,right-handed,lichaam,mchanga,60.0,5.0,79.0,137.0,j,2.0,n,n,mchanga,mchanga,mchanga,mchanga,True,True,True,True,1.0,1.0,2.0,3.0,589.4500026000023,88.33132169999953,,,,3.5,,,591.4604377999785,91.84816260000116,,,5.578342099994188,8.24939909999921,3606.0,2361.0,597.0385605999909,100.3477554000001,,,,2.0,,,599.0512166999979,102.36454980000052,,,0.2774907000130042,1.3009753999995155,2696.599999904633,2619.4000000953674,,103.9305273000009,,,,3.5,,,,107.44772440000088,,,,2.0,,,,1,,,,3,,,1.0,0.0,2.0,2.0,1.0
133,3.0,18,Female,right-handed,lijst,watu,14.0,24.0,49.0,120.0,f,1.0,v,f,kartasi,watu,watu,watu,False,True,True,True,0.0,3,3.0,3.0,131.65514960000291,457.1468517000012,,,,8.0,,,133.66667389997747,465.1634341000008,,,4.444356799998786,1.9858048999994933,2068.0,3972.0,138.10949020000407,467.44639240000106,,,,1.5,,,140.1196119999804,468.9632827000005,,,0.2906467999855522,0.344012899999143,2869.0,1668.100000023842,,469.5628763000004,,,,3.0,,,,472.5794513000001,,,,3.0,,,,0,,,,3,,,0.0,1.0,0,0,1.0
134,3.0,18,Female,right-handed,magazine,matumbo,77.0,22.0,78.0,149.0,v,0.0,n,n,matumbo,matumbo,kudhibi,kemia,True,True,False,False,3.0,3.0,0.0,2.0,750.9342937000038,417.1313283,,,,4.5,,,752.9455371999939,421.6477625000007,,,4.928140000003623,2.0391744000007748,6609.0,4486.0,757.8735895999998,423.9475523000001,,,,2.5,,,759.8829257999896,426.4643751000003,,,0.3424020999809727,0.3999203000003035,3492.0,1410.5,,427.14746990000094,,,,4.0,,,,431.16421420000006,,,,2.0,,,,1,,,,3,,,0.0,1.0,0.0,0.0,0.0
135,3.0,18,Female,right-handed,mand,basi,87.0,27.0,87.0,164.0,v,3.0,j,v,basi,basi,basi,basi,True,True,True,True,1.0,3.0,1.0,2.0,843.3267350999813,526.9093047000006,,,,5.0,,,845.3368616999942,531.9259464999996,,,3.298792300018249,1.7918265999996947,3609.0,5622.0,848.6346542999963,533.9755241000003,,,,2.0,,,850.6463696999999,535.9919150000005,,,0.3312459000153467,0.3338853999994171,2382.899999976158,1894.2999999523165,,536.6084312000003,,,,3.0,,,,539.6255526000004,,,,2.0,,,,1,,,,3,,,1.0,1.0,0.0,0.0,1.0
136,3.0,18,Female,right-handed,mens,mwanga,13.0,16.0,61.0,101.0,f,0.0,f,n,mwanga,mwanga,mwanga,mwanga,True,True,True,True,1.0,1.0,3.0,3.0,123.40598029998364,325.8643140999993,,,,3.0,,,125.416639699979,328.88046719999875,,,3.484939099987969,2.7787060999999085,2356.0,2572.0,128.9016941000009,331.9470146000004,,,,2.0,,,130.91065309999976,333.96352039999874,,,0.727733800013084,0.5529866000015318,4674.5,1613.5,,334.7633399999995,,,,3.0,,,,337.77986619999865,,,,1.0,,,,1,,,,3,,,0.0,0.0,2.0,2.0,1.0
137,3.0,18,Female,right-handed,moeder,iring,80.0,14.0,23.0,178.0,f,2.0,v,v,iring,iring,iring,iring,True,True,True,True,3.0,3,3.0,3.0,777.6979196000029,263.7895217000005,,,,7.5,,,779.7094901999808,271.3248867000002,,,1.3934919000021182,1.303251999999702,3858.0,2471.0,781.1030383000034,272.8720031000012,,,,3.0,,,783.1149215000041,275.8884264999997,,,0.3433439999935217,0.367118300000584,1522.2000000476835,1447.7000000476835,,276.5383684000008,,,,3.0,,,,279.55518800000027,,,,2.0,,,,0,,,,3,,,1.0,1.0,0,0,1.0
138,3.0,18,Female,right-handed,mug,dagat,66.0,25.0,26.0,128.0,n,2.0,f,j,dagat,duka,singizi,dagat,True,False,False,True,1.0,1.0,1.0,1.0,638.4780664999853,482.36139490000096,,,,3.0,,,640.4918620999961,485.3783283000012,,,4.935990900004981,6.1227436999997735,4750.0,8322.0,645.4278350999812,491.74400419999984,,,,1.0,,,647.4366517000017,492.7608412999998,,,0.5852492999983951,0.5785278999992443,2910.100000023842,1148.0,,493.62745780000114,,,,7.5,,,,501.1436584000003,,,,2.0,,,,1,,,,0,,,1.0,0.0,-1.0,1.0,0.0
139,3.0,18,Female,right-handed,muziek,jeraha,12.0,26.0,12.0,144.0,v,3.0,j,j,nchi,jeraha,nchi,jeraha,False,True,False,True,1.0,3,2.0,1.0,112.124656400003,527.7534655999989,,,,3.5,,,114.13565579999704,531.2705577999986,,,6.715797699987888,2.9540595999988,10664.0,1933.0,120.85136760000024,534.4699588000003,,,,1.5,,,122.86209529999178,535.9864134999989,,,0.5292875000159256,0.7161132999990514,1498.399999976158,1624.0999999046326,,536.9699972999988,,,,3.5,,,,540.4864336999999,,,,1.0,,,,0,,,,3,,,1.0,1.0,0,0,0.0
140,3.0,18,Female,right-handed,neus,jikoni,43.0,25.0,84.0,176.0,v,0.0,f,j,kifua,kifua,jikoni,silingan,False,False,True,False,0.0,0.0,2.0,1.0,419.3702400999901,504.7402076999988,,,,4.0,,,421.38226209999993,508.7546634999999,,,8.459348500007764,5.456864800000403,5424.0,2559.0,429.8417487999832,514.5043055999995,,,,1.0,,,431.8490352999943,515.5209546999995,,,0.6169976999808569,0.4185108000001492,5357.799999952316,1249.5999999046326,,516.2208642999994,,,,7.5,,,,523.7371759999987,,,,1.0,,,,1,,,,0,,,0.0,0.0,0.0,0.0,0.0
141,3.0,18,Female,right-handed,olifant,kimysa,8.0,1.0,55.0,179.0,j,2.0,j,v,kimysa,kimysa,kukimba,kukimba,True,True,False,False,1.0,1.0,2.0,2.0,70.21680110000307,0.0369838000005984,,,,3.0,,,72.23083620000398,3.0534643000009964,,,9.306175300007451,8.963823300000513,6782.0,11071.0,81.53641999998945,12.25364140000056,,,,2.5,,,83.5454118999769,14.769564800000808,,,0.518085699994117,0.3549841000003653,2254.0,1731.8000000715256,,15.469279900000402,,,,3.5,,,,18.98591529999976,,,,3.0,,,,1,,,,3,,,1.0,0.0,2.0,2.0,0.0
142,3.0,18,Female,right-handed,olijf,kito,64.0,6.0,35.0,132.0,f,0.0,j,n,kito,kito,kito,kito,True,True,True,True,3.0,3.0,2.0,1.0,621.6358489999839,113.158453,,,,6.5,,,623.6491299999761,119.67493990000004,,,3.708428699988872,2.1633229999988544,4247.0,3054.0,627.3570620999963,122.15787420000017,,,,4.0,,,629.3709976999962,126.17398539999886,,,0.4735096000076737,0.9204780999989453,1719.100000023842,2041.6000000238416,,127.3911121000001,,,,5.0,,,,132.40718919999927,,,,1.0,,,,1,,,,3,,,0.0,1.0,0.0,0.0,1.0
143,3.0,18,Female,right-handed,pagina,hatua,16.0,28.0,42.0,114.0,f,1.0,n,j,hatua,hatua,bino,bino,True,True,False,False,3.0,3.0,3.0,2.0,155.03116529999534,564.5516804999988,,,,4.0,,,157.04059150000103,568.5681937999998,,,5.161588099988876,2.8061619000000064,2565.0,4240.0,162.20190169999842,571.5678506999993,,,,1.0,,,164.21396659998572,572.5846197999999,,,1.010054600017611,0.4082168000004458,2310.600000023842,1722.7999999523165,,573.2678732000004,,,,4.5,,,,577.7843937999987,,,,1.0,,,,1,,,,3,,,0.0,1.0,0.0,0.0,0.0
144,3.0,18,Female,right-handed,paling,kunywa,33.0,13.0,73.0,167.0,f,1.0,v,n,kunywa,kunywa,kunywa,miaka,True,True,True,False,0.0,1.0,1.0,1.0,332.9977904999978,243.94020610000007,,,,3.0,,,335.00575240000035,246.95672999999988,,,3.4706293000199366,3.7701968000001216,5219.0,3149.0,338.4762374999991,250.9898888000007,,,,3.5,,,340.48891029998777,254.5065030000005,,,0.244016599986935,0.3870791999997891,6551.100000023842,1544.2999999523165,,255.25623040000028,,,,4.5,,,,259.7731748999995,,,,2.0,,,,1,,,,3,,,0.0,0.0,2.0,2.0,0.0
145,3.0,18,Female,right-handed,pap,karon,50.0,10.0,65.0,157.0,j,0.0,n,j,mundamo,karon,karon,karon,False,True,True,True,2.0,1.0,2.0,2.0,492.5364862999995,200.0870410999996,,,,3.0,,,494.5491521999938,203.10405399999945,,,3.481481700000586,4.085215000000972,8878.0,1311.0,498.0303898999992,207.48687509999945,,,,3.5,,,500.04016869998304,211.0031648000004,,,0.301372000016272,0.4237875000017084,1752.2999999523165,1258.2000000476835,,211.8202364999997,,,,3.5,,,,215.33624699999928,,,,1.0,,,,1,,,,3,,,0.0,0.0,2.0,2.0,1.0
146,3.0,18,Female,right-handed,parfum,kumba,21.0,7.0,85.0,142.0,n,1.0,n,f,kumba,kumba,kumba,kumba,True,True,True,True,3.0,3.0,2.0,3.0,204.9940505999839,119.38065880000067,,,,4.0,,,207.0068547999836,123.3972775000002,,,4.088019999995595,1.97797509999873,2536.0,1513.0,211.09433659998467,125.63033420000102,,,,2.0,,,213.10609169999952,127.64688750000096,,,0.5078953999909572,0.4758148000000801,1903.1999999284744,1307.399999976158,,128.41362040000058,,,,4.0,,,,132.43002700000034,,,,3.0,,,,1,,,,3,,,0.0,1.0,0.0,0.0,1.0
147,3.0,18,Female,right-handed,park,elfu,58.0,27.0,2.0,93.0,f,0.0,n,v,bendi,pwani,pwani,elfu,False,False,False,True,0.0,0.0,1.0,1.0,572.5888367999869,544.504170799999,,,,3.0,,,574.6014299999806,547.5197951999999,,,3.7186789000115823,5.999165499999435,4456.0,4037.0,578.3198018999828,553.7858665999993,,,,1.5,,,580.3295481999812,555.3023498999992,,,0.2098197999875992,0.4237653000000136,1673.0,3126.399999976158,,556.0187494000002,,,,4.5,,,,560.5355975000002,,,,1.0,,,,1,,,,0,,,0.0,0.0,0.0,0.0,0.0
148,3.0,18,Female,right-handed,plafond,tumbo,4.0,19.0,53.0,118.0,f,0.0,n,n,takatak,takatak,tumbo,tumbo,False,False,True,True,0.0,0.0,3.0,3.0,28.18742269999348,368.4854539000007,,,,3.0,,,30.19614369998453,371.5012582,,,9.053830499993635,4.022018900001058,7239.0,2228.0,39.24994329997571,375.8510526999999,,,,2.0,,,41.25982869998552,377.8674357,,,0.8179922999988776,0.2838542999998026,3218.1999999284744,1789.8000000715256,,378.400878800001,,,,3.0,,,,381.4175257999996,,,,3.0,,,,1,,,,0,,,0.0,0.0,0.0,0.0,1.0
149,3.0,18,Female,right-handed,plank,tindashan,40.0,21.0,86.0,134.0,j,0.0,n,f,pagduol,mpishi,mpishi,tindashan,False,False,False,True,1.0,0.0,1.0,1.0,394.5035339999886,406.0159930000009,,,,3.0,,,396.516295599984,409.033164800001,,,5.354911199974595,4.6396407000011095,9782.0,5002.0,401.8711615999928,413.9825595000002,,,,1.0,,,403.8829005000007,414.99892759999966,,,0.3264149999886285,0.3535663000002387,2075.4000000953674,1809.700000047684,,415.6322688,,,,4.5,,,,420.1487269000008,,,,3.0,,,,1,,,,0,,,0.0,0.0,0.0,0.0,0.0
150,3.0,18,Female,right-handed,raam,chuki,22.0,8.0,88.0,116.0,n,2.0,v,v,chuki,chuki,chuki,chuki,True,True,True,True,3.0,3.0,1.0,2.0,213.62801019998733,136.44644610000068,,,,3.0,,,215.63824199998635,139.4636284999997,,,4.288556200015592,3.707181300000229,4949.0,9442.0,219.92650370000047,143.4129556000007,,,,3.5,,,221.93795540000428,146.92957659999956,,,0.9439745000272524,0.3473606999996264,2331.100000023842,4626.600000023842,,147.52935770000113,,,,5.0,,,,152.5461804000006,,,,3.0,,,,1,,,,3,,,1.0,1.0,0.0,0.0,1.0
151,3.0,18,Female,right-handed,roos,mtirka,46.0,30.0,63.0,129.0,j,2.0,v,v,mtirka,uhuru,mtirka,mtirka,True,False,True,True,0.0,2.0,1.0,1.0,454.1279382999928,606.5662193999997,,,,5.0,,,456.1416396999848,611.5826433000002,,,8.025136400014162,13.998378899999809,9521.0,4432.0,464.1664324000012,625.8320105000003,,,,2.5,,,466.1782599999861,628.3485241999988,,,0.2734349999809637,0.4500740000003134,2491.2999999523163,1880.5999999046328,,629.0315948999996,,,,4.0,,,,633.0481892999996,,,,1.0,,,,1,,,,0,,,1.0,1.0,-2.0,2.0,1.0
152,3.0,18,Female,right-handed,schaar,jokofu,32.0,9.0,69.0,109.0,v,2.0,f,v,agalon,babaye,jokofu,jokofu,False,False,True,True,1.0,1.0,2.0,2.0,317.68802639999194,156.56304269999964,,,,5.0,,,319.6990940999822,161.5786949000012,,,10.968476199981524,9.119167099999686,3165.0,2013.0,330.667369999981,170.9329761000008,,,,1.5,,,332.6771511999832,172.44527720000042,,,0.3025952000170946,0.5109878000002936,2503.5,1264.4000000953674,,173.24469130000034,,,,5.0,,,,178.26159670000015,,,,3.0,,,,1,,,,0,,,1.0,0.0,-1.0,1.0,1.0
153,3.0,18,Female,right-handed,schoen,pangalan,67.0,1.0,47.0,152.0,n,3.0,f,v,hofu,pangalan,pangalan,pangalan,False,True,True,True,0.0,0.0,2.0,3.0,648.0414640999807,0.0307603000001108,,,,4.5,,,650.0520641999901,4.54701969999951,,,8.332941600005142,7.332035199999154,4448.0,1836.0,658.3847855999775,12.413425200000349,,,,1.0,,,660.3973487999756,13.429754499999037,,,0.2563932999910321,4.176506599998902,2422.100000023842,1502.399999976158,,18.06292989999929,,,,6.5,,,,24.579343100000187,,,,1.0,,,,1,,,,3,,,1.0,0.0,3.0,3.0,1.0
154,3.0,18,Female,right-handed,schouder,paghukom,15.0,28.0,32.0,95.0,f,3.0,j,v,mchawi,paghukom,paghukom,paghukom,False,True,True,True,0.0,3.0,3.0,3.0,140.42916749999858,543.2424246999999,,,,4.0,,,142.4416959999944,547.2590290999997,,,7.298359599983087,4.273708299999271,1984.0,2570.0,149.73951749998378,551.8095314000002,,,,1.0,,,151.75197839998873,552.8258426000011,,,3.265203399991151,0.4752167999995436,1513.2000000476835,3027.7999999523163,,553.5752300000004,,,,6.0,,,,559.5916768999996,,,,3.0,,,,1,,,,3,,,1.0,1.0,0.0,0.0,1.0
155,3.0,18,Female,right-handed,schrift,duga,5.0,4.0,41.0,126.0,n,3.0,n,f,furaha,duga,duga,duga,False,True,True,True,1.0,0.0,2.0,2.0,42.09554919999209,63.49983380000049,,,,3.5,,,44.10926379999728,67.01588629999969,,,5.809086299996125,7.413220499998715,3930.0,6301.0,49.91766889998689,74.68205400000079,,,,5.0,,,51.93250490000355,79.69870210000045,,,0.7955830999999307,0.325417699999889,3716.099999904633,2734.700000047684,,80.29844349999985,,,,4.0,,,,84.31486349999977,,,,2.0,,,,1,,,,3,,,1.0,0.0,3.0,3.0,1.0
156,3.0,18,Female,right-handed,sigaar,pintal,23.0,6.0,0.0,103.0,j,2.0,f,j,pintal,pintal,pintal,pintal,True,True,True,True,3.0,3.0,2.0,3.0,222.8982247999811,101.69834009999975,,,,6.5,,,224.9099370999902,108.21459880000111,,,2.4258838999958243,1.6616164000006393,2468.0,5144.0,227.33605270000407,110.0986653,,,,1.5,,,229.3468437999836,111.61446389999946,,,0.5043596000177786,0.4714287000006152,4141.799999952316,1107.399999976158,,112.34784480000052,,,,3.0,,,,115.3641848999996,,,,3.0,,,,1,,,,3,,,1.0,1.0,0.0,0.0,1.0
157,3.0,18,Female,right-handed,slang,jiwe,74.0,18.0,64.0,92.0,n,2.0,j,f,dakika,mzungu,mzungu,mzungu,False,False,False,False,0.0,1.0,2.0,1.0,719.9365918999829,344.6357999000011,,,,5.5,,,721.9476068999793,350.1522564999996,,,7.825093799998285,4.338105499999074,4901.0,18852.0,729.7726698000042,354.7355800000005,,,,2.0,,,731.7852234999882,356.752563,,,0.2646816000051331,0.8254273000002286,2145.9000000953674,2296.600000023842,,357.9519008999996,,,,6.5,,,,364.4682976000004,,,,3.0,,,,1,,,,0,,,1.0,0.0,-1.0,1.0,0.0
158,3.0,18,Female,right-handed,sleutel,bituin,51.0,20.0,24.0,159.0,j,0.0,j,j,kawaida,hulma,bituin,bituin,False,False,True,True,0.0,0.0,3.0,2.0,500.3588181999803,410.87616369999887,,,,7.5,,,502.3711293999804,418.3930318999992,,,5.877388699998846,6.170415200000207,2419.0,2141.0,508.24817559999065,424.8592616999995,,,,1.5,,,510.2582653999853,426.37551840000015,,,0.4017650999885518,0.5662412000001495,2218.4000000953674,2490.399999976158,,427.2254432999998,,,,5.0,,,,432.2422924000002,,,,1.0,,,,1,,,,0,,,0.0,0.0,0.0,0.0,1.0
159,3.0,18,Female,right-handed,sok,baiski,36.0,20.0,62.0,143.0,j,2.0,v,j,baiski,maua,kijiko,kijiko,True,False,False,False,2.0,0.0,1.0,1.0,358.50720669998555,385.434182500001,,,,3.5,,,360.5114202999976,388.95030550000047,,,6.532500700006494,5.737308300000223,6442.0,2832.0,367.044558499998,394.9337627000005,,,,2.5,,,369.0558458000014,397.449840700001,,,0.3159553000004962,0.276031100000182,1576.5,1486.8000000715256,,397.9831231000008,,,,4.0,,,,401.9995493999995,,,,3.0,,,,1,,,,0,,,1.0,0.0,0.0,0.0,0.0
160,3.0,18,Female,right-handed,spiegel,tuburan,7.0,7.0,30.0,100.0,n,2.0,j,f,tuburan,tuburan,tuburan,tuburan,True,True,True,True,0.0,0.0,1.0,1.0,62.37827049999032,136.42394090000016,,,,3.5,,,64.39197409999906,139.9406409000003,,,3.007871800014982,5.858932699999059,3590.0,4915.0,67.39937129997998,146.04024389999904,,,,1.5,,,69.41037759999745,147.55645749999894,,,0.7902121999941301,0.5020189000006212,2964.2999999523163,1378.2000000476835,,148.38949669999965,,,,8.0,,,,156.40596600000026,,,,1.0,,,,1,,,,3,,,1.0,0.0,3.0,3.0,1.0
161,3.0,18,Female,right-handed,spin,mwanake,44.0,12.0,81.0,123.0,j,3.0,j,f,mwanake,mwanake,mwanake,mwanake,True,True,True,True,2.0,3,2.0,2.0,432.4806999999855,226.0924431000003,,,,4.5,,,434.49112559997593,230.608468800001,,,7.105244400008814,1.4203995000007126,2330.0,1841.0,441.5963183999993,232.24200290000044,,,,1.0,,,443.6050484000007,233.2581571999999,,,0.2573146999930031,1.0690859999995157,1731.399999976158,2639.8000000715256,,234.57478660000012,,,,3.5,,,,238.09182770000007,,,,3.0,,,,0,,,,3,,,1.0,1.0,0,0,1.0
162,3.0,18,Female,right-handed,steen,baki,78.0,19.0,11.0,94.0,v,3.0,j,v,baki,baki,baki,baki,True,True,True,True,3.0,3,2.0,1.0,760.2409817999869,359.3347539999995,,,,6.5,,,762.2529831999855,365.8511302000006,,,2.6222682999796234,1.3019419000011112,5444.0,2532.0,764.8745698999846,367.41723850000017,,,,2.0,,,766.8856225999771,369.434142600001,,,0.307201299990993,0.4445948000011412,3368.899999976158,2105.2999999523163,,370.13373950000096,,,,4.5,,,,374.6506269000001,,,,2.0,,,,0,,,,3,,,1.0,1.0,0,0,1.0
163,3.0,18,Female,right-handed,stift,chupi,61.0,10.0,82.0,162.0,f,0.0,n,f,chupi,chupi,chupi,chupi,True,True,True,True,3.0,3.0,2.0,2.0,599.3445840999775,189.0095935999998,,,,4.5,,,601.356103099999,193.52608940000027,,,3.622544300014852,2.334951899998486,5441.0,2106.0,604.9779535999987,196.10942860000068,,,,1.0,,,606.9872520999925,197.12608890000047,,,0.3372117000108119,0.633143499999278,1726.399999976158,2237.2999999523163,,197.9924544000005,,,,3.5,,,,201.50901069999964,,,,2.0,,,,1,,,,3,,,0.0,1.0,0.0,0.0,1.0
164,3.0,18,Female,right-handed,stuur,barua,48.0,4.0,18.0,117.0,f,2.0,n,j,barua,barua,barua,barua,True,True,True,True,3.0,2.0,3.0,2.0,473.3849186000007,70.44349510000029,,,,4.0,,,475.39474429999245,74.46059009999954,,,3.4658927000127733,3.3642144999994343,3647.0,2202.0,478.86048219999066,78.11027709999871,,,,6.0,,,480.869976099988,84.12637659999928,,,0.4309439999924507,0.6034605999993801,2028.9000000953677,1612.899999976158,,85.00940499999888,,,,3.0,,,,88.02615229999901,,,,1.0,,,,1,,,,3,,,1.0,1.0,1.0,1.0,1.0
165,3.0,18,Female,right-handed,tand,samaki,10.0,23.0,68.0,155.0,n,0.0,f,j,samaki,samaki,samaki,samaki,True,True,True,True,1.0,3,2.0,2.0,91.59123449999606,469.6735979999994,,,,5.0,,,93.60559209997882,474.6897219999992,,,7.185276599979261,4.548285799999576,3500.0,2551.0,100.79089629999362,479.5730795,,,,1.0,,,102.80258599997616,480.5893251999987,,,0.4519255000050179,0.4588439999988623,2600.0,1417.399999976158,,481.2725240999989,,,,4.5,,,,485.7891921999999,,,,1.0,,,,0,,,,3,,,0.0,1.0,0,0,1.0
166,3.0,18,Female,right-handed,telefoon,nanga,35.0,14.0,38.0,105.0,f,3.0,f,v,nanga,nanga,kinywa,starehe,True,True,False,False,3.0,3,2.0,1.0,352.6742983000004,285.0167857999986,,,,3.5,,,354.6862482999859,288.5330346999999,,,1.4910093999933451,2.9287242999998853,4388.0,5798.0,356.1770125999756,291.76570340000035,,,,2.5,,,358.1834951999772,294.2823360000002,,,0.308462499990128,0.3570834000001923,2248.5,4027.899999976158,,294.8987832999992,,,,4.0,,,,298.91532149999875,,,,1.0,,,,0,,,,3,,,1.0,1.0,0,0,0.0
167,3.0,18,Female,right-handed,tomaat,rafiki,83.0,25.0,37.0,135.0,v,0.0,f,v,rafiki,rafiki,rafiki,rafiki,True,True,True,True,2.0,3,3.0,3.0,802.36455139998,476.5958291999996,,,,7.0,,,804.3739997999801,483.6124092999999,,,9.37526319999597,2.242288199999166,3623.0,5144.0,813.7492440999777,486.1621178000005,,,,5.5,,,815.7619872999785,491.67851320000045,,,0.3120689999777823,0.3317441999988659,1662.5999999046326,1836.6999999284744,,492.2950872000001,,,,3.0,,,,495.31145710000055,,,,3.0,,,,0,,,,3,,,0.0,1.0,0,0,1.0
168,3.0,18,Female,right-handed,trein,leso,52.0,30.0,27.0,121.0,f,3.0,j,j,leso,leso,leso,leso,True,True,True,True,0.0,3,2.0,2.0,510.6761751000013,582.3572132999998,,,,6.0,,,512.6892630999791,588.3740032000005,,,6.101782599987928,1.4868007000004582,5102.0,5258.0,518.790309199976,590.1569378000004,,,,6.0,,,520.8036073999829,596.1730375000006,,,0.2346191999968141,0.4329594999999244,1650.2000000476835,2386.8000000715256,,596.8729529000011,,,,4.0,,,,600.889733,,,,3.0,,,,0,,,,3,,,1.0,1.0,0,0,1.0
169,3.0,18,Female,right-handed,vinger,punda,54.0,21.0,50.0,145.0,n,2.0,v,j,punda,punda,punda,punda,True,True,True,True,1.0,0.0,3.0,3.0,531.2493230999971,436.29156499999954,,,,4.5,,,533.260672000004,440.8080989999999,,,6.908245400001761,4.238321900000301,2016.0,1935.0,540.1685867999913,445.2912903999986,,,,2.0,,,542.1813954999961,447.3077658000002,,,0.6268318999791518,0.5765952000001562,1480.600000023842,1887.5,,448.2075117000004,,,,3.0,,,,451.224310399999,,,,1.0,,,,1,,,,3,,,1.0,0.0,3.0,3.0,1.0
170,3.0,18,Female,right-handed,vis,mvringo,45.0,5.0,45.0,130.0,f,1.0,j,v,mvringo,mvringo,mvringo,mvringo,True,True,True,True,0.0,0.0,2.0,1.0,443.87790459999815,82.68266159999985,,,,3.5,,,445.88997259998,86.19931619999988,,,5.431716899998719,6.601354500000525,3081.0,5132.0,451.3213858999952,93.04882990000078,,,,1.0,,,453.3324618999905,94.06526909999955,,,0.7804736999969464,0.3143361000002187,1236.600000023842,2827.5,,94.66526780000096,,,,3.0,,,,97.68242490000011,,,,3.0,,,,1,,,,3,,,0.0,0.0,3.0,3.0,1.0
171,3.0,18,Female,right-handed,vlag,surali,34.0,13.0,8.0,169.0,j,1.0,v,j,mvua,surali,mvua,mvua,False,True,False,False,1.0,3,1.0,3.0,340.74851999999373,242.10814630000093,,,,3.0,,,342.7609885999991,245.1244243000001,,,6.98637410000083,3.0014578999998776,3505.0,2511.0,349.7469192999997,248.39115850000053,,,,1.0,,,351.75404119997984,249.40743490000025,,,0.9021285000198986,2.2553318999998737,1904.899999976158,1592.0,,251.9575058999999,,,,3.0,,,,254.97381680000035,,,,3.0,,,,0,,,,3,,,0.0,0.0,0,0,0.0
172,3.0,18,Female,right-handed,vork,bililhon,28.0,9.0,7.0,127.0,f,3.0,v,v,bililhon,bililhon,estante,estante,True,True,False,False,1.0,3,1.0,1.0,271.7292802000011,178.00467489999937,,,,5.5,,,273.7353860999865,183.5211803000002,,,7.466801400005352,4.953538800000388,6911.0,2015.0,281.2024984000018,188.78781419999905,,,,2.5,,,283.21356829997967,191.30413020000012,,,1.1990661000018008,0.9780848999998852,2238.200000047684,1292.399999976158,,192.5546147999994,,,,3.5,,,,196.07062249999944,,,,1.0,,,,0,,,,3,,,1.0,0.0,0,0,0.0
173,3.0,18,Female,right-handed,vrouw,panya,39.0,2.0,77.0,136.0,v,0.0,n,n,panya,panya,panya,panya,True,True,True,True,3.0,3.0,3.0,2.0,386.0520393999759,28.61300750000009,,,,4.5,,,388.0634524999769,33.12936759999866,,,3.974427299981471,4.238190000000031,3315.0,11925.0,392.0369584999862,37.74585060000027,,,,2.0,,,394.0509686000005,39.76174779999928,,,0.4363584000093397,0.72420670000065,2676.700000047684,2626.399999976158,,40.7952521999996,,,,3.0,,,,43.8116388999988,,,,1.0,,,,1,,,,3,,,0.0,1.0,0.0,0.0,1.0
174,3.0,18,Female,right-handed,winkel,kama,68.0,3.0,74.0,122.0,v,3.0,v,f,tawo,tawo,kama,kama,False,False,True,True,1.0,1.0,3.0,2.0,660.6703784999845,47.82809359999919,,,,3.5,,,662.6816192999831,51.34515619999911,,,2.927365000010468,3.1691632000001846,2153.0,2124.0,665.6086511999893,54.82793179999862,,,,2.0,,,667.6192575999885,56.844198900000265,,,0.5196381999994628,2.1863861000001634,3091.5,2974.399999976158,,59.41082970000025,,,,7.0,,,,66.42717420000008,,,,1.0,,,,1,,,,0,,,1.0,0.0,-1.0,1.0,1.0
175,3.0,18,Female,right-handed,wolf,kuzama,76.0,17.0,3.0,139.0,v,2.0,n,n,kuzama,kuzama,kuzama,kuzama,True,True,True,True,0.0,0.0,1.0,1.0,740.493885999982,320.65325850000045,,,,5.5,,,742.5064490999794,326.16915960000006,,,6.135364099987783,5.202223799999047,3299.0,4110.0,748.642025499983,331.6357738000006,,,,1.5,,,750.6529086999944,333.15243740000005,,,0.2660136999911628,0.6565864000003785,1784.7999999523165,2068.599999904633,,334.05217249999987,,,,3.5,,,,337.5688061000001,,,,2.0,,,,1,,,,3,,,1.0,0.0,3.0,3.0,1.0
176,3.0,18,Female,right-handed,zakdoek,kadaot,88.0,9.0,66.0,148.0,n,2.0,v,f,kadaot,kadaot,kisiwa,kadaot,True,True,False,True,1.0,3,1.0,3.0,850.9937559999817,171.79382480000095,,,,4.0,,,853.0049958000018,175.81017249999968,,,4.476118599995971,2.7845135999996278,3915.0,2588.0,857.4812898999953,178.82681670000056,,,,1.5,,,859.4947972999944,180.3436182000005,,,0.6642339999962132,0.3786099999997532,1317.0,2402.3000000715256,,180.97677730000032,,,,4.0,,,,184.9932571999998,,,,2.0,,,,0,,,,3,,,1.0,1.0,0,0,0.0
177,3.0,18,Female,right-handed,zalm,bakus,11.0,30.0,80.0,112.0,f,2.0,n,j,bakus,bakus,bakus,bakus,True,True,True,True,3.0,3.0,3.0,3.0,103.27005999998072,590.5900105000001,,,,3.0,,,105.28077739998116,593.6059542000003,,,3.898029200005112,1.6708526000002166,2772.0,4052.0,109.17836599997828,595.5227350000005,,,,1.0,,,111.18745470000432,596.5387422000003,,,0.920396100002108,0.3178159000017331,1221.7000000476835,3740.1999999284735,,597.1388970999997,,,,4.0,,,,601.1558005000006,,,,2.0,,,,1,,,,3,,,1.0,1.0,0.0,0.0,1.0
178,3.0,18,Female,right-handed,zon,asin,26.0,8.0,76.0,146.0,j,0.0,n,j,asin,asin,asin,asin,True,True,True,True,3.0,3.0,3.0,3.0,252.02963829998043,160.42222819999915,,,,3.0,,,254.04075799998827,163.4389468999998,,,1.7887739000143483,1.3157592000006844,2340.0,1428.0,255.8295803999936,164.9892151999993,,,,4.5,,,257.841646099987,169.50573090000034,,,0.3466078999917954,0.4437725000007049,1434.2000000476835,1702.3000000715256,,170.47169389999908,,,,3.5,,,,173.98837970000022,,,,1.0,,,,1,,,,3,,,0.0,1.0,0.0,0.0,1.0
179,3.0,18,Female,right-handed,zuil,gutom,63.0,8.0,83.0,133.0,n,2.0,j,n,ihalas,dila,gutom,gutom,False,False,True,True,0.0,0.0,3.0,3.0,614.2972981999919,150.57876469999974,,,,3.5,,,616.3082715999917,154.0948258999997,,,3.0630832000169903,6.714242799998829,3403.0,2530.0,619.3713488999929,161.0447519999998,,,,1.5,,,621.3808930999949,162.56101959999978,,,0.2389560999872628,0.415813600000547,1252.5,3290.100000023842,,163.2622083999995,,,,4.5,,,,167.77737309999975,,,,2.0,,,,1,,,,0,,,1.0,0.0,0.0,0.0,1.0
180,4.0,22,Female,right-handed,affiche,kengele,44.0,26.0,72.0,126.0,v,2.0,v,f,kengele,kengele,kengele,kengele,True,True,True,True,0.0,2.0,3.0,3.0,458.6390662999474,536.7163346000016,,,,4.5,,,460.64810199994827,541.2329526999965,,,4.82440390001284,3.279413500000373,5986.0,2308.0,465.4720509999897,544.7154459000012,,,,2.5,,,467.4829425999778,547.2319889000064,,,0.2823587000020779,0.4381061000021873,1169.3000001907349,2098.600000143051,,547.9152523000084,,,,4.5,,,,552.4317052999977,,,,2.0,,,,1,,,,3,,,1.0,1.0,1.0,1.0,1.0
181,4.0,22,Female,right-handed,agent,kumbuka,16.0,20.0,59.0,98.0,v,3.0,v,n,kumbuka,kumbuka,kumbuka,kumbuka,True,True,True,True,3.0,2.0,3.0,3.0,181.0277940999949,456.7079272999981,,,,4.0,,,183.05312249995768,460.7243707999878,,,2.803842000022996,5.313994500000263,2474.0,1678.0,185.8564532999881,466.32391179999104,,,,3.0,,,187.86493389995303,469.34014089999255,,,0.4326204999815672,0.4548603000002913,2511.899999856949,1213.2999999523165,,470.09000789999845,,,,3.0,,,,473.1065456999932,,,,1.0,,,,1,,,,3,,,1.0,1.0,1.0,1.0,1.0
182,4.0,22,Female,right-handed,appel,kasili,26.0,10.0,0.0,120.0,n,2.0,v,v,kasili,kasili,kasili,kasili,True,True,True,True,0.0,0.0,3.0,3.0,270.8238115999848,233.93583209998903,,,,4.0,,,272.8366712999996,237.95281350000005,,,8.957416800025385,13.394133599998897,4907.0,2729.0,281.7939435999724,251.6185051999928,,,,1.5,,,283.8051596999867,253.13472259999253,,,1.7721251999610104,0.5298198000091361,1148.7999999523165,960.2000000476836,,254.2512956999999,,,,4.0,,,,258.2677652999992,,,,1.0,,,,1,,,,3,,,1.0,0.0,3.0,3.0,1.0
183,4.0,22,Female,right-handed,banaan,aibu,82.0,19.0,68.0,148.0,v,3.0,f,j,aibu,aibu,mahitabo,neyemba,True,True,False,False,0.0,1.0,0.0,0.0,847.9330227999599,431.3920756999869,,,,8.0,,,849.9445839999826,439.4083227999945,,,10.801200000045355,4.778378500006511,4642.0,2808.0,860.7462356999749,444.4248652999959,,,,2.5,,,862.7580140999635,446.941345299987,,,0.3289175999816507,0.4434454000002006,2650.7999999523163,2761.099999904633,,447.6745876999921,,,,5.0,,,,452.6909770999919,,,,1.0,,,,1,,,,3,,,1.0,0.0,2.0,2.0,0.0
184,4.0,22,Female,right-handed,bank,punguza,90.0,7.0,22.0,177.0,n,3.0,f,n,punguza,punguza,punguza,punguza,True,True,True,True,0.0,0.0,3.0,3.0,942.7379437999916,124.23784410000373,,,,3.5,,,944.7503566999804,127.754554500003,,,7.616893799975514,8.70537750000949,9570.0,4210.0,952.3661789000034,137.07028100000753,,,,1.0,,,954.376511199982,138.08665850000398,,,0.2701940999832004,0.710262699998566,838.0,1458.0,,139.10331050000968,,,,4.0,,,,143.11975450000318,,,,2.0,,,,1,,,,3,,,1.0,0.0,3.0,3.0,1.0
185,4.0,22,Female,right-handed,bed,kubale,70.0,14.0,8.0,110.0,j,1.0,f,f,bado,kubale,kubale,kubale,False,True,True,True,0.0,0.0,2.0,2.0,723.765398199961,274.34619910000765,,,,4.5,,,725.7799099999829,278.86264669999946,,,6.402543900010642,6.427024300006451,11658.0,3456.0,732.1819839999662,285.56278150000435,,,,1.5,,,734.1919916999759,287.0788854999992,,,0.5923320999718271,0.4901550999929895,1412.3000001907349,1041.7999999523165,,287.8621684999962,,,,3.5,,,,291.37866070000746,,,,2.0,,,,1,,,,3,,,0.0,0.0,3.0,3.0,1.0
186,4.0,22,Female,right-handed,beker,lalake,14.0,5.0,19.0,105.0,f,0.0,n,f,bega,lalake,lalake,lalake,False,True,True,True,0.0,3,3.0,3.0,158.732306699967,88.67327349999687,,,,3.0,,,160.7416399999638,91.68912029999774,,,10.486823600018395,4.285559899988584,3089.0,3400.0,171.2283614999615,96.2889770000038,,,,1.5,,,173.2379771999549,97.80610620000516,,,0.5418317999574356,1.4341247999982445,1169.5,1453.0,,100.10530969999672,,,,3.5,,,,103.62184550000528,,,,2.0,,,,0,,,,3,,,0.0,0.0,0,0,1.0
187,4.0,22,Female,right-handed,bes,rangi,47.0,14.0,80.0,116.0,f,3.0,v,n,dari,dari,dari,dari,False,False,False,False,0.0,2.0,2.0,1.0,484.9732566999737,278.5405686000013,,,,5.5,,,486.9833392999717,284.056434099999,,,5.96708180004498,2.630737399987993,5038.0,2405.0,492.950331799977,286.88968180000666,,,,1.0,,,494.9636064999504,287.90624039999966,,,0.2937454999773763,0.7994336999981897,1398.5,1082.6000001430511,,288.9235475000023,,,,4.0,,,,292.9393049000064,,,,3.0,,,,1,,,,0,,,1.0,1.0,-2.0,2.0,0.0
188,4.0,22,Female,right-handed,bloem,ndugu,36.0,22.0,54.0,100.0,v,3.0,j,j,ndugu,ndugu,ndugu,ndugu,True,True,True,True,1.0,1.0,1.0,1.0,386.0573140999768,459.570040000006,,,,3.0,,,388.0698052999796,462.5869181000016,,,4.822289899981115,3.4441231000091648,66530.0,6287.0,392.890724900004,466.3362421000056,,,,2.0,,,394.901407599973,468.3527346000046,,,0.587502799986396,0.3864716000098269,1845.6000001430511,4001.5,,469.0527730000031,,,,5.5,,,,474.5696205999993,,,,2.0,,,,1,,,,3,,,1.0,0.0,2.0,2.0,1.0
189,4.0,22,Female,right-handed,boek,mfuko,2.0,1.0,4.0,144.0,n,1.0,j,v,mfuko,mfuko,mfuko,mfuko,True,True,True,True,3.0,1.0,3.0,3.0,13.948722300003285,0.0313987999979872,,,,7.5,,,15.96411729999818,7.547486899988144,,,2.7373810000135563,6.678169099992374,4850.0,2185.0,18.70059459999902,14.59714559999702,,,,1.0,,,20.709178499993868,15.613779499995871,,,1.2450534999952652,2.538303199995425,1051.8000001907349,827.2999999523163,,18.463695099999317,,,,4.5,,,,22.980225899998917,,,,1.0,,,,1,,,,3,,,0.0,0.0,2.0,2.0,1.0
190,4.0,22,Female,right-handed,boot,simu,8.0,1.0,10.0,168.0,f,2.0,j,n,simu,simu,simu,simu,True,True,True,True,0.0,2.0,3.0,3.0,79.11916809994727,0.0273776999965775,,,,3.5,,,81.13615659996867,3.5437782000080915,,,7.108997299976181,4.41808210000454,1817.0,2049.0,88.24455619999208,8.326938500002143,,,,5.5,,,90.25754929997493,13.84318219999841,,,0.3298404000233859,0.0,1421.1000001430511,1351.6000001430511,,13.976485899998806,,,,5.0,,,,18.99337959999684,,,,2.0,,,,1,,,,3,,,1.0,1.0,1.0,1.0,1.0
191,4.0,22,Female,right-handed,brief,ugomvi,72.0,10.0,70.0,135.0,n,3.0,j,n,kihozi,kihozi,ugomvi,ugomvi,False,False,True,True,0.0,0.0,3.0,3.0,743.1258896999643,186.50146840000525,,,,4.0,,,745.1396234999993,190.51791180000876,,,6.934842000016943,7.368075999998837,2635.0,2342.0,752.0740583000006,198.13425299999653,,,,5.0,,,754.0861483999761,203.14992730000813,,,0.2969985000090673,0.4507479999883799,1359.5999999046326,1913.8000001907349,,203.98322310000367,,,,3.0,,,,206.9997444000037,,,,2.0,,,,1,,,,0,,,1.0,0.0,0.0,0.0,1.0
192,4.0,22,Female,right-handed,broek,sensilyo,32.0,17.0,42.0,158.0,f,2.0,n,v,sensilyo,sensilyo,sensilyo,sensilyo,True,True,True,True,2.0,3.0,3.0,3.0,346.1483911999967,330.3713224999956,,,,5.0,,,348.16256430000067,335.38721010000154,,,5.468681500002276,5.3032175000116695,3119.0,2007.0,353.6306072999723,340.93694489999325,,,,2.0,,,355.6426541999681,342.9533878999937,,,0.3379010999924503,0.35429689999728,1314.5,1324.0,,343.5533094999992,,,,7.0,,,,350.5701417999953,,,,3.0,,,,1,,,,3,,,1.0,1.0,0.0,0.0,1.0
193,4.0,22,Female,right-handed,brood,chupa,13.0,16.0,28.0,132.0,j,1.0,f,v,chupa,chupa,chupa,chupa,True,True,True,True,1.0,3,3.0,3.0,135.99666279996745,317.57780840000487,,,,7.0,,,138.00869980000425,324.59423940000124,,,18.26833130000159,2.8267642999999225,1372.0,1833.0,156.27699799998663,327.71141859999625,,,,3.0,,,158.28842949995305,330.72662670000864,,,0.4268801000434905,0.931931800005259,989.1000001430511,1801.0,,331.9265710000036,,,,3.0,,,,334.94307970000955,,,,2.0,,,,0,,,,3,,,0.0,1.0,0,0,1.0
194,4.0,22,Female,right-handed,brug,bandari,57.0,29.0,43.0,138.0,j,0.0,v,f,bandari,bandari,bandari,bandari,True,True,True,True,0.0,0.0,3.0,3.0,583.7908357999986,640.647776599988,,,,3.5,,,585.8020340999938,644.1650506999868,,,4.028194899961818,3.3433277000003727,10102.0,1394.0,589.8302554999827,647.931158499996,,,,2.0,,,591.8425430999487,649.9473893999966,,,0.5074718000250868,0.280342500002007,1461.6000001430511,975.5,,650.5473016999895,,,,3.0,,,,653.5638084999955,,,,1.0,,,,1,,,,3,,,0.0,0.0,3.0,3.0,1.0
