,participant,prolific_id,en_word,swa_word,swahili_knowledge,previous_subject,reward2,reward3,reward4,reward5,confidence2,confidence3,confidence4,confidence5,rt2,rt3,rt4,rt5,rt_confidence2,rt_confidence3,rt_confidence4,rt_confidence5,options2,options3,options4,options5,correct_answer2,correct_answer3,correct_answer4,correct_answer5,input_answer2,input_answer3,input_answer4,input_answer5,input_word2,input_word3,input_word4,input_word5,trial2,trial3,trial4,trial5,reward,confidence,learning_method,srpe,urpe,accuracy
0,1,54ad30a4fdf99b6f3e1e2b6b,apple,kisu,1.0,False,0,1,1,0,0.25,1.0,0.25,0.25,3248.0,1231.0,3687.0,1092.0,1580.5999999046326,1907.5,1509.3999998569489,1378.6000001430511,"kisu,ukame,estante,edad","ukame,kisu,estante,edad","ukame,estante,kisu,edad","kisu,ukame,estante,edad",f,v,j,f,v,v,j,j,ukame,kisu,kisu,estante,171,347,73,280,1,1,0.0,0,0,0.0
1,1,54ad30a4fdf99b6f3e1e2b6b,banana,kazi,1.0,False,1,1,1,1,0.75,0.25,0.5,1.0,3552.0,1702.0,4122.0,3865.0,2046.700000047684,1532.5999999046326,1939.0999999046328,2087.899999856949,"kasamok,hagdan,kazi,twai","kasamok,hagdan,kazi,twai","kasamok,hagdan,twai,kazi","kasamok,hagdan,twai,kazi",j,j,n,n,j,j,n,n,kazi,kazi,kazi,kazi,123,545,127,210,1,1,0.0,0,0,1.0
2,1,54ad30a4fdf99b6f3e1e2b6b,bank,silingan,1.0,False,0,0,1,0,0.25,0.25,0.25,0.25,1861.0,1382.0,1792.0,1286.0,1712.5,1799.7000000476835,1371.2999999523165,1831.3999998569489,"kudhibi,tualya,ofisi,silingan","silingan,kudhibi,tualya,ofisi","kudhibi,tualya,ofisi,silingan","kudhibi,silingan,tualya,ofisi",n,f,n,v,v,n,n,n,tualya,ofisi,silingan,ofisi,187,515,131,270,0,0.25,1.0,-0.25,0.25,0.0
3,1,54ad30a4fdf99b6f3e1e2b6b,basket,kumba,1.0,False,1,1,1,0,0.25,1.0,0.25,0.25,1536.0,1262.0,1740.0,1546.0,1969.700000047684,7116.899999856949,1990.3000001907349,1379.0,"kumbuka,kumba,utepe,hasira","kumbuka,utepe,hasira,kumba","kumbuka,kumba,utepe,hasira","kumba,kumbuka,utepe,hasira",v,n,v,f,v,n,v,n,kumba,kumba,kumba,hasira,229,356,7,340,1,1,0.0,0,0,0.0
4,1,54ad30a4fdf99b6f3e1e2b6b,bed,mapintas,1.0,False,0,0,0,0,0.25,0.25,0.25,0.25,2220.0,28950.0,1193.0,1133.0,1600.5,1544.2000000476835,1893.200000047684,1456.6999998092651,"kalipay,haraka,starehe,mapintas","kalipay,haraka,mapintas,starehe","kalipay,haraka,mapintas,starehe","kalipay,mapintas,haraka,starehe",n,j,j,v,v,v,f,j,haraka,haraka,kalipay,haraka,205,554,21,352,0,0.25,1.0,-0.25,0.25,0.0
5,1,54ad30a4fdf99b6f3e1e2b6b,berry,kofia,1.0,False,0,1,1,1,0.25,0.25,0.5,0.25,772.0,2330.0,2591.0,2118.0,1708.0999999046326,2379.5,2685.2999999523163,1488.9000000953674,"abogado,nogozi,kinywa,kofia","abogado,nogozi,kofia,kinywa","abogado,nogozi,kofia,kinywa","abogado,nogozi,kofia,kinywa",n,j,j,j,v,j,j,j,nogozi,kofia,kofia,kofia,259,473,181,312,1,1,0.0,0,0,1.0
6,1,54ad30a4fdf99b6f3e1e2b6b,boat,agalon,1.0,False,0,0,0,0,0.25,0.25,0.25,0.25,837.0,7074.0,1515.0,3104.0,1587.2000000476835,1700.0,1775.4000000953674,1547.1000001430511,"hamsi,agalon,pombe,kitanda","hamsi,agalon,pombe,kitanda","hamsi,agalon,pombe,kitanda","hamsi,pombe,agalon,kitanda",v,v,v,j,j,j,f,n,pombe,pombe,hamsi,kitanda,271,365,27,274,0,0.25,1.0,-0.25,0.25,0.0
7,1,54ad30a4fdf99b6f3e1e2b6b,body,tindashan,1.0,False,0,1,1,0,0.25,0.25,0.5,0.25,1867.0,4013.0,2240.0,993.0,1859.699999809265,1805.4000000953677,1954.8000001907349,1410.2999999523165,"tindashan,nyundu,jibini,kununa","nyundu,jibini,tindashan,kununa","nyundu,jibini,kununa,tindashan","nyundu,jibini,tindashan,kununa",f,j,n,j,n,j,n,v,kununa,tindashan,tindashan,jibini,139,551,175,320,1,0.25,1.0,0.75,0.75,0.0
8,1,54ad30a4fdf99b6f3e1e2b6b,bonfire,goti,1.0,False,1,1,0,1,0.75,1.0,0.25,0.75,2945.0,1743.0,2191.0,2913.0,2244.0,2251.2999999523163,1695.9000000953674,1854.0999999046328,"mwezi,mfuko,kusanya,goti","mwezi,mfuko,kusanya,goti","mwezi,goti,mfuko,kusanya","mwezi,mfuko,kusanya,goti",n,n,v,n,n,n,j,n,goti,goti,mfuko,goti,109,446,105,358,1,1.0,1.0,0.0,0.0,0.0
9,1,54ad30a4fdf99b6f3e1e2b6b,book,mali,1.0,False,1,1,1,1,0.75,1.0,1.0,0.25,2203.0,2050.0,1787.0,1603.0,3955.100000143051,1947.5999999046328,2714.4000000953674,1485.6000001430511,"kuhesa,picha,mara,mali","kuhesa,picha,mali,mara","kuhesa,picha,mali,mara","kuhesa,picha,mara,mali",n,j,j,n,n,j,j,n,mali,mali,mali,mali,133,449,121,268,1,1.0,1.0,0.0,0.0,1.0
10,1,54ad30a4fdf99b6f3e1e2b6b,box,adui,1.0,False,0,1,1,0,0.25,0.25,0.25,0.25,2530.0,2393.0,1586.0,1156.0,1591.5999999046326,2169.5,1494.0,2848.9000000953674,"adui,kuacha,rafiki,kitande","kuacha,rafiki,kitande,adui","kuacha,rafiki,kitande,adui","kuacha,adui,rafiki,kitande",f,n,n,v,n,n,n,j,kitande,adui,adui,rafiki,223,305,147,300,1,0.25,1.0,0.75,0.75,0.0
11,1,54ad30a4fdf99b6f3e1e2b6b,bread,dari,1.0,False,0,1,0,1,0.25,0.25,0.25,0.25,1389.0,3043.0,2021.0,1554.0,1896.5999999046328,2028.3999998569489,1584.2999999523165,1427.5999999046326,"kaili,dizeli,bugas,dari","kaili,dizeli,bugas,dari","dari,kaili,dizeli,bugas","kaili,dizeli,dari,bugas",n,n,f,j,j,n,j,j,bugas,dari,dizeli,dari,147,434,81,298,1,0.25,1.0,0.75,0.75,0.0
12,1,54ad30a4fdf99b6f3e1e2b6b,bridge,sahani,1.0,False,1,0,0,0,0.25,0.25,0.25,0.25,953.0,1928.0,1222.0,1880.0,1598.7999999523165,2144.699999809265,1486.5,1530.0,"daima,sahani,ngono,panya","daima,ngono,sahani,panya","daima,ngono,panya,sahani","daima,ngono,sahani,panya",v,j,n,j,v,n,v,f,sahani,panya,ngono,daima,257,443,143,344,0,0.25,1.0,-0.25,0.25,0.0
13,1,54ad30a4fdf99b6f3e1e2b6b,bucket,kiatu,1.0,False,0,0,0,0,0.25,0.25,0.25,0.25,2942.0,4132.0,2799.0,3882.0,1549.5999999046326,1636.8999998569489,1436.9000000953674,1629.2000000476835,"kiatu,baga,ijayo,init","baga,kiatu,ijayo,init","baga,kiatu,ijayo,init","baga,kiatu,ijayo,init",f,v,v,v,v,f,n,f,baga,baga,init,baga,131,470,93,240,0,0.25,1.0,-0.25,0.25,0.0
14,1,54ad30a4fdf99b6f3e1e2b6b,candle,geza,1.0,False,0,1,1,0,0.25,0.25,0.25,0.25,879.0,5049.0,3654.0,86035.0,1840.5,2474.199999809265,1555.4000000953674,1964.5999999046328,"gabi,geza,farasi,kupanda","geza,gabi,farasi,kupanda","gabi,farasi,geza,kupanda","gabi,geza,farasi,kupanda",v,f,j,v,j,f,j,f,farasi,geza,geza,gabi,253,560,119,336,1,0.25,1.0,0.75,0.75,0.0
15,1,54ad30a4fdf99b6f3e1e2b6b,cat,paghukom,1.0,False,0,0,0,0,0.25,0.25,0.25,0.25,1842.0,1958.0,1263.0,2024.0,1641.6999998092651,2390.200000047684,1453.0999999046326,1749.7000000476835,"paghukom,neyemba,baki,akili","paghukom,neyemba,baki,akili","paghukom,neyemba,baki,akili","neyemba,baki,akili,paghukom",f,f,f,n,n,v,j,v,akili,neyemba,baki,baki,227,413,87,202,0,0.25,1.0,-0.25,0.25,0.0
16,1,54ad30a4fdf99b6f3e1e2b6b,cave,kesho,1.0,False,0,0,0,0,0.25,0.25,0.25,0.25,2121.0,2648.0,1076.0,1196.0,1747.0,1570.7000000476835,1737.6000001430511,2203.399999856949,"ganti,kesho,maisha,nyundo","ganti,maisha,nyundo,kesho","kesho,ganti,maisha,nyundo","ganti,maisha,kesho,nyundo",v,n,f,j,n,j,j,f,nyundo,nyundo,maisha,ganti,149,431,17,250,0,0.25,1.0,-0.25,0.25,0.0
17,1,54ad30a4fdf99b6f3e1e2b6b,ceiling,maua,1.0,False,1,0,0,0,0.25,0.25,0.25,0.25,1057.0,1452.0,1613.0,1431.0,1682.7000000476835,1731.4000000953674,1514.1999998092651,1340.7999999523165,"kugita,maua,kawaida,rayna","kugita,maua,kawaida,rayna","kugita,kawaida,rayna,maua","kugita,kawaida,maua,rayna",v,v,n,j,v,n,j,f,maua,rayna,rayna,kugita,247,467,53,224,0,0.25,1.0,-0.25,0.25,0.0
18,1,54ad30a4fdf99b6f3e1e2b6b,cigar,adhabu,1.0,False,1,1,0,0,0.25,1.0,0.25,0.25,751.0,1447.0,3061.0,1140.0,1763.0,2007.700000047684,1491.0,1928.0,"ndugu,adhabu,kuta,mlango","ndugu,kuta,mlango,adhabu","ndugu,kuta,mlango,adhabu","ndugu,kuta,mlango,adhabu",v,n,n,n,v,n,f,j,adhabu,adhabu,ndugu,mlango,277,530,75,330,1,1,0.0,0,0,0.0
19,1,54ad30a4fdf99b6f3e1e2b6b,clock,mbwa,1.0,False,0,0,0,0,0.25,0.25,0.25,0.25,2895.0,2836.0,907.0,2579.0,2156.7999999523163,1980.5,1928.699999809265,1849.3999998569489,"kartasi,mbwa,abang,osha","kartasi,abang,mbwa,osha","kartasi,abang,osha,mbwa","mbwa,kartasi,abang,osha",v,j,n,f,n,v,v,j,osha,abang,abang,abang,155,320,37,310,0,0.25,1.0,-0.25,0.25,0.0
20,1,54ad30a4fdf99b6f3e1e2b6b,coffin,kioo,1.0,False,0,1,0,0,0.25,1.0,0.25,0.25,404.0,1256.0,3809.0,4218.0,1787.5,2068.0,1344.8999998569489,2283.099999904633,"barua,tubag,kioo,hulma","barua,kioo,tubag,hulma","kioo,barua,tubag,hulma","barua,tubag,hulma,kioo",j,v,f,n,n,v,v,f,hulma,kioo,barua,barua,161,326,77,228,1,1,0.0,0,0,0.0
21,1,54ad30a4fdf99b6f3e1e2b6b,column,ufagio,1.0,False,1,1,0,0,0.75,1.0,0.25,0.25,4525.0,1531.0,3289.0,1386.0,2125.700000047684,1924.5999999046328,1597.1000001430511,1655.0,"pundok,dila,pala,ufagio","pundok,dila,ufagio,pala","ufagio,pundok,dila,pala","ufagio,pundok,dila,pala",n,j,f,f,n,j,n,j,ufagio,ufagio,pala,dila,113,332,23,338,1,1,0.0,0,0,0.0
22,1,54ad30a4fdf99b6f3e1e2b6b,cop,mechezo,1.0,False,1,0,0,0,0.25,0.25,0.25,0.25,2103.0,11258.0,1446.0,1768.0,1993.200000047684,1432.2999999523165,1571.7999999523165,1627.9000000953674,"bustani,mechezo,jikoni,bakus","bustani,jikoni,bakus,mechezo","bustani,mechezo,jikoni,bakus","bustani,jikoni,mechezo,bakus",v,n,v,j,v,j,n,v,mechezo,bakus,bakus,jikoni,177,512,29,302,0,0.25,1.0,-0.25,0.25,0.0
23,1,54ad30a4fdf99b6f3e1e2b6b,cup,matumai,1.0,False,1,1,0,0,0.25,0.25,0.25,0.25,2856.0,3457.0,1323.0,1210.0,1768.2999999523165,2030.9000000953677,1289.5,1793.0999999046326,"dagat,shimoni,jeraha,matumai","dagat,shimoni,matumai,jeraha","matumai,dagat,shimoni,jeraha","dagat,shimoni,jeraha,matumai",n,j,f,n,n,j,v,f,matumai,matumai,dagat,dagat,125,311,171,272,1,0.25,1.0,0.75,0.75,0.0
24,1,54ad30a4fdf99b6f3e1e2b6b,curtain,mchanga,1.0,False,1,0,0,0,0.25,0.25,0.25,0.25,877.0,1345.0,1252.0,1474.0,1694.4000000953674,2167.600000143051,1681.7999999523165,1522.3999998569489,"lisud,mchanga,bulwawan,chubani","lisud,bulwawan,mchanga,chubani","lisud,mchanga,bulwawan,chubani","mchanga,lisud,bulwawan,chubani",v,j,v,f,v,f,j,n,mchanga,lisud,bulwawan,chubani,267,317,9,204,0,0.25,1.0,-0.25,0.25,0.0
25,1,54ad30a4fdf99b6f3e1e2b6b,dog,bahari,1.0,False,0,1,1,1,0.25,1.0,0.25,0.25,1608.0,1136.0,1241.0,1972.0,1685.7999999523165,1881.3999998569489,1706.7999999523165,1303.2999999523165,"lubi,washia,kalamu,bahari","bahari,lubi,washia,kalamu","lubi,washia,kalamu,bahari","lubi,washia,bahari,kalamu",n,f,n,j,j,f,n,j,kalamu,bahari,bahari,bahari,221,521,67,198,1,1,0.0,0,0,1.0
26,1,54ad30a4fdf99b6f3e1e2b6b,donkey,elfu,1.0,False,1,0,0,1,0.25,0.25,0.25,0.25,2823.0,1911.0,1451.0,3311.0,2869.700000047684,1601.2999999523165,1566.0,1771.0999999046326,"bloke,lalake,rombus,elfu","bloke,lalake,elfu,rombus","elfu,bloke,lalake,rombus","bloke,elfu,lalake,rombus",n,j,f,v,n,f,j,v,elfu,bloke,lalake,elfu,189,440,141,214,0,0.25,1.0,-0.25,0.25,0.0
27,1,54ad30a4fdf99b6f3e1e2b6b,door,surali,1.0,False,0,0,1,0,0.25,0.25,0.25,0.25,1185.0,3174.0,3011.0,1455.0,2082.5,1978.2999999523165,1524.7999999523165,1415.0,"tena,soko,nyota,surali","tena,soko,nyota,surali","tena,soko,nyota,surali","tena,soko,nyota,surali",n,n,n,n,j,v,n,j,nyota,soko,surali,nyota,263,392,103,306,0,0.25,1.0,-0.25,0.25,0.0
28,1,54ad30a4fdf99b6f3e1e2b6b,eel,msumari,1.0,False,0,0,0,0,0.25,0.25,0.25,0.25,2862.0,1538.0,1280.0,1315.0,1679.7000000476835,1865.2999999523165,1568.7999999523165,1310.0999999046326,"ishara,kunywa,msumari,kabuang","msumari,ishara,kunywa,kabuang","ishara,kunywa,msumari,kabuang","msumari,ishara,kunywa,kabuang",j,f,j,f,f,j,v,v,ishara,kunywa,kunywa,ishara,175,341,153,362,0,0.25,1.0,-0.25,0.25,0.0
29,1,54ad30a4fdf99b6f3e1e2b6b,elephant,kito,1.0,False,0,0,0,0,0.25,0.25,0.5,0.5,2308.0,4422.0,1800.0,1641.0,1615.4000000953674,1797.0,3655.200000047684,3555.099999904633,"kito,petye,pagduol,suka","kito,petye,pagduol,suka","petye,pagduol,suka,kito","kito,petye,pagduol,suka",f,f,n,f,j,j,j,n,pagduol,pagduol,suka,suka,129,428,123,190,0,0.25,1.0,-0.25,0.25,0.0
30,1,54ad30a4fdf99b6f3e1e2b6b,finger,moyo,1.0,False,0,0,0,0,0.25,0.25,0.25,0.25,428.0,17339.0,957.0,1110.0,1675.5999999046326,2016.6000001430511,1485.0999999046326,1375.0,"simu,sufuria,lima,moyo","simu,moyo,sufuria,lima","moyo,simu,sufuria,lima","simu,sufuria,moyo,lima",n,v,f,j,j,f,n,v,lima,simu,lima,sufuria,215,362,115,248,0,0.25,1.0,-0.25,0.25,0.0
31,1,54ad30a4fdf99b6f3e1e2b6b,fish,buli,1.0,False,0,1,1,1,0.25,0.25,0.25,0.25,909.0,3296.0,1863.0,1440.0,1943.6000001430511,1502.8999998569489,1552.5999999046326,1283.2000000476835,"bala,baho,buli,imani","bala,baho,imani,buli","bala,baho,buli,imani","bala,baho,buli,imani",j,n,j,j,n,n,j,j,imani,buli,buli,buli,265,452,25,304,1,0.25,1.0,0.75,0.75,1.0
32,1,54ad30a4fdf99b6f3e1e2b6b,flag,trekta,1.0,False,0,0,0,0,0.25,0.25,0.25,0.25,1324.0,5318.0,2192.0,1424.0,1557.1000001430511,2226.5,2234.4000000953674,1428.3000001907349,"ndege,mkate,kawa,trekta","ndege,trekta,mkate,kawa","ndege,trekta,mkate,kawa","trekta,ndege,mkate,kawa",n,v,v,f,f,n,f,n,ndege,kawa,ndege,kawa,269,386,49,350,0,0.25,1.0,-0.25,0.25,0.0
33,1,54ad30a4fdf99b6f3e1e2b6b,flower,bega,1.0,False,1,0,0,1,0.75,0.25,0.25,0.25,1881.0,1610.0,1122.0,2681.0,2229.0,1672.7000000476835,1559.2000000476835,1976.3000001907349,"tamasha,lobo,usiku,bega","bega,tamasha,lobo,usiku","bega,tamasha,lobo,usiku","tamasha,bega,lobo,usiku",n,f,f,v,n,n,n,v,bega,usiku,usiku,bega,111,527,159,206,0,0.25,1.0,-0.25,0.25,0.0
34,1,54ad30a4fdf99b6f3e1e2b6b,fork,mgonjwa,1.0,False,1,0,0,1,0.25,0.25,0.25,0.25,3376.0,5135.0,2141.0,1479.0,1939.699999809265,1671.9000000953674,1726.4000000953674,1299.6999998092651,"baboy,mgonjwa,paghago,gorisi","baboy,paghago,mgonjwa,gorisi","baboy,paghago,gorisi,mgonjwa","mgonjwa,baboy,paghago,gorisi",v,j,n,f,v,n,j,f,mgonjwa,gorisi,gorisi,mgonjwa,119,536,165,290,0,0.25,1.0,-0.25,0.25,0.0
35,1,54ad30a4fdf99b6f3e1e2b6b,gift,pagtawag,1.0,False,0,0,0,0,0.25,0.5,0.25,0.25,1233.0,1856.0,2708.0,1473.0,1822.1000001430511,4508.400000095367,1772.3999998569489,2140.599999904633,"pagtawag,baba,nyange,baso","baba,nyange,baso,pagtawag","baba,pagtawag,nyange,baso","pagtawag,baba,nyange,baso",f,n,v,f,n,j,n,n,baso,baso,baso,baso,233,344,35,356,0,0.5,1.0,-0.5,0.5,0.0
36,1,54ad30a4fdf99b6f3e1e2b6b,giraffe,mahitabo,1.0,False,0,0,0,0,0.25,0.25,0.25,0.25,580.0,3586.0,2192.0,2509.0,1724.0,1639.5,1391.9000000953674,1525.5999999046326,"daraja,mahitabo,jumatu,hangyo","daraja,jumatu,hangyo,mahitabo","daraja,mahitabo,jumatu,hangyo","mahitabo,daraja,jumatu,hangyo",v,n,v,f,n,j,n,j,hangyo,hangyo,hangyo,jumatu,219,425,109,296,0,0.25,1.0,-0.25,0.25,0.0
37,1,54ad30a4fdf99b6f3e1e2b6b,hammer,napakyas,1.0,False,0,1,0,1,0.25,0.25,0.25,0.25,918.0,1555.0,1161.0,2057.0,1625.6000001430511,1809.5999999046328,2177.4000000953674,1481.5999999046326,"mekno,napakyas,kitovu,layag","napakyas,mekno,kitovu,layag","mekno,kitovu,napakyas,layag","napakyas,mekno,kitovu,layag",v,f,j,f,f,f,f,f,mekno,napakyas,mekno,napakyas,243,533,173,326,1,0.25,1.0,0.75,0.75,0.0
38,1,54ad30a4fdf99b6f3e1e2b6b,hill,matumbo,1.0,False,0,1,0,0,0.25,0.5,0.25,0.25,1422.0,27218.0,1339.0,1634.0,1641.6000001430511,4324.699999809265,1292.7000000476835,1438.9000000953674,"kushoto,matumbo,kukimba,sweta","kushoto,matumbo,kukimba,sweta","kushoto,kukimba,sweta,matumbo","kushoto,kukimba,sweta,matumbo",v,v,n,n,f,v,j,j,kushoto,matumbo,sweta,sweta,195,368,135,236,1,0.5,1.0,0.5,0.5,0.0
39,1,54ad30a4fdf99b6f3e1e2b6b,human,tinapay,1.0,False,0,0,1,1,0.25,0.25,0.75,0.25,2633.0,2267.0,2955.0,1126.0,1734.7000000476835,1583.2000000476835,1477.1999998092651,2039.4000000953677,"bado,tinapay,kikapu,punguza","bado,tinapay,kikapu,punguza","tinapay,bado,kikapu,punguza","tinapay,bado,kikapu,punguza",v,v,f,f,n,f,f,f,punguza,bado,tinapay,tinapay,153,407,169,244,0,0.25,1.0,-0.25,0.25,1.0
40,1,54ad30a4fdf99b6f3e1e2b6b,key,chombo,1.0,False,0,0,0,0,0.25,0.25,0.25,0.25,2225.0,1637.0,1453.0,1534.0,1803.8999998569489,1607.5,2051.7999999523163,1482.5,"miaka,goma,chombo,ahos","miaka,goma,chombo,ahos","miaka,goma,ahos,chombo","miaka,chombo,goma,ahos",j,j,n,v,n,n,f,j,ahos,ahos,miaka,goma,207,497,41,262,0,0.25,1.0,-0.25,0.25,0.0
41,1,54ad30a4fdf99b6f3e1e2b6b,knee,duka,1.0,False,1,0,0,1,0.25,0.25,0.25,0.25,849.0,3130.0,1194.0,984.0,2284.800000190735,1757.2000000476835,1384.0,1801.0,"mvuke,kubale,duka,bili","duka,mvuke,kubale,bili","duka,mvuke,kubale,bili","mvuke,duka,kubale,bili",j,f,f,v,j,n,v,v,duka,bili,mvuke,duka,245,353,183,288,0,0.25,1.0,-0.25,0.25,0.0
42,1,54ad30a4fdf99b6f3e1e2b6b,ladder,pangalan,1.0,False,0,0,0,1,0.25,0.25,0.25,0.25,2076.0,1626.0,1742.0,1160.0,1791.0999999046326,5627.700000047684,1438.2000000476835,1402.4000000953674,"mashua,mwanga,pangalan,kamba","mashua,mwanga,pangalan,kamba","mashua,pangalan,mwanga,kamba","mashua,pangalan,mwanga,kamba",j,j,v,v,f,f,f,v,mashua,mashua,mashua,pangalan,151,542,97,242,0,0.25,1.0,-0.25,0.25,0.0
43,1,54ad30a4fdf99b6f3e1e2b6b,lamp,afya,1.0,False,1,0,0,1,0.25,0.25,0.25,0.25,877.0,2002.0,2153.0,1071.0,1639.8999998569489,1682.6000001430511,1502.8999998569489,1907.0,"daub,bilaska,mbolea,afya","daub,afya,bilaska,mbolea","daub,afya,bilaska,mbolea","daub,bilaska,mbolea,afya",n,v,v,n,n,n,f,n,afya,mbolea,daub,afya,275,401,65,254,0,0.25,1.0,-0.25,0.25,0.0
44,1,54ad30a4fdf99b6f3e1e2b6b,letter,kifua,1.0,False,0,1,0,0,0.25,1.0,0.25,0.25,1883.0,1141.0,961.0,1199.0,2111.5,1989.4000000953677,1564.7999999523165,1413.5,"filimbi,chuma,uhuru,kifua","filimbi,chuma,uhuru,kifua","kifua,filimbi,chuma,uhuru","filimbi,kifua,chuma,uhuru",n,n,f,v,j,n,v,j,uhuru,kifua,filimbi,chuma,173,518,47,276,1,1,0.0,0,0,0.0
45,1,54ad30a4fdf99b6f3e1e2b6b,list,wingu,1.0,False,0,0,0,0,0.25,0.25,0.25,0.25,1262.0,2254.0,1328.0,2323.0,1669.5,1556.5,1296.6000001430511,1577.5999999046326,"alizeti,kuzama,wingu,kaso","alizeti,wingu,kuzama,kaso","alizeti,kuzama,kaso,wingu","wingu,alizeti,kuzama,kaso",j,v,n,f,f,n,j,n,alizeti,kaso,kaso,kaso,279,566,145,234,0,0.25,1.0,-0.25,0.25,0.0
46,1,54ad30a4fdf99b6f3e1e2b6b,magazine,kiti,1.0,False,0,1,1,1,0.25,0.25,0.25,0.25,1701.0,2046.0,1925.0,26681.0,1892.700000047684,1639.2999999523165,2092.599999904633,2049.200000047684,"gundi,mchawi,bahandi,kiti","gundi,mchawi,bahandi,kiti","kiti,gundi,mchawi,bahandi","gundi,mchawi,bahandi,kiti",n,n,f,n,v,n,f,n,mchawi,kiti,kiti,kiti,145,329,33,212,1,0.25,1.0,0.75,0.75,1.0
47,1,54ad30a4fdf99b6f3e1e2b6b,marker,maji,1.0,False,0,0,0,0,0.25,0.25,0.25,0.25,1085.0,1581.0,2235.0,1176.0,1775.0,1639.1000001430511,1476.5,1779.7999999523165,"mapafu,salita,atay,maji","mapafu,maji,salita,atay","mapafu,salita,maji,atay","maji,mapafu,salita,atay",n,v,j,f,v,n,n,j,salita,atay,atay,salita,251,503,99,232,0,0.25,1.0,-0.25,0.25,0.0
48,1,54ad30a4fdf99b6f3e1e2b6b,mirror,sulagma,1.0,False,1,0,0,1,0.25,0.25,0.25,0.25,4724.0,1757.0,1695.0,1089.0,1541.0,1679.2000000476835,1498.5,1562.7999999523165,"rangi,kanding,sulagma,furaha","sulagma,rangi,kanding,furaha","rangi,kanding,sulagma,furaha","rangi,sulagma,kanding,furaha",j,f,j,v,j,n,n,v,sulagma,furaha,furaha,sulagma,135,323,107,226,0,0.25,1.0,-0.25,0.25,0.0
49,1,54ad30a4fdf99b6f3e1e2b6b,mosquito,martilyo,1.0,False,1,0,1,1,0.25,0.25,0.75,1.0,7355.0,5568.0,2350.0,1801.0,1686.5,1946.7999999523165,2076.4000000953674,2045.7999999523165,"isda,taras,gutom,martilyo","isda,taras,gutom,martilyo","isda,martilyo,taras,gutom","isda,martilyo,taras,gutom",n,n,v,v,n,f,v,v,martilyo,isda,martilyo,martilyo,121,479,69,216,0,0.25,1.0,-0.25,0.25,1.0
50,1,54ad30a4fdf99b6f3e1e2b6b,mother,babaye,1.0,False,0,1,0,0,0.25,1.0,0.25,0.25,1030.0,2164.0,1354.0,2402.0,1716.3999998569489,1700.5,1683.4000000953674,1526.8000001907349,"kahawa,mbuzi,jokofu,babaye","kahawa,mbuzi,jokofu,babaye","babaye,kahawa,mbuzi,jokofu","kahawa,mbuzi,jokofu,babaye",n,n,f,n,v,n,n,v,mbuzi,babaye,jokofu,mbuzi,203,476,51,260,1,1,0.0,0,0,0.0
51,1,54ad30a4fdf99b6f3e1e2b6b,music,baiski,1.0,False,0,0,1,0,0.25,0.25,0.25,0.25,3668.0,3677.0,1297.0,965.0,2080.5,2746.7999999523163,1826.4000000953677,1997.5999999046328,"mraba,mageho,baiski,tumbo","mraba,mageho,tumbo,baiski","mraba,mageho,tumbo,baiski","mraba,mageho,baiski,tumbo",j,n,n,j,v,f,n,v,mageho,mraba,baiski,mageho,115,494,137,354,0,0.25,1.0,-0.25,0.25,0.0
52,1,54ad30a4fdf99b6f3e1e2b6b,nose,sehemu,1.0,False,0,1,0,0,0.25,1.0,0.25,0.25,1951.0,7796.0,1222.0,1252.0,1778.3000001907349,1861.9000000953677,1534.1999998092651,1422.2000000476835,"sehemu,gubat,kopa,kidole","gubat,sehemu,kopa,kidole","gubat,kopa,kidole,sehemu","gubat,kopa,kidole,sehemu",f,v,n,n,j,v,f,f,kopa,sehemu,gubat,gubat,183,464,13,266,1,1,0.0,0,0,0.0
53,1,54ad30a4fdf99b6f3e1e2b6b,notebook,kemia,1.0,False,0,0,0,1,0.25,0.25,0.25,0.25,318.0,3399.0,1537.0,1835.0,1910.5,1888.7999999523165,1648.6000001430511,1453.0,"msitu,kemia,kila,mdudu","msitu,kemia,kila,mdudu","msitu,kila,kemia,mdudu","msitu,kila,mdudu,kemia",v,v,j,n,f,f,n,n,msitu,msitu,mdudu,kemia,163,383,71,334,0,0.25,1.0,-0.25,0.25,0.0
54,1,54ad30a4fdf99b6f3e1e2b6b,number,mundamo,1.0,False,0,0,1,0,0.25,0.25,0.25,0.25,1458.0,1763.0,1614.0,1503.0,1563.0,1882.0,1676.3999998569489,1382.7000000476835,"shule,mundamo,kengele,choori","shule,kengele,choori,mundamo","shule,kengele,choori,mundamo","mundamo,shule,kengele,choori",v,n,n,f,j,j,n,v,kengele,choori,mundamo,shule,169,335,63,208,0,0.25,1.0,-0.25,0.25,0.0
55,1,54ad30a4fdf99b6f3e1e2b6b,office,leso,1.0,False,1,0,1,0,0.25,0.25,0.25,0.25,2038.0,2454.0,1265.0,1961.0,1899.5,1594.9000000953674,1710.1000001430511,1357.5999999046326,"hazini,yatima,leso,kuna","leso,hazini,yatima,kuna","hazini,yatima,leso,kuna","hazini,leso,yatima,kuna",j,f,j,v,j,j,j,f,leso,yatima,leso,hazini,137,506,61,192,0,0.25,1.0,-0.25,0.25,0.0
56,1,54ad30a4fdf99b6f3e1e2b6b,olive,jiwe,1.0,False,1,0,1,0,0.25,0.25,0.25,0.25,3987.0,1572.0,3270.0,1022.0,1968.5,1665.0,1534.1999998092651,1436.1999998092651,"bata,jiwe,siagi,welder","bata,siagi,jiwe,welder","bata,siagi,welder,jiwe","bata,jiwe,siagi,welder",v,j,n,v,v,f,n,j,jiwe,bata,jiwe,siagi,143,569,83,322,0,0.25,1.0,-0.25,0.25,0.0
57,1,54ad30a4fdf99b6f3e1e2b6b,page,wimbo,1.0,False,1,0,0,0,0.25,0.25,0.25,0.25,348.0,2254.0,2555.0,1259.0,1698.2000000476835,2286.2999999523163,1345.7000000476835,1380.0999999046326,"wakala,ishiri,skina,wimbo","wakala,wimbo,ishiri,skina","wakala,ishiri,wimbo,skina","wakala,ishiri,wimbo,skina",n,v,j,j,n,j,v,v,wimbo,ishiri,ishiri,ishiri,209,461,177,342,0,0.25,1.0,-0.25,0.25,0.0
58,1,54ad30a4fdf99b6f3e1e2b6b,pants,haki,1.0,False,0,0,0,1,0.25,0.25,0.25,0.25,970.0,1522.0,2344.0,1954.0,2080.4000000953674,2290.200000047684,1443.3999998569489,1415.6000001430511,"pintal,chuki,hari,haki","pintal,haki,chuki,hari","pintal,chuki,haki,hari","pintal,haki,chuki,hari",n,v,j,v,f,n,n,v,pintal,hari,hari,haki,211,308,139,364,0,0.25,1.0,-0.25,0.25,0.0
59,1,54ad30a4fdf99b6f3e1e2b6b,park,bunifu,1.0,False,0,0,0,1,0.25,0.25,0.25,0.25,1188.0,4015.0,1186.0,1182.0,1788.6000001430511,1982.2999999523165,1873.0,1359.1000001430511,"bunifu,tambok,pwani,ihalas","bunifu,tambok,pwani,ihalas","tambok,bunifu,pwani,ihalas","tambok,pwani,bunifu,ihalas",f,f,v,j,v,j,n,j,tambok,pwani,ihalas,bunifu,167,359,11,318,0,0.25,1.0,-0.25,0.25,0.0
60,1,54ad30a4fdf99b6f3e1e2b6b,perfume,katuyoan,1.0,False,0,0,0,0,0.5,0.25,0.25,0.25,3978.0,2723.0,2230.0,2720.0,5462.700000047684,1544.7000000476835,2026.1000001430511,1390.5,"bino,sungura,ndogo,katuyoan","katuyoan,bino,sungura,ndogo","bino,sungura,katuyoan,ndogo","katuyoan,bino,sungura,ndogo",n,f,j,f,j,v,n,n,ndogo,bino,ndogo,ndogo,141,482,129,194,0,0.25,1.0,-0.25,0.25,0.0
61,1,54ad30a4fdf99b6f3e1e2b6b,picture,kubwa,1.0,False,1,1,0,0,0.25,1.0,0.25,0.25,881.0,1231.0,1392.0,3054.0,1895.700000047684,2086.7999999523163,1625.9000000953674,1485.2000000476835,"silya,chaki,kubwa,asin","silya,kubwa,chaki,asin","silya,chaki,asin,kubwa","silya,chaki,asin,kubwa",j,v,n,n,j,v,f,j,kubwa,kubwa,silya,asin,283,572,161,188,1,1,0.0,0,0,0.0
62,1,54ad30a4fdf99b6f3e1e2b6b,poster,madungog,1.0,False,0,0,0,0,0.25,0.25,0.25,0.25,1835.0,1808.0,1211.0,1053.0,1683.7000000476835,1341.2999999523165,1442.1999998092651,1601.4000000953674,"nchi,fedha,kasuko,madungog","nchi,madungog,fedha,kasuko","nchi,fedha,kasuko,madungog","nchi,madungog,fedha,kasuko",n,v,n,v,j,n,j,j,kasuko,kasuko,kasuko,fedha,191,491,151,324,0,0.25,1.0,-0.25,0.25,0.0
63,1,54ad30a4fdf99b6f3e1e2b6b,pudding,aibu,1.0,False,1,0,1,0,0.25,0.25,0.25,0.25,984.0,3657.0,1242.0,2393.0,1680.7999999523165,1551.1999998092651,1550.3000001907349,1312.6000001430511,"abug,aibu,mpishi,iring","abug,mpishi,aibu,iring","abug,mpishi,iring,aibu","abug,mpishi,iring,aibu",v,j,n,n,v,v,n,v,aibu,mpishi,aibu,mpishi,237,548,89,316,0,0.25,1.0,-0.25,0.25,0.0
64,1,54ad30a4fdf99b6f3e1e2b6b,puppet,mazishi,1.0,False,0,1,0,0,0.25,0.25,0.25,0.25,1211.0,2197.0,1075.0,974.0,1753.0999999046326,1639.7999999523165,1887.1000001430511,1385.7999999523165,"mazishi,napulo,lamok,godoro","napulo,lamok,mazishi,godoro","napulo,mazishi,lamok,godoro","napulo,lamok,mazishi,godoro",f,j,v,j,v,j,j,v,napulo,mazishi,lamok,lamok,193,488,45,278,1,1,0.0,0,0,0.0
65,1,54ad30a4fdf99b6f3e1e2b6b,rose,paghalad,1.0,False,0,0,0,0,0.25,0.25,0.25,0.25,684.0,2710.0,1744.0,926.0,1745.0999999046326,1714.3999998569489,1462.5999999046326,1608.6000001430511,"singizi,mwanake,paghalad,amani","paghalad,singizi,mwanake,amani","paghalad,singizi,mwanake,amani","singizi,mwanake,amani,paghalad",j,f,f,n,n,n,n,j,amani,amani,amani,amani,273,338,59,252,0,0.25,1.0,-0.25,0.25,0.0
66,1,54ad30a4fdf99b6f3e1e2b6b,salmon,sensilyo,1.0,False,0,0,0,0,0.25,0.25,0.25,0.25,2202.0,2453.0,372.0,2065.0,1959.7999999523165,2061.9000000953674,1567.6000001430511,1308.7000000476835,"mzungu,sensilyo,seri,baharia","sensilyo,mzungu,seri,baharia","mzungu,seri,baharia,sensilyo","mzungu,seri,sensilyo,baharia",v,f,n,j,n,n,f,f,baharia,baharia,mzungu,mzungu,159,395,43,196,0,0.25,1.0,-0.25,0.25,0.0
67,1,54ad30a4fdf99b6f3e1e2b6b,scissors,tanuri,1.0,False,0,0,0,0,0.25,0.25,0.25,0.25,2577.0,3223.0,1242.0,1599.0,1854.5999999046328,1576.3999998569489,1802.0,1465.5999999046326,"duga,tanuri,mtawa,suga","duga,tanuri,mtawa,suga","duga,tanuri,mtawa,suga","duga,tanuri,mtawa,suga",v,v,v,v,f,n,j,n,duga,suga,mtawa,suga,225,458,155,360,0,0.25,1.0,-0.25,0.25,0.0
68,1,54ad30a4fdf99b6f3e1e2b6b,sheet,bililhon,1.0,False,0,0,1,0,0.25,0.25,0.25,0.25,932.0,3396.0,1171.0,3504.0,1613.2000000476835,1635.5,1418.7000000476835,1580.5,"juuya,watu,bililhon,kamantis","juuya,watu,bililhon,kamantis","juuya,watu,kamantis,bililhon","bililhon,juuya,watu,kamantis",j,j,n,f,f,v,n,n,juuya,watu,bililhon,kamantis,281,485,125,294,0,0.25,1.0,-0.25,0.25,0.0
69,1,54ad30a4fdf99b6f3e1e2b6b,shelf,pamahaw,1.0,False,1,1,0,0,0.25,1.0,0.25,0.25,8618.0,1403.0,1866.0,2259.0,1715.7000000476835,1641.5,2133.0,1374.3000001907349,"bungtod,kadaot,awit,pamahaw","bungtod,pamahaw,kadaot,awit","bungtod,pamahaw,kadaot,awit","pamahaw,bungtod,kadaot,awit",n,v,v,f,n,v,n,n,pamahaw,pamahaw,awit,awit,157,404,79,238,1,1,0.0,0,0,0.0
70,1,54ad30a4fdf99b6f3e1e2b6b,shoe,uyoga,1.0,False,1,0,0,0,0.25,0.25,0.25,0.25,415.0,2231.0,957.0,1256.0,1610.5,1600.7999999523165,1326.7999999523165,1334.3999998569489,"uyoga,nyeusi,hatua,kama","nyeusi,hatua,kama,uyoga","uyoga,nyeusi,hatua,kama","uyoga,nyeusi,hatua,kama",f,n,f,f,f,v,v,n,uyoga,hatua,nyeusi,kama,217,509,167,218,0,0.25,1.0,-0.25,0.25,0.0
71,1,54ad30a4fdf99b6f3e1e2b6b,shop,samaki,1.0,False,0,1,0,0,0.25,0.25,0.25,0.25,3958.0,3219.0,1260.0,977.0,1786.8999998569489,1628.7000000476835,1855.200000047684,1654.2999999523165,"nopya,kerida,samaki,ndezu","samaki,nopya,kerida,ndezu","nopya,samaki,kerida,ndezu","nopya,samaki,kerida,ndezu",j,f,v,v,n,f,f,f,ndezu,samaki,nopya,nopya,127,524,157,284,1,0.25,1.0,0.75,0.75,0.0
72,1,54ad30a4fdf99b6f3e1e2b6b,shoulder,mkuu,1.0,False,1,0,0,0,0.25,0.25,0.25,0.25,305.0,2108.0,1191.0,997.0,1517.0,1602.7000000476835,6147.799999952316,1559.0999999046326,"kelele,ndaniya,mkuu,guruwe","kelele,ndaniya,guruwe,mkuu","kelele,ndaniya,mkuu,guruwe","kelele,ndaniya,mkuu,guruwe",j,n,j,j,j,f,v,f,mkuu,kelele,ndaniya,kelele,165,398,31,256,0,0.25,1.0,-0.25,0.25,0.0
73,1,54ad30a4fdf99b6f3e1e2b6b,snake,pagtukod,1.0,False,0,0,0,0,0.25,0.25,0.25,0.25,1180.0,9453.0,1105.0,1335.0,2122.600000143051,1960.7999999523165,2550.200000047684,1528.4000000953674,"jansa,karon,mvringo,pagtukod","jansa,karon,mvringo,pagtukod","jansa,pagtukod,karon,mvringo","pagtukod,jansa,karon,mvringo",n,n,v,f,j,f,j,v,mvringo,jansa,karon,jansa,231,377,113,348,0,0.25,1.0,-0.25,0.25,0.0
74,1,54ad30a4fdf99b6f3e1e2b6b,sock,mamba,1.0,False,0,0,0,0,0.25,0.25,0.25,0.25,1655.0,1827.0,1937.0,371.0,1904.4000000953677,1565.5999999046326,1563.5999999046326,2134.7999999523163,"ndoora,kimysa,mtirka,mamba","mamba,ndoora,kimysa,mtirka","ndoora,mamba,kimysa,mtirka","ndoora,kimysa,mamba,mtirka",n,f,v,j,j,j,j,f,mtirka,kimysa,kimysa,ndoora,185,500,57,258,0,0.25,1.0,-0.25,0.25,0.0
75,1,54ad30a4fdf99b6f3e1e2b6b,spider,kamwe,1.0,False,1,0,0,0,0.25,0.5,0.25,0.25,2234.0,4293.0,1530.0,1536.0,1929.8999998569489,2883.9000000953674,1436.7999999523165,1844.9000000953677,"bunyag,mkboa,atop,kamwe","bunyag,mkboa,kamwe,atop","bunyag,mkboa,atop,kamwe","bunyag,mkboa,atop,kamwe",n,j,n,n,n,n,j,j,kamwe,atop,atop,atop,117,416,85,332,0,0.5,1.0,-0.5,0.5,0.0
76,1,54ad30a4fdf99b6f3e1e2b6b,spoon,pagsulod,1.0,False,0,0,0,0,0.25,0.25,0.25,0.25,1888.0,2693.0,998.0,2529.0,1582.5,1553.0999999046326,1823.4000000953677,1779.0999999046326,"betri,nzuri,ngazi,pagsulod","pagsulod,betri,nzuri,ngazi","betri,nzuri,pagsulod,ngazi","betri,pagsulod,nzuri,ngazi",n,f,j,v,f,n,f,n,betri,ngazi,betri,ngazi,249,455,163,230,0,0.25,1.0,-0.25,0.25,0.0
77,1,54ad30a4fdf99b6f3e1e2b6b,squirrel,hofu,1.0,False,0,0,0,0,0.25,0.25,0.25,0.25,2375.0,2584.0,900.0,1127.0,1774.0999999046326,1690.3999998569489,1732.3999998569489,1644.5,"mahugaw,ukweli,kichwa,hofu","hofu,mahugaw,ukweli,kichwa","mahugaw,hofu,ukweli,kichwa","hofu,mahugaw,ukweli,kichwa",n,f,v,f,j,n,j,j,kichwa,kichwa,ukweli,ukweli,181,389,39,264,0,0.25,1.0,-0.25,0.25,0.0
78,1,54ad30a4fdf99b6f3e1e2b6b,stone,wingi,1.0,False,0,0,0,0,0.25,0.25,0.25,0.25,932.0,3469.0,2083.0,1106.0,1745.1000001430511,1626.2000000476835,1556.9000000953674,1379.5,"ulimwengu,wingi,mkasi,asili","wingi,ulimwengu,mkasi,asili","ulimwengu,mkasi,wingi,asili","ulimwengu,mkasi,wingi,asili",v,f,j,j,n,j,v,n,asili,mkasi,mkasi,asili,241,437,55,220,0,0.25,1.0,-0.25,0.25,0.0
79,1,54ad30a4fdf99b6f3e1e2b6b,sun,basi,1.0,False,1,1,0,0,0.25,1.0,0.25,0.25,306.0,1432.0,2243.0,910.0,1718.0,1865.5999999046328,2130.2999999523163,1323.2999999523165,"basi,bendi,luha,uongo","bendi,basi,luha,uongo","bendi,luha,uongo,basi","bendi,luha,basi,uongo",f,v,n,j,f,v,v,n,basi,basi,luha,uongo,213,539,5,286,1,1,0.0,0,0,0.0
80,1,54ad30a4fdf99b6f3e1e2b6b,tissue,ugomvi,1.0,False,0,1,0,1,0.25,0.25,0.25,0.25,852.0,2836.0,1711.0,1129.0,1615.2999999523165,1582.3999998569489,1355.6000001430511,2024.1000001430511,"ugomvi,lamigas,kisiwa,katika","lamigas,kisiwa,katika,ugomvi","lamigas,kisiwa,katika,ugomvi","lamigas,kisiwa,ugomvi,katika",f,n,n,j,n,n,f,j,katika,ugomvi,lamigas,ugomvi,255,557,111,246,1,0.25,1.0,0.75,0.75,0.0
81,1,54ad30a4fdf99b6f3e1e2b6b,tomato,mvua,1.0,False,1,1,1,1,0.25,1.0,0.25,0.25,1204.0,1191.0,2304.0,842.0,1857.0,1876.200000047684,1559.4000000953674,1455.0999999046326,"chupi,mvua,chupa,takatak","chupi,chupa,mvua,takatak","chupi,chupa,takatak,mvua","chupi,mvua,chupa,takatak",v,j,n,v,v,j,n,v,mvua,mvua,mvua,mvua,239,563,101,222,1,1,0.0,0,0,1.0
82,1,54ad30a4fdf99b6f3e1e2b6b,tooth,kabalaka,1.0,False,1,0,0,0,0.25,0.25,0.25,0.25,3021.0,1700.0,1959.0,955.0,2741.0,2040.0,1340.6999998092651,1713.5999999046326,"kijiko,uadui,pahiyum,kabalaka","kijiko,uadui,pahiyum,kabalaka","kijiko,uadui,kabalaka,pahiyum","kabalaka,kijiko,uadui,pahiyum",n,n,j,f,n,j,v,n,kabalaka,pahiyum,uadui,pahiyum,197,380,133,282,0,0.25,1.0,-0.25,0.25,0.0
83,1,54ad30a4fdf99b6f3e1e2b6b,towel,pagpalit,1.0,False,1,0,0,0,0.25,0.25,0.25,0.25,1043.0,2256.0,1316.0,1772.0,1809.5999999046328,3085.0,1582.6999998092651,1380.1999998092651,"tembo,funzi,pito,pagpalit","tembo,pagpalit,funzi,pito","tembo,funzi,pito,pagpalit","tembo,pagpalit,funzi,pito",n,v,n,v,n,n,f,j,pagpalit,pito,tembo,funzi,285,410,91,314,0,0.25,1.0,-0.25,0.25,0.0
84,1,54ad30a4fdf99b6f3e1e2b6b,train,sayari,1.0,False,0,0,1,1,0.25,0.25,0.25,0.25,1323.0,7895.0,1177.0,837.0,1605.7000000476835,5376.299999952316,1471.0,1523.2999999523165,"itik,dakika,mungu,sayari","itik,dakika,mungu,sayari","itik,dakika,sayari,mungu","itik,sayari,dakika,mungu",n,n,j,v,j,j,j,v,mungu,mungu,sayari,sayari,235,371,117,328,0,0.25,1.0,-0.25,0.25,1.0
85,1,54ad30a4fdf99b6f3e1e2b6b,triangle,kasadpan,1.0,False,0,1,1,1,0.25,0.25,0.25,0.25,940.0,1950.0,2545.0,2217.0,2143.7999999523163,2181.0,1394.7999999523165,1326.7999999523165,"kihozi,bentaha,kasadpan,liog","kihozi,bentaha,liog,kasadpan","kasadpan,kihozi,bentaha,liog","kihozi,kasadpan,bentaha,liog",j,n,f,v,f,n,f,v,kihozi,kasadpan,kasadpan,kasadpan,261,314,179,366,1,0.25,1.0,0.75,0.75,1.0
86,1,54ad30a4fdf99b6f3e1e2b6b,wheel,bafuni,1.0,False,0,1,0,0,0.25,1.0,0.25,0.25,1733.0,1369.0,1761.0,2672.0,1580.7999999523165,1953.200000047684,1703.9000000953674,1369.6000001430511,"bafuni,punda,tawo,baadaye","punda,tawo,bafuni,baadaye","punda,bafuni,tawo,baadaye","punda,tawo,bafuni,baadaye",f,j,v,j,j,j,f,f,tawo,bafuni,punda,punda,201,350,95,200,1,1,0.0,0,0,0.0
87,1,54ad30a4fdf99b6f3e1e2b6b,window,kweli,1.0,False,0,0,1,0,0.25,0.25,0.25,0.25,731.0,1897.0,1059.0,1028.0,1708.5999999046326,1628.7999999523165,1796.9000000953674,1359.1000001430511,"nanga,kujenga,kweli,umaga","nanga,kujenga,kweli,umaga","nanga,kweli,kujenga,umaga","nanga,kujenga,umaga,kweli",j,j,v,n,n,n,v,j,umaga,umaga,kweli,umaga,287,419,15,346,0,0.25,1.0,-0.25,0.25,0.0
88,1,54ad30a4fdf99b6f3e1e2b6b,wolf,lugha,1.0,False,1,0,0,1,0.25,0.25,0.25,0.25,1750.0,2757.0,959.0,1306.0,1738.7999999523165,3166.7999999523163,1413.2000000476835,1621.7000000476835,"kaburi,ndizi,mchuzi,lugha","kaburi,lugha,ndizi,mchuzi","kaburi,ndizi,lugha,mchuzi","kaburi,ndizi,lugha,mchuzi",n,v,j,j,n,j,v,j,lugha,ndizi,ndizi,lugha,179,374,149,292,0,0.25,1.0,-0.25,0.25,0.0
89,1,54ad30a4fdf99b6f3e1e2b6b,woman,pagtabon,1.0,False,0,1,1,0,0.25,1.0,0.25,0.25,1256.0,3327.0,2312.0,1726.0,1904.5,1838.700000047684,2667.599999904633,1312.7999999523165,"bandari,pagtabon,bituin,kovuli","pagtabon,bandari,bituin,kovuli","bandari,pagtabon,bituin,kovuli","bandari,bituin,kovuli,pagtabon",v,f,v,n,f,f,v,j,bandari,pagtabon,pagtabon,kovuli,199,422,19,308,1,1,0.0,0,0,0.0
90,2,5711089f52ab8e0011d08d03,apple,kisu,1.0,False,0,1,0,1,0.25,1.0,0.25,0.25,3941.0,1519.0,3211.0,3094.0,1944.0,2162.0,2055.0,2011.0,"ukame,kisu,estante,edad","ukame,estante,edad,kisu","ukame,estante,edad,kisu","ukame,kisu,estante,edad",v,n,n,v,j,n,f,v,estante,kisu,ukame,kisu,176,352,73,280,1,1,0.0,0,0,0.0
91,2,5711089f52ab8e0011d08d03,banana,kazi,1.0,False,1,1,1,1,1.0,1.0,1.0,1.0,8061.0,1922.0,2902.0,3370.0,2172.0,3104.0,1986.0,1772.0,"kasamok,hagdan,twai,kazi","kasamok,hagdan,kazi,twai","kazi,kasamok,hagdan,twai","kasamok,kazi,hagdan,twai",n,j,f,v,n,j,f,v,kazi,kazi,kazi,kazi,128,550,127,210,1,1,0.0,0,0,1.0
92,2,5711089f52ab8e0011d08d03,bank,silingan,1.0,False,0,0,0,1,0.25,0.0,0.75,0.25,3448.0,2385.0,2319.0,2023.0,2362.0,2769.0,2243.0,2278.0,"silingan,kudhibi,tualya,ofisi","kudhibi,silingan,tualya,ofisi","kudhibi,tualya,ofisi,silingan","kudhibi,tualya,ofisi,silingan",f,v,n,n,v,j,v,n,kudhibi,tualya,tualya,silingan,192,520,131,270,0,0.0,1.0,0.0,0.0,0.0
93,2,5711089f52ab8e0011d08d03,basket,kumba,1.0,False,1,1,1,0,0.25,1.0,0.25,0.25,4651.0,1561.0,3276.0,1838.0,2201.0,2449.0,2979.0,1844.0,"kumba,kumbuka,utepe,hasira","kumbuka,utepe,hasira,kumba","kumba,kumbuka,utepe,hasira","kumbuka,utepe,hasira,kumba",f,n,f,n,f,n,f,j,kumba,kumba,kumba,hasira,234,361,7,340,1,1,0.0,0,0,0.0
94,2,5711089f52ab8e0011d08d03,bed,mapintas,1.0,False,1,0,0,0,0.25,0.75,0.25,0.25,4794.0,2888.0,2814.0,2989.0,2082.0,4539.0,2788.0,1675.0,"kalipay,haraka,mapintas,starehe","mapintas,kalipay,haraka,starehe","kalipay,haraka,starehe,mapintas","kalipay,haraka,mapintas,starehe",j,f,n,j,j,j,v,v,mapintas,haraka,haraka,haraka,210,559,21,352,0,0.75,1.0,-0.75,0.75,0.0
95,2,5711089f52ab8e0011d08d03,berry,kofia,1.0,False,0,1,1,1,0.25,1.0,0.25,0.25,1357.0,1959.0,1817.0,1927.0,2203.0,2093.0,2153.0,1846.0,"abogado,kofia,nogozi,kinywa","abogado,nogozi,kinywa,kofia","abogado,nogozi,kinywa,kofia","abogado,kofia,nogozi,kinywa",v,n,n,v,j,n,n,v,nogozi,kofia,kofia,kofia,264,478,181,312,1,1,0.0,0,0,1.0
96,2,5711089f52ab8e0011d08d03,boat,agalon,1.0,False,0,0,0,0,0.25,0.25,0.25,0.25,1761.0,2332.0,1965.0,3022.0,2391.0,2718.0,1742.0,2623.0,"hamsi,pombe,kitanda,agalon","hamsi,pombe,agalon,kitanda","hamsi,pombe,kitanda,agalon","hamsi,pombe,kitanda,agalon",n,j,n,n,j,v,j,v,kitanda,pombe,kitanda,pombe,276,370,27,274,0,0.25,1.0,-0.25,0.25,0.0
97,2,5711089f52ab8e0011d08d03,body,tindashan,1.0,False,0,1,0,1,0.25,0.25,0.25,0.25,2801.0,3084.0,3574.0,3701.0,2240.0,4090.0,1941.0,2460.0,"nyundu,jibini,kununa,tindashan","nyundu,jibini,kununa,tindashan","nyundu,jibini,tindashan,kununa","nyundu,tindashan,jibini,kununa",n,n,j,v,v,n,v,v,jibini,tindashan,jibini,tindashan,144,556,175,320,1,0.25,1.0,0.75,0.75,0.0
98,2,5711089f52ab8e0011d08d03,bonfire,goti,1.0,False,1,1,1,1,1.0,1.0,1.0,1.0,4658.0,2135.0,2572.0,1922.0,2531.0,2452.0,2434.0,2412.0,"goti,mwezi,mfuko,kusanya","goti,mwezi,mfuko,kusanya","mwezi,goti,mfuko,kusanya","mwezi,goti,mfuko,kusanya",f,f,v,v,f,f,v,v,goti,goti,goti,goti,114,451,105,358,1,1.0,1.0,0.0,0.0,1.0
99,2,5711089f52ab8e0011d08d03,book,mali,1.0,False,0,0,1,1,0.25,0.25,0.25,0.25,4670.0,2520.0,1882.0,1973.0,2316.0,1656.0,1886.0,2292.0,"kuhesa,picha,mara,mali","kuhesa,mali,picha,mara","kuhesa,picha,mali,mara","kuhesa,picha,mara,mali",n,v,j,n,v,j,j,n,picha,picha,mali,mali,138,454,121,268,0,0.25,1.0,-0.25,0.25,1.0
100,2,5711089f52ab8e0011d08d03,box,adui,1.0,False,0,0,1,1,0.25,0.25,0.25,0.25,2043.0,2358.0,2113.0,1797.0,2009.0,1890.0,2588.0,2327.0,"adui,kuacha,rafiki,kitande","kuacha,rafiki,adui,kitande","kuacha,rafiki,adui,kitande","kuacha,adui,rafiki,kitande",f,j,j,v,j,n,j,v,rafiki,kitande,adui,adui,228,310,147,300,0,0.25,1.0,-0.25,0.25,1.0
101,2,5711089f52ab8e0011d08d03,bread,dari,1.0,False,0,1,1,1,0.25,0.5,0.5,0.75,4755.0,3983.0,2812.0,1917.0,1754.0,2890.0,3116.0,1868.0,"kaili,dari,dizeli,bugas","dari,kaili,dizeli,bugas","kaili,dizeli,dari,bugas","kaili,dizeli,bugas,dari",v,f,j,n,j,f,j,n,dizeli,dari,dari,dari,152,439,81,298,1,0.5,1.0,0.5,0.5,1.0
102,2,5711089f52ab8e0011d08d03,bridge,sahani,1.0,False,0,0,0,1,0.25,0.25,0.25,0.25,1937.0,3457.0,4552.0,2243.0,1988.0,1564.0,4476.0,1669.0,"sahani,daima,ngono,panya","daima,sahani,ngono,panya","daima,ngono,sahani,panya","daima,ngono,panya,sahani",f,v,j,n,v,n,v,n,daima,panya,ngono,sahani,262,448,143,344,0,0.25,1.0,-0.25,0.25,0.0
103,2,5711089f52ab8e0011d08d03,bucket,kiatu,1.0,False,0,0,1,0,0.25,0.25,0.25,0.25,3442.0,2953.0,3779.0,2919.0,2301.0,1563.0,2402.0,2059.0,"baga,ijayo,kiatu,init","baga,kiatu,ijayo,init","baga,kiatu,ijayo,init","baga,ijayo,kiatu,init",j,v,v,j,v,n,v,v,ijayo,init,kiatu,ijayo,136,475,93,240,0,0.25,1.0,-0.25,0.25,0.0
104,2,5711089f52ab8e0011d08d03,candle,geza,1.0,False,0,0,0,1,0.25,0.75,0.25,0.25,1412.0,3591.0,2574.0,1759.0,2384.0,3639.0,2013.0,2778.0,"gabi,farasi,kupanda,geza","gabi,farasi,kupanda,geza","gabi,geza,farasi,kupanda","gabi,farasi,kupanda,geza",n,n,v,n,f,j,j,n,gabi,kupanda,farasi,geza,258,565,119,336,0,0.75,1.0,-0.75,0.75,0.0
105,2,5711089f52ab8e0011d08d03,cat,paghukom,1.0,False,0,0,1,0,0.25,0.25,0.25,0.25,2291.0,3924.0,3470.0,2553.0,2164.0,2344.0,2210.0,1758.0,"neyemba,baki,paghukom,akili","neyemba,baki,paghukom,akili","neyemba,paghukom,baki,akili","neyemba,baki,akili,paghukom",j,j,v,n,n,v,v,f,akili,baki,paghukom,neyemba,232,418,87,202,0,0.25,1.0,-0.25,0.25,0.0
106,2,5711089f52ab8e0011d08d03,cave,kesho,1.0,False,1,0,0,1,0.25,0.25,0.25,0.25,3675.0,1372.0,4029.0,3387.0,2355.0,1742.0,3084.0,1869.0,"ganti,maisha,kesho,nyundo","kesho,ganti,maisha,nyundo","kesho,ganti,maisha,nyundo","ganti,maisha,kesho,nyundo",j,f,f,j,j,v,n,j,kesho,ganti,nyundo,kesho,154,436,17,250,0,0.25,1.0,-0.25,0.25,0.0
107,2,5711089f52ab8e0011d08d03,ceiling,maua,1.0,False,0,0,0,0,0.25,0.5,0.25,0.25,1887.0,3066.0,2872.0,1822.0,2665.0,3283.0,2142.0,1557.0,"maua,kugita,kawaida,rayna","kugita,kawaida,maua,rayna","kugita,kawaida,maua,rayna","kugita,maua,kawaida,rayna",f,j,j,v,v,n,n,j,kugita,rayna,rayna,kawaida,252,472,53,224,0,0.5,1.0,-0.5,0.5,0.0
108,2,5711089f52ab8e0011d08d03,cigar,adhabu,1.0,False,0,1,0,1,0.25,1.0,0.25,0.25,1972.0,2846.0,3552.0,2108.0,2781.0,2902.0,1723.0,1690.0,"ndugu,kuta,adhabu,mlango","ndugu,kuta,adhabu,mlango","ndugu,kuta,adhabu,mlango","ndugu,kuta,mlango,adhabu",j,j,j,n,f,j,n,n,ndugu,adhabu,mlango,adhabu,282,535,75,330,1,1,0.0,0,0,0.0
109,2,5711089f52ab8e0011d08d03,clock,mbwa,1.0,False,1,1,0,0,0.25,0.25,0.25,0.25,2796.0,39658.0,6030.0,1845.0,2282.0,2816.0,2605.0,9502.0,"kartasi,abang,mbwa,osha","kartasi,abang,mbwa,osha","kartasi,abang,osha,mbwa","kartasi,abang,osha,mbwa",j,j,n,n,j,j,f,j,mbwa,mbwa,kartasi,osha,160,325,37,310,1,0.25,1.0,0.75,0.75,0.0
110,2,5711089f52ab8e0011d08d03,coffin,kioo,1.0,False,0,1,0,1,0.25,1.0,0.25,0.75,5214.0,1937.0,2156.0,3816.0,2315.0,2341.0,2894.0,1716.0,"barua,tubag,hulma,kioo","barua,tubag,kioo,hulma","barua,kioo,tubag,hulma","barua,tubag,kioo,hulma",n,j,v,j,f,j,n,j,barua,kioo,hulma,kioo,166,331,77,228,1,1,0.0,0,0,0.0
111,2,5711089f52ab8e0011d08d03,column,ufagio,1.0,False,0,1,1,1,0.25,1.0,0.25,0.25,4466.0,1606.0,3118.0,1835.0,3270.0,1754.0,1931.0,2191.0,"ufagio,pundok,dila,pala","pundok,ufagio,dila,pala","pundok,dila,pala,ufagio","pundok,dila,ufagio,pala",f,v,n,j,n,v,n,j,pala,ufagio,ufagio,ufagio,118,337,23,338,1,1,0.0,0,0,1.0
112,2,5711089f52ab8e0011d08d03,cop,mechezo,1.0,False,1,1,1,1,0.25,0.25,0.25,0.5,2401.0,7213.0,1939.0,2808.0,2540.0,2397.0,2609.0,2234.0,"bustani,jikoni,bakus,mechezo","bustani,jikoni,mechezo,bakus","bustani,jikoni,bakus,mechezo","bustani,jikoni,bakus,mechezo",n,j,n,n,n,j,n,n,mechezo,mechezo,mechezo,mechezo,182,517,29,302,1,0.25,1.0,0.75,0.75,1.0
113,2,5711089f52ab8e0011d08d03,cup,matumai,1.0,False,0,0,0,0,0.25,0.25,0.25,0.25,2589.0,16818.0,2106.0,1571.0,3982.0,2749.0,1801.0,2326.0,"matumai,dagat,shimoni,jeraha","dagat,shimoni,matumai,jeraha","matumai,dagat,shimoni,jeraha","dagat,matumai,shimoni,jeraha",f,j,f,v,n,v,j,j,jeraha,shimoni,shimoni,shimoni,130,316,171,272,0,0.25,1.0,-0.25,0.25,0.0
114,2,5711089f52ab8e0011d08d03,curtain,mchanga,1.0,False,0,0,0,0,0.25,0.25,0.25,0.25,1542.0,48804.0,2598.0,2066.0,2120.0,2560.0,2780.0,1769.0,"lisud,mchanga,bulwawan,chubani","lisud,bulwawan,chubani,mchanga","mchanga,lisud,bulwawan,chubani","lisud,bulwawan,chubani,mchanga",v,n,f,n,j,f,n,j,bulwawan,lisud,chubani,chubani,272,322,9,204,0,0.25,1.0,-0.25,0.25,0.0
115,2,5711089f52ab8e0011d08d03,dog,bahari,1.0,False,0,1,0,1,0.25,1.0,0.25,0.25,1739.0,2101.0,6273.0,3049.0,2465.0,2613.0,2613.0,2887.0,"lubi,bahari,washia,kalamu","bahari,lubi,washia,kalamu","lubi,bahari,washia,kalamu","bahari,lubi,washia,kalamu",v,f,v,f,n,f,j,f,kalamu,bahari,washia,bahari,226,526,67,198,1,1,0.0,0,0,0.0
116,2,5711089f52ab8e0011d08d03,donkey,elfu,1.0,False,0,1,1,0,0.25,0.25,0.25,0.25,3144.0,4570.0,3781.0,1599.0,2601.0,1864.0,1825.0,1832.0,"bloke,elfu,lalake,rombus","bloke,lalake,elfu,rombus","elfu,bloke,lalake,rombus","bloke,elfu,lalake,rombus",v,j,f,v,j,j,f,j,lalake,elfu,elfu,lalake,194,445,141,214,1,0.25,1.0,0.75,0.75,0.0
117,2,5711089f52ab8e0011d08d03,door,surali,1.0,False,1,0,0,1,0.25,0.25,0.25,0.25,4788.0,5311.0,2812.0,2949.0,2089.0,1981.0,2201.0,1829.0,"tena,surali,soko,nyota","surali,tena,soko,nyota","surali,tena,soko,nyota","tena,surali,soko,nyota",v,f,f,v,v,n,v,v,surali,nyota,tena,surali,268,397,103,306,0,0.25,1.0,-0.25,0.25,0.0
118,2,5711089f52ab8e0011d08d03,eel,msumari,1.0,False,0,0,0,1,0.25,0.25,0.25,0.25,35968.0,4725.0,3343.0,1905.0,2299.0,1876.0,2755.0,2361.0,"ishara,kunywa,kabuang,msumari","ishara,kunywa,kabuang,msumari","msumari,ishara,kunywa,kabuang","ishara,kunywa,kabuang,msumari",n,n,f,n,f,f,j,n,ishara,ishara,kunywa,msumari,180,346,153,362,0,0.25,1.0,-0.25,0.25,0.0
119,2,5711089f52ab8e0011d08d03,elephant,kito,1.0,False,0,1,0,0,0.25,0.25,0.25,0.25,4360.0,2371.0,5376.0,3138.0,2009.0,3156.0,2516.0,1954.0,"petye,pagduol,kito,suka","petye,pagduol,suka,kito","kito,petye,pagduol,suka","petye,pagduol,suka,kito",j,n,f,n,f,n,j,v,petye,kito,pagduol,pagduol,134,433,123,190,1,0.25,1.0,0.75,0.75,0.0
120,2,5711089f52ab8e0011d08d03,finger,moyo,1.0,False,1,0,0,0,0.25,0.25,0.25,0.25,2040.0,44340.0,2805.0,2815.0,2527.0,2852.0,2409.0,2241.0,"moyo,simu,sufuria,lima","simu,sufuria,lima,moyo","simu,moyo,sufuria,lima","simu,sufuria,moyo,lima",f,n,v,j,f,v,n,n,moyo,sufuria,lima,lima,220,367,115,248,0,0.25,1.0,-0.25,0.25,0.0
121,2,5711089f52ab8e0011d08d03,fish,buli,1.0,False,0,1,1,1,0.25,0.25,0.25,0.25,1622.0,6610.0,3258.0,2308.0,1890.0,2556.0,1590.0,1665.0,"bala,baho,buli,imani","bala,baho,imani,buli","bala,baho,imani,buli","bala,baho,buli,imani",j,n,n,j,n,n,n,j,imani,buli,buli,buli,270,457,25,304,1,0.25,1.0,0.75,0.75,1.0
122,2,5711089f52ab8e0011d08d03,flag,trekta,1.0,False,0,0,1,1,0.25,0.25,0.25,0.25,1427.0,9078.0,2877.0,1481.0,2025.0,2801.0,3076.0,1700.0,"ndege,trekta,mkate,kawa","ndege,mkate,kawa,trekta","ndege,mkate,trekta,kawa","trekta,ndege,mkate,kawa",v,n,j,f,n,j,j,f,kawa,kawa,trekta,trekta,274,391,49,350,0,0.25,1.0,-0.25,0.25,1.0
123,2,5711089f52ab8e0011d08d03,flower,bega,1.0,False,1,1,1,1,1.0,1.0,0.25,1.0,2612.0,1619.0,1787.0,1929.0,2804.0,3959.0,2109.0,1817.0,"tamasha,bega,lobo,usiku","tamasha,bega,lobo,usiku","tamasha,lobo,usiku,bega","tamasha,lobo,usiku,bega",v,v,n,n,v,v,n,n,bega,bega,bega,bega,116,532,159,206,1,1.0,1.0,0.0,0.0,1.0
124,2,5711089f52ab8e0011d08d03,fork,mgonjwa,1.0,False,1,1,0,0,0.75,1.0,0.25,0.5,2999.0,3274.0,3379.0,2395.0,2480.0,2984.0,1725.0,2417.0,"baboy,paghago,gorisi,mgonjwa","baboy,paghago,gorisi,mgonjwa","baboy,paghago,mgonjwa,gorisi","baboy,mgonjwa,paghago,gorisi",n,n,j,v,n,n,v,j,mgonjwa,mgonjwa,paghago,paghago,124,541,165,290,1,1.0,1.0,0.0,0.0,0.0
125,2,5711089f52ab8e0011d08d03,gift,pagtawag,1.0,False,0,0,0,0,0.25,0.25,0.25,0.25,1379.0,2059.0,1843.0,6453.0,2310.0,3567.0,2780.0,1734.0,"baba,pagtawag,nyange,baso","baba,nyange,baso,pagtawag","pagtawag,baba,nyange,baso","baba,nyange,pagtawag,baso",v,n,f,j,n,v,n,n,baso,nyange,baso,baso,238,349,35,356,0,0.25,1.0,-0.25,0.25,0.0
126,2,5711089f52ab8e0011d08d03,giraffe,mahitabo,1.0,False,0,0,1,1,0.25,0.25,0.25,0.5,1461.0,2172.0,5139.0,2446.0,1724.0,2970.0,1890.0,2016.0,"daraja,jumatu,hangyo,mahitabo","daraja,mahitabo,jumatu,hangyo","daraja,mahitabo,jumatu,hangyo","daraja,mahitabo,jumatu,hangyo",n,v,v,v,j,f,v,v,hangyo,daraja,mahitabo,mahitabo,224,430,109,296,0,0.25,1.0,-0.25,0.25,1.0
127,2,5711089f52ab8e0011d08d03,hammer,napakyas,1.0,False,0,0,0,0,0.25,0.25,0.25,0.25,2534.0,3246.0,6505.0,1791.0,2158.0,2537.0,1995.0,2143.0,"mekno,kitovu,napakyas,layag","mekno,kitovu,layag,napakyas","mekno,napakyas,kitovu,layag","napakyas,mekno,kitovu,layag",j,n,v,f,v,j,j,j,kitovu,layag,kitovu,kitovu,248,538,173,326,0,0.25,1.0,-0.25,0.25,0.0
128,2,5711089f52ab8e0011d08d03,hill,matumbo,1.0,False,0,0,0,1,0.25,0.25,0.25,0.25,162260.0,4840.0,1757.0,1649.0,2539.0,2090.0,2524.0,1993.0,"kushoto,matumbo,kukimba,sweta","kushoto,matumbo,kukimba,sweta","kushoto,kukimba,sweta,matumbo","kushoto,matumbo,kukimba,sweta",v,v,n,v,f,j,j,v,kushoto,kukimba,sweta,matumbo,200,373,135,236,0,0.25,1.0,-0.25,0.25,0.0
129,2,5711089f52ab8e0011d08d03,human,tinapay,1.0,False,0,0,0,1,0.25,0.25,0.25,1.0,4952.0,4631.0,2345.0,3848.0,2125.0,2492.0,1652.0,2315.0,"bado,tinapay,kikapu,punguza","bado,tinapay,kikapu,punguza","tinapay,bado,kikapu,punguza","bado,tinapay,kikapu,punguza",v,v,f,v,n,j,n,v,punguza,kikapu,punguza,tinapay,158,412,169,244,0,0.25,1.0,-0.25,0.25,0.0
130,2,5711089f52ab8e0011d08d03,key,chombo,1.0,False,0,0,0,0,0.25,0.5,0.25,0.25,1419.0,2015.0,2159.0,4616.0,2470.0,5549.0,1861.0,2024.0,"miaka,goma,ahos,chombo","chombo,miaka,goma,ahos","miaka,goma,chombo,ahos","miaka,goma,ahos,chombo",n,f,j,n,v,v,n,v,goma,miaka,ahos,goma,212,502,41,262,0,0.5,1.0,-0.5,0.5,0.0
131,2,5711089f52ab8e0011d08d03,knee,duka,1.0,False,0,0,0,0,0.25,0.25,0.25,0.5,1853.0,2200.0,1701.0,2153.0,1721.0,1913.0,1944.0,3065.0,"mvuke,kubale,bili,duka","mvuke,kubale,duka,bili","mvuke,duka,kubale,bili","mvuke,duka,kubale,bili",n,j,v,v,j,v,j,j,bili,kubale,kubale,kubale,250,358,183,288,0,0.25,1.0,-0.25,0.25,0.0
132,2,5711089f52ab8e0011d08d03,ladder,pangalan,1.0,False,0,1,1,1,0.25,0.75,0.75,0.25,14007.0,2257.0,6779.0,2509.0,2067.0,2724.0,2375.0,3262.0,"mashua,mwanga,kamba,pangalan","pangalan,mashua,mwanga,kamba","mashua,mwanga,kamba,pangalan","mashua,mwanga,kamba,pangalan",n,f,n,n,v,f,n,n,mwanga,pangalan,pangalan,pangalan,156,547,97,242,1,0.75,1.0,0.25,0.25,1.0
133,2,5711089f52ab8e0011d08d03,lamp,afya,1.0,False,0,0,1,0,0.25,0.25,0.25,0.25,1600.0,5236.0,4219.0,1980.0,2050.0,1766.0,3158.0,1565.0,"daub,bilaska,mbolea,afya","daub,bilaska,afya,mbolea","daub,afya,bilaska,mbolea","afya,daub,bilaska,mbolea",n,j,v,f,f,f,v,j,daub,daub,afya,bilaska,280,406,65,254,0,0.25,1.0,-0.25,0.25,0.0
134,2,5711089f52ab8e0011d08d03,letter,kifua,1.0,False,0,1,0,1,0.25,1.0,0.25,0.25,13529.0,1688.0,3038.0,3717.0,3027.0,2671.0,2455.0,1729.0,"filimbi,chuma,uhuru,kifua","filimbi,kifua,chuma,uhuru","filimbi,chuma,uhuru,kifua","filimbi,chuma,kifua,uhuru",n,v,n,j,v,v,j,j,chuma,kifua,uhuru,kifua,178,523,47,276,1,1,0.0,0,0,0.0
135,2,5711089f52ab8e0011d08d03,list,wingu,1.0,False,0,1,1,1,0.25,0.25,0.25,0.25,1627.0,5215.0,2397.0,2114.0,2010.0,5607.0,2015.0,2221.0,"alizeti,wingu,kuzama,kaso","alizeti,kuzama,wingu,kaso","alizeti,kuzama,wingu,kaso","alizeti,kuzama,kaso,wingu",v,j,j,n,n,j,j,n,kaso,wingu,wingu,wingu,284,571,145,234,1,0.25,1.0,0.75,0.75,1.0
136,2,5711089f52ab8e0011d08d03,magazine,kiti,1.0,False,0,0,0,0,0.25,0.5,0.25,0.25,2364.0,2646.0,1735.0,2335.0,2378.0,10727.0,1967.0,1586.0,"gundi,mchawi,kiti,bahandi","gundi,mchawi,kiti,bahandi","gundi,mchawi,kiti,bahandi","gundi,mchawi,bahandi,kiti",j,j,j,n,n,n,v,v,bahandi,bahandi,mchawi,mchawi,150,334,33,212,0,0.5,1.0,-0.5,0.5,0.0
137,2,5711089f52ab8e0011d08d03,marker,maji,1.0,False,1,0,1,0,0.25,0.25,0.25,0.25,1640.0,3128.0,4042.0,1862.0,2148.0,7382.0,1701.0,1542.0,"mapafu,salita,maji,atay","maji,mapafu,salita,atay","mapafu,salita,maji,atay","mapafu,salita,atay,maji",j,f,j,n,j,j,j,j,maji,salita,maji,atay,256,508,99,232,0,0.25,1.0,-0.25,0.25,0.0
138,2,5711089f52ab8e0011d08d03,mirror,sulagma,1.0,False,0,1,0,1,0.0,0.25,0.25,0.25,3086.0,3424.0,2099.0,1820.0,4915.0,8145.0,2058.0,1647.0,"rangi,sulagma,kanding,furaha","rangi,kanding,sulagma,furaha","rangi,kanding,sulagma,furaha","rangi,kanding,furaha,sulagma",v,j,j,n,n,j,n,n,furaha,sulagma,furaha,sulagma,140,328,107,226,1,0.25,1.0,0.75,0.75,0.0
139,2,5711089f52ab8e0011d08d03,mosquito,martilyo,1.0,False,0,1,0,0,0.25,0.5,0.25,0.25,3471.0,4280.0,3122.0,2608.0,2169.0,6652.0,2281.0,1917.0,"isda,martilyo,taras,gutom","isda,taras,martilyo,gutom","isda,martilyo,taras,gutom","martilyo,isda,taras,gutom",v,j,v,f,f,j,n,v,isda,martilyo,gutom,isda,126,484,69,216,1,0.5,1.0,0.5,0.5,0.0
140,2,5711089f52ab8e0011d08d03,mother,babaye,1.0,False,0,1,0,0,0.25,1.0,0.25,0.25,3665.0,4055.0,6586.0,4499.0,1752.0,3264.0,2349.0,3007.0,"kahawa,babaye,mbuzi,jokofu","kahawa,mbuzi,jokofu,babaye","kahawa,mbuzi,babaye,jokofu","babaye,kahawa,mbuzi,jokofu",v,n,j,f,j,n,v,j,mbuzi,babaye,mbuzi,mbuzi,208,481,51,260,1,1,0.0,0,0,0.0
141,2,5711089f52ab8e0011d08d03,music,baiski,1.0,False,1,1,1,1,0.5,0.75,1.0,1.0,4213.0,2584.0,2079.0,1561.0,2571.0,2603.0,1968.0,2158.0,"mraba,baiski,mageho,tumbo","mraba,baiski,mageho,tumbo","mraba,baiski,mageho,tumbo","baiski,mraba,mageho,tumbo",v,v,v,f,v,v,v,f,baiski,baiski,baiski,baiski,120,499,137,354,1,0.75,1.0,0.25,0.25,1.0
142,2,5711089f52ab8e0011d08d03,nose,sehemu,1.0,False,1,1,0,0,0.25,1.0,0.25,0.25,2605.0,1431.0,2057.0,1548.0,2112.0,1785.0,2061.0,1846.0,"gubat,kopa,sehemu,kidole","sehemu,gubat,kopa,kidole","gubat,sehemu,kopa,kidole","gubat,sehemu,kopa,kidole",j,f,v,v,j,f,f,f,sehemu,sehemu,gubat,gubat,188,469,13,266,1,1,0.0,0,0,0.0
143,2,5711089f52ab8e0011d08d03,notebook,kemia,1.0,False,1,0,0,0,0.25,0.25,0.25,0.25,13546.0,2927.0,5972.0,1804.0,2909.0,1662.0,2461.0,2258.0,"msitu,kemia,kila,mdudu","msitu,kemia,kila,mdudu","kemia,msitu,kila,mdudu","msitu,kila,mdudu,kemia",v,v,f,n,v,n,v,f,kemia,mdudu,msitu,msitu,168,388,71,334,0,0.25,1.0,-0.25,0.25,0.0
144,2,5711089f52ab8e0011d08d03,number,mundamo,1.0,False,0,0,0,1,0.25,0.25,0.25,0.25,33232.0,9642.0,2287.0,1643.0,2137.0,2567.0,2790.0,1939.0,"mundamo,shule,kengele,choori","shule,kengele,choori,mundamo","mundamo,shule,kengele,choori","shule,kengele,choori,mundamo",f,n,f,n,v,j,n,n,shule,choori,choori,mundamo,174,340,63,208,0,0.25,1.0,-0.25,0.25,0.0
145,2,5711089f52ab8e0011d08d03,office,leso,1.0,False,1,0,1,0,0.25,0.25,0.25,0.25,3576.0,6957.0,3488.0,3702.0,2432.0,3969.0,1928.0,1965.0,"hazini,yatima,leso,kuna","hazini,leso,yatima,kuna","hazini,yatima,kuna,leso","hazini,yatima,leso,kuna",j,v,n,j,j,n,n,n,leso,kuna,leso,kuna,142,511,61,192,0,0.25,1.0,-0.25,0.25,0.0
146,2,5711089f52ab8e0011d08d03,olive,jiwe,1.0,False,0,1,1,1,0.25,0.75,0.75,1.0,3753.0,2603.0,2835.0,1945.0,1816.0,2626.0,1954.0,2797.0,"bata,siagi,jiwe,welder","bata,siagi,welder,jiwe","bata,jiwe,siagi,welder","bata,siagi,welder,jiwe",j,n,v,n,v,n,v,n,siagi,jiwe,jiwe,jiwe,148,574,83,322,1,0.75,1.0,0.25,0.25,1.0
147,2,5711089f52ab8e0011d08d03,page,wimbo,1.0,False,1,1,1,0,0.25,0.25,0.25,0.25,2001.0,2055.0,5506.0,2324.0,1874.0,1777.0,1963.0,2038.0,"wakala,ishiri,skina,wimbo","wakala,ishiri,wimbo,skina","wakala,ishiri,wimbo,skina","wakala,wimbo,ishiri,skina",n,j,j,v,n,j,j,n,wimbo,wimbo,wimbo,skina,214,466,177,342,1,0.25,1.0,0.75,0.75,0.0
148,2,5711089f52ab8e0011d08d03,pants,haki,1.0,False,0,0,1,0,0.25,0.25,0.25,0.25,2168.0,3615.0,6989.0,2510.0,2349.0,2844.0,1948.0,2305.0,"haki,pintal,chuki,hari","pintal,chuki,haki,hari","pintal,haki,chuki,hari","pintal,chuki,hari,haki",f,j,v,n,j,v,v,j,chuki,chuki,haki,hari,216,313,139,364,0,0.25,1.0,-0.25,0.25,0.0
149,2,5711089f52ab8e0011d08d03,park,bunifu,1.0,False,0,0,0,0,0.25,0.25,0.25,0.25,5207.0,1835.0,3382.0,1446.0,2397.0,3281.0,2760.0,1762.0,"tambok,bunifu,pwani,ihalas","tambok,pwani,bunifu,ihalas","bunifu,tambok,pwani,ihalas","bunifu,tambok,pwani,ihalas",v,j,f,f,n,f,n,v,ihalas,tambok,ihalas,tambok,172,364,11,318,0,0.25,1.0,-0.25,0.25,0.0
150,2,5711089f52ab8e0011d08d03,perfume,katuyoan,1.0,False,0,0,1,1,0.25,0.25,1.0,1.0,3377.0,2804.0,1764.0,1831.0,3561.0,2489.0,2343.0,2053.0,"bino,katuyoan,sungura,ndogo","katuyoan,bino,sungura,ndogo","bino,katuyoan,sungura,ndogo","bino,sungura,katuyoan,ndogo",v,f,v,j,j,n,v,j,sungura,ndogo,katuyoan,katuyoan,146,487,129,194,0,0.25,1.0,-0.25,0.25,1.0
151,2,5711089f52ab8e0011d08d03,picture,kubwa,1.0,False,1,1,0,0,0.25,1.0,0.25,0.25,13382.0,1640.0,2417.0,3667.0,2637.0,3328.0,2130.0,1696.0,"kubwa,silya,chaki,asin","silya,chaki,asin,kubwa","silya,chaki,kubwa,asin","kubwa,silya,chaki,asin",f,n,j,f,f,n,f,v,kubwa,kubwa,silya,silya,288,577,161,188,1,1,0.0,0,0,0.0
152,2,5711089f52ab8e0011d08d03,poster,madungog,1.0,False,0,1,0,0,0.25,0.25,0.25,0.25,8586.0,1860.0,2301.0,1899.0,2982.0,2719.0,1822.0,1659.0,"nchi,fedha,madungog,kasuko","nchi,madungog,fedha,kasuko","nchi,fedha,madungog,kasuko","nchi,madungog,fedha,kasuko",j,v,j,v,v,v,n,j,fedha,madungog,kasuko,fedha,196,496,151,324,1,0.25,1.0,0.75,0.75,0.0
153,2,5711089f52ab8e0011d08d03,pudding,aibu,1.0,False,0,0,1,1,0.25,0.25,0.75,0.25,1776.0,4114.0,2606.0,2261.0,1941.0,2374.0,2081.0,2049.0,"abug,mpishi,aibu,iring","abug,aibu,mpishi,iring","abug,mpishi,aibu,iring","abug,mpishi,iring,aibu",j,v,j,n,f,j,j,n,abug,mpishi,aibu,aibu,242,553,89,316,0,0.25,1.0,-0.25,0.25,1.0
154,2,5711089f52ab8e0011d08d03,puppet,mazishi,1.0,False,0,1,0,0,0.25,0.5,0.25,0.25,2976.0,1657.0,1993.0,1392.0,2770.0,4498.0,2342.0,2015.0,"mazishi,napulo,lamok,godoro","mazishi,napulo,lamok,godoro","napulo,lamok,mazishi,godoro","napulo,lamok,godoro,mazishi",f,f,j,n,j,f,n,j,lamok,mazishi,godoro,godoro,198,493,45,278,1,1,0.0,0,0,0.0
155,2,5711089f52ab8e0011d08d03,rose,paghalad,1.0,False,1,0,0,1,0.25,0.25,0.25,0.5,1441.0,3028.0,2154.0,2334.0,10785.0,1816.0,2811.0,2883.0,"singizi,mwanake,amani,paghalad","singizi,mwanake,paghalad,amani","singizi,mwanake,amani,paghalad","singizi,mwanake,amani,paghalad",n,j,n,n,n,v,j,n,paghalad,mwanake,amani,paghalad,278,343,59,252,0,0.25,1.0,-0.25,0.25,0.0
156,2,5711089f52ab8e0011d08d03,salmon,sensilyo,1.0,False,0,1,1,1,0.25,0.5,1.0,1.0,6089.0,3403.0,2387.0,1590.0,2698.0,3243.0,3443.0,1729.0,"sensilyo,mzungu,seri,baharia","mzungu,seri,baharia,sensilyo","mzungu,sensilyo,seri,baharia","sensilyo,mzungu,seri,baharia",f,n,v,f,n,n,v,f,baharia,sensilyo,sensilyo,sensilyo,164,400,43,196,1,0.5,1.0,0.5,0.5,1.0
157,2,5711089f52ab8e0011d08d03,scissors,tanuri,1.0,False,0,0,0,1,0.25,0.25,0.25,0.25,2466.0,2705.0,15535.0,2887.0,2529.0,2356.0,2471.0,2218.0,"duga,tanuri,mtawa,suga","duga,tanuri,mtawa,suga","duga,mtawa,tanuri,suga","duga,tanuri,mtawa,suga",v,v,j,v,j,n,f,v,mtawa,suga,duga,tanuri,230,463,155,360,0,0.25,1.0,-0.25,0.25,0.0
158,2,5711089f52ab8e0011d08d03,sheet,bililhon,1.0,False,0,0,0,1,0.25,0.5,0.75,0.5,4671.0,2552.0,2900.0,1478.0,2509.0,5025.0,2261.0,3162.0,"juuya,watu,kamantis,bililhon","juuya,bililhon,watu,kamantis","juuya,watu,bililhon,kamantis","juuya,bililhon,watu,kamantis",n,v,j,v,j,j,v,v,kamantis,watu,watu,bililhon,286,490,125,294,0,0.5,1.0,-0.5,0.5,0.0
159,2,5711089f52ab8e0011d08d03,shelf,pamahaw,1.0,False,0,1,0,0,0.25,1.0,0.25,0.25,4364.0,1668.0,3901.0,1544.0,2221.0,1985.0,2733.0,2732.0,"bungtod,pamahaw,kadaot,awit","bungtod,kadaot,pamahaw,awit","pamahaw,bungtod,kadaot,awit","bungtod,pamahaw,kadaot,awit",v,j,f,v,j,j,n,j,kadaot,pamahaw,awit,kadaot,162,409,79,238,1,1,0.0,0,0,0.0
160,2,5711089f52ab8e0011d08d03,shoe,uyoga,1.0,False,0,0,0,0,0.25,0.25,0.25,0.25,1919.0,7632.0,4272.0,1938.0,2097.0,2985.0,1850.0,1570.0,"nyeusi,hatua,uyoga,kama","uyoga,nyeusi,hatua,kama","nyeusi,hatua,uyoga,kama","nyeusi,hatua,uyoga,kama",j,f,j,j,n,j,f,n,kama,hatua,nyeusi,kama,222,514,167,218,0,0.25,1.0,-0.25,0.25,0.0
161,2,5711089f52ab8e0011d08d03,shop,samaki,1.0,False,1,0,0,0,0.5,0.25,0.25,0.25,3334.0,2359.0,1921.0,1622.0,5558.0,2494.0,1999.0,1780.0,"nopya,kerida,ndezu,samaki","nopya,kerida,samaki,ndezu","nopya,samaki,kerida,ndezu","nopya,samaki,kerida,ndezu",n,j,v,v,n,n,n,n,samaki,ndezu,ndezu,ndezu,132,529,157,284,0,0.25,1.0,-0.25,0.25,0.0
162,2,5711089f52ab8e0011d08d03,shoulder,mkuu,1.0,False,0,0,0,0,0.25,0.25,0.25,0.25,15175.0,5366.0,3122.0,2522.0,1681.0,1636.0,2080.0,1513.0,"mkuu,kelele,ndaniya,guruwe","kelele,ndaniya,mkuu,guruwe","kelele,mkuu,ndaniya,guruwe","kelele,ndaniya,mkuu,guruwe",f,j,v,j,v,n,f,f,kelele,guruwe,kelele,kelele,170,403,31,256,0,0.25,1.0,-0.25,0.25,0.0
163,2,5711089f52ab8e0011d08d03,snake,pagtukod,1.0,False,1,1,1,1,0.25,0.5,1.0,1.0,1420.0,2585.0,1980.0,2322.0,2256.0,5940.0,1902.0,2241.0,"jansa,pagtukod,karon,mvringo","jansa,karon,pagtukod,mvringo","jansa,karon,pagtukod,mvringo","pagtukod,jansa,karon,mvringo",v,j,j,f,v,j,j,f,pagtukod,pagtukod,pagtukod,pagtukod,236,382,113,348,1,0.5,1.0,0.5,0.5,1.0
164,2,5711089f52ab8e0011d08d03,sock,mamba,1.0,False,1,0,0,0,0.25,0.25,0.25,0.25,2388.0,3036.0,3602.0,2477.0,1675.0,2766.0,2681.0,2615.0,"ndoora,mamba,kimysa,mtirka","mamba,ndoora,kimysa,mtirka","ndoora,kimysa,mamba,mtirka","mamba,ndoora,kimysa,mtirka",v,f,j,f,v,n,n,v,mamba,mtirka,mtirka,ndoora,190,505,57,258,0,0.25,1.0,-0.25,0.25,0.0
165,2,5711089f52ab8e0011d08d03,spider,kamwe,1.0,False,1,1,1,1,1.0,1.0,1.0,1.0,2626.0,2117.0,1766.0,1865.0,2713.0,2068.0,1989.0,1868.0,"kamwe,bunyag,mkboa,atop","bunyag,mkboa,kamwe,atop","bunyag,mkboa,kamwe,atop","bunyag,mkboa,atop,kamwe",f,j,j,n,f,j,j,n,kamwe,kamwe,kamwe,kamwe,122,421,85,332,1,1.0,1.0,0.0,0.0,1.0
166,2,5711089f52ab8e0011d08d03,spoon,pagsulod,1.0,False,0,0,0,0,0.25,0.25,0.25,0.25,16382.0,2136.0,5515.0,1595.0,2972.0,1827.0,3222.0,2123.0,"betri,pagsulod,nzuri,ngazi","pagsulod,betri,nzuri,ngazi","betri,nzuri,pagsulod,ngazi","betri,pagsulod,nzuri,ngazi",v,f,j,v,j,n,f,n,nzuri,ngazi,betri,ngazi,254,460,163,230,0,0.25,1.0,-0.25,0.25,0.0
167,2,5711089f52ab8e0011d08d03,squirrel,hofu,1.0,False,0,0,1,1,0.25,0.5,0.25,0.25,46485.0,3014.0,2220.0,3110.0,3299.0,3119.0,2541.0,1842.0,"mahugaw,hofu,ukweli,kichwa","hofu,mahugaw,ukweli,kichwa","mahugaw,ukweli,kichwa,hofu","mahugaw,ukweli,kichwa,hofu",v,f,n,n,f,v,n,n,mahugaw,mahugaw,hofu,hofu,186,394,39,264,0,0.5,1.0,-0.5,0.5,1.0
168,2,5711089f52ab8e0011d08d03,stone,wingi,1.0,False,0,1,0,0,0.25,0.5,0.25,0.25,129784.0,2922.0,2298.0,2023.0,2996.0,3180.0,2288.0,2299.0,"ulimwengu,mkasi,asili,wingi","ulimwengu,mkasi,asili,wingi","wingi,ulimwengu,mkasi,asili","wingi,ulimwengu,mkasi,asili",n,n,f,f,f,n,n,n,ulimwengu,wingi,asili,asili,246,442,55,220,1,0.5,1.0,0.5,0.5,0.0
169,2,5711089f52ab8e0011d08d03,sun,basi,1.0,False,1,1,1,1,0.25,1.0,0.25,0.75,3291.0,1563.0,2742.0,2510.0,2219.0,3192.0,3647.0,2117.0,"bendi,luha,uongo,basi","bendi,luha,uongo,basi","bendi,luha,basi,uongo","basi,bendi,luha,uongo",n,n,j,f,n,n,j,f,basi,basi,basi,basi,218,544,5,286,1,1,0.0,0,0,1.0
170,2,5711089f52ab8e0011d08d03,tissue,ugomvi,1.0,False,0,0,0,1,0.25,0.25,0.25,0.25,2635.0,8533.0,2032.0,1464.0,1894.0,3117.0,1508.0,1488.0,"lamigas,kisiwa,ugomvi,katika","ugomvi,lamigas,kisiwa,katika","lamigas,kisiwa,ugomvi,katika","lamigas,ugomvi,kisiwa,katika",j,f,j,v,v,j,n,v,kisiwa,kisiwa,katika,ugomvi,260,562,111,246,0,0.25,1.0,-0.25,0.25,0.0
171,2,5711089f52ab8e0011d08d03,tomato,mvua,1.0,False,0,1,0,0,0.25,1.0,0.25,0.25,2473.0,1813.0,2052.0,2328.0,1882.0,4136.0,2598.0,1819.0,"chupi,chupa,mvua,takatak","mvua,chupi,chupa,takatak","mvua,chupi,chupa,takatak","mvua,chupi,chupa,takatak",j,f,f,f,n,f,n,v,takatak,mvua,takatak,chupi,244,568,101,222,1,1,0.0,0,0,0.0
172,2,5711089f52ab8e0011d08d03,tooth,kabalaka,1.0,False,0,0,0,0,0.25,0.5,0.25,0.25,2401.0,3330.0,4573.0,2455.0,2261.0,3094.0,1738.0,1857.0,"kijiko,uadui,kabalaka,pahiyum","kijiko,uadui,kabalaka,pahiyum","kijiko,uadui,kabalaka,pahiyum","kijiko,uadui,kabalaka,pahiyum",j,j,j,j,n,n,v,v,pahiyum,pahiyum,uadui,uadui,202,385,133,282,0,0.5,1.0,-0.5,0.5,0.0
173,2,5711089f52ab8e0011d08d03,towel,pagpalit,1.0,False,0,0,0,1,0.25,0.25,0.75,0.25,6948.0,3368.0,2195.0,2377.0,1961.0,2665.0,1713.0,1932.0,"tembo,pagpalit,funzi,pito","tembo,pagpalit,funzi,pito","tembo,pagpalit,funzi,pito","pagpalit,tembo,funzi,pito",v,v,v,f,f,n,n,f,tembo,pito,pito,pagpalit,290,415,91,314,0,0.25,1.0,-0.25,0.25,0.0
174,2,5711089f52ab8e0011d08d03,train,sayari,1.0,False,0,0,0,0,0.25,0.25,0.25,0.25,3118.0,2118.0,2255.0,1625.0,2467.0,1791.0,2293.0,2323.0,"itik,dakika,mungu,sayari","itik,dakika,sayari,mungu","sayari,itik,dakika,mungu","sayari,itik,dakika,mungu",n,j,f,f,v,v,v,n,dakika,dakika,itik,mungu,240,376,117,328,0,0.25,1.0,-0.25,0.25,0.0
175,2,5711089f52ab8e0011d08d03,triangle,kasadpan,1.0,False,1,0,0,0,0.25,0.25,0.25,0.25,2186.0,3697.0,2451.0,2820.0,2191.0,2024.0,1632.0,2372.0,"kihozi,bentaha,liog,kasadpan","kihozi,bentaha,kasadpan,liog","kihozi,kasadpan,bentaha,liog","kihozi,bentaha,liog,kasadpan",n,j,v,n,n,n,j,v,kasadpan,liog,bentaha,bentaha,266,319,179,366,0,0.25,1.0,-0.25,0.25,0.0
176,2,5711089f52ab8e0011d08d03,wheel,bafuni,1.0,False,0,1,1,1,0.25,1.0,0.25,0.25,1626.0,1649.0,2396.0,2244.0,2299.0,1816.0,4566.0,1792.0,"punda,bafuni,tawo,baadaye","punda,tawo,bafuni,baadaye","punda,tawo,baadaye,bafuni","punda,tawo,baadaye,bafuni",v,j,n,n,j,j,n,n,tawo,bafuni,bafuni,bafuni,206,355,95,200,1,1,0.0,0,0,1.0
177,2,5711089f52ab8e0011d08d03,window,kweli,1.0,False,0,0,0,0,0.25,0.25,0.25,0.25,1364.0,2567.0,2058.0,1663.0,2075.0,3086.0,2009.0,1478.0,"nanga,kujenga,kweli,umaga","kweli,nanga,kujenga,umaga","kweli,nanga,kujenga,umaga","kweli,nanga,kujenga,umaga",j,f,f,f,n,j,j,j,umaga,kujenga,kujenga,kujenga,292,424,15,346,0,0.25,1.0,-0.25,0.25,0.0
178,2,5711089f52ab8e0011d08d03,wolf,lugha,1.0,False,0,1,0,1,0.25,0.25,0.25,0.5,2938.0,3542.0,2042.0,3288.0,1728.0,3548.0,2821.0,3047.0,"kaburi,ndizi,mchuzi,lugha","kaburi,ndizi,mchuzi,lugha","kaburi,ndizi,lugha,mchuzi","lugha,kaburi,ndizi,mchuzi",n,n,j,f,v,n,n,f,ndizi,lugha,mchuzi,lugha,184,379,149,292,1,0.25,1.0,0.75,0.75,0.0
179,2,5711089f52ab8e0011d08d03,woman,pagtabon,1.0,False,1,1,0,1,0.25,1.0,0.25,0.25,2165.0,2126.0,2274.0,2350.0,2187.0,3558.0,2739.0,2555.0,"bandari,pagtabon,bituin,kovuli","bandari,bituin,kovuli,pagtabon","bandari,bituin,pagtabon,kovuli","bandari,bituin,kovuli,pagtabon",v,n,j,n,v,n,n,n,pagtabon,pagtabon,kovuli,pagtabon,204,427,19,308,1,1,0.0,0,0,0.0
180,3,5718a9c4dd9ef10013df01f0,apple,kisu,1.0,False,1,1,1,1,0.75,1.0,0.0,0.0,4393.0,1971.0,5549.0,2811.0,3084.4000000003725,2561.2999999988824,2244.5,2156.1000000089407,"ukame,estante,kisu,edad","ukame,estante,edad,kisu","ukame,kisu,estante,edad","ukame,estante,edad,kisu",j,n,v,n,j,n,v,n,kisu,kisu,kisu,kisu,176,352,73,280,1,1,0.0,0,0,1.0
181,3,5718a9c4dd9ef10013df01f0,banana,kazi,1.0,False,1,1,1,1,0.75,1.0,0.0,0.0,6450.0,2029.0,7028.0,4505.0,2943.5,2222.900000002235,2263.70000000298,2903.20000000298,"kazi,kasamok,hagdan,twai","kasamok,kazi,hagdan,twai","kazi,kasamok,hagdan,twai","kazi,kasamok,hagdan,twai",f,v,f,f,f,v,f,f,kazi,kazi,kazi,kazi,128,550,127,210,1,1,0.0,0,0,1.0
182,3,5718a9c4dd9ef10013df01f0,bank,silingan,1.0,False,0,1,1,1,0.0,0.0,0.0,1.0,3670.0,6743.0,3352.0,2824.0,2670.5,2457.89999999851,2489.6000000089407,2268.20000000298,"kudhibi,tualya,ofisi,silingan","kudhibi,silingan,tualya,ofisi","silingan,kudhibi,tualya,ofisi","kudhibi,tualya,ofisi,silingan",n,v,f,n,v,v,f,n,tualya,silingan,silingan,silingan,192,520,131,270,1,0.0,1.0,1.0,1.0,1.0
183,3,5718a9c4dd9ef10013df01f0,basket,kumba,1.0,False,1,1,0,1,0.0,1.0,0.0,0.0,6940.0,2791.0,7379.0,9761.0,2454.0,2274.800000000745,3048.0999999940395,2658.29999999702,"kumbuka,utepe,hasira,kumba","kumbuka,utepe,hasira,kumba","kumbuka,utepe,kumba,hasira","kumbuka,utepe,hasira,kumba",n,n,j,n,n,n,f,n,kumba,kumba,kumbuka,kumba,234,361,7,340,1,1,0.0,0,0,0.0
184,3,5718a9c4dd9ef10013df01f0,bed,mapintas,1.0,False,0,0,1,1,0.0,0.0,0.25,1.0,6013.0,12413.0,5789.0,4829.0,2478.9000000003725,2267.199999999255,2810.3999999910598,2413.5,"kalipay,haraka,mapintas,starehe","kalipay,haraka,mapintas,starehe","kalipay,mapintas,haraka,starehe","kalipay,haraka,starehe,mapintas",j,j,v,n,v,f,v,n,haraka,kalipay,mapintas,mapintas,210,559,21,352,0,0.0,1.0,0.0,0.0,1.0
185,3,5718a9c4dd9ef10013df01f0,berry,kofia,1.0,False,1,1,0,0,0.0,1.0,0.0,0.0,10237.0,4143.0,7615.0,12620.0,2468.4000000003725,3129.60000000149,2443.9000000059605,2320.9000000059605,"kofia,abogado,nogozi,kinywa","abogado,kofia,nogozi,kinywa","abogado,kofia,nogozi,kinywa","abogado,kofia,nogozi,kinywa",f,v,v,v,f,v,j,n,kofia,kofia,nogozi,kinywa,264,478,181,312,1,1,0.0,0,0,0.0
186,3,5718a9c4dd9ef10013df01f0,boat,agalon,1.0,False,0,0,0,1,0.0,0.0,0.0,0.0,4122.0,16830.0,7787.0,7622.0,2404.0,2733.0,2588.29999999702,2289.0,"hamsi,pombe,agalon,kitanda","agalon,hamsi,pombe,kitanda","agalon,hamsi,pombe,kitanda","hamsi,pombe,agalon,kitanda",j,f,f,j,n,n,n,j,kitanda,kitanda,kitanda,agalon,276,370,27,274,0,0.0,1.0,0.0,0.0,0.0
187,3,5718a9c4dd9ef10013df01f0,body,tindashan,1.0,False,1,1,1,1,0.0,0.0,0.0,1.0,8232.0,3915.0,2826.0,1905.0,2458.0999999996275,2500.70000000298,2291.800000011921,2520.79999999702,"nyundu,jibini,kununa,tindashan","tindashan,nyundu,jibini,kununa","nyundu,tindashan,jibini,kununa","tindashan,nyundu,jibini,kununa",n,f,v,f,n,f,v,f,tindashan,tindashan,tindashan,tindashan,144,556,175,320,1,0.0,1.0,1.0,1.0,1.0
188,3,5718a9c4dd9ef10013df01f0,bonfire,goti,1.0,False,1,1,1,1,0.25,1.0,1.0,1.0,3303.0,8438.0,2459.0,1852.0,2808.9000000003725,2472.10000000149,2452.20000000298,3172.70000000298,"mwezi,mfuko,kusanya,goti","mwezi,mfuko,kusanya,goti","goti,mwezi,mfuko,kusanya","mwezi,mfuko,goti,kusanya",n,n,f,j,n,n,f,j,goti,goti,goti,goti,114,451,105,358,1,1.0,1.0,0.0,0.0,1.0
189,3,5718a9c4dd9ef10013df01f0,book,mali,1.0,False,1,1,1,1,0.0,1.0,0.0,0.0,4324.0,7117.0,3974.0,2677.0,2521.39999999851,2381.599999997765,2474.3999999910598,2299.70000000298,"kuhesa,mali,picha,mara","kuhesa,picha,mara,mali","kuhesa,mali,picha,mara","mali,kuhesa,picha,mara",v,n,v,f,v,n,v,f,mali,mali,mali,mali,138,454,121,268,1,1.0,1.0,0.0,0.0,1.0
190,3,5718a9c4dd9ef10013df01f0,box,adui,1.0,False,1,1,1,1,0.0,0.0,0.0,0.0,4257.0,5065.0,6130.0,2467.0,2524.0999999996275,2455.89999999851,2113.5999999940395,2344.1000000089407,"kuacha,rafiki,kitande,adui","adui,kuacha,rafiki,kitande","adui,kuacha,rafiki,kitande","kuacha,rafiki,kitande,adui",n,f,f,n,n,f,f,n,adui,adui,adui,adui,228,310,147,300,1,0.0,1.0,1.0,1.0,1.0
191,3,5718a9c4dd9ef10013df01f0,bread,dari,1.0,False,0,1,1,1,0.0,0.0,0.75,0.75,4989.0,2915.0,2074.0,2101.0,3083.699999999255,2264.300000000745,2318.4000000059605,3225.3999999910598,"kaili,dari,dizeli,bugas","kaili,dizeli,dari,bugas","kaili,dizeli,bugas,dari","kaili,dizeli,dari,bugas",v,j,n,j,f,j,n,j,kaili,dari,dari,dari,152,439,81,298,1,0.0,1.0,1.0,1.0,1.0
192,3,5718a9c4dd9ef10013df01f0,bridge,sahani,1.0,False,1,1,1,1,0.0,0.0,0.0,0.0,5884.0,7371.0,8014.0,12045.0,2640.2999999988824,3423.29999999702,2247.4000000059605,2328.5999999940395,"daima,ngono,sahani,panya","daima,ngono,sahani,panya","sahani,daima,ngono,panya","daima,sahani,ngono,panya",j,j,f,v,j,j,f,v,sahani,sahani,sahani,sahani,262,448,143,344,1,0.0,1.0,1.0,1.0,1.0
193,3,5718a9c4dd9ef10013df01f0,bucket,kiatu,1.0,False,1,1,1,1,0.0,0.0,0.0,0.0,12847.0,4091.0,6470.0,4575.0,2329.800000000745,2445.60000000149,2927.199999988079,2218.300000011921,"baga,kiatu,ijayo,init","baga,kiatu,ijayo,init","baga,ijayo,init,kiatu","baga,kiatu,ijayo,init",v,v,n,v,v,v,n,v,kiatu,kiatu,kiatu,kiatu,136,475,93,240,1,0.0,1.0,1.0,1.0,1.0
194,3,5718a9c4dd9ef10013df01f0,candle,geza,1.0,False,0,0,0,0,0.0,0.0,0.0,0.0,7324.0,6709.0,6162.0,5422.0,2340.5999999996275,2471.099999997765,2384.9000000059605,2442.5,"gabi,farasi,geza,kupanda","gabi,farasi,kupanda,geza","gabi,farasi,kupanda,geza","gabi,farasi,kupanda,geza",j,n,n,n,v,v,v,f,farasi,farasi,farasi,gabi,258,565,119,336,0,0.0,1.0,0.0,0.0,0.0
195,3,5718a9c4dd9ef10013df01f0,cat,paghukom,1.0,False,0,1,1,1,0.0,0.0,0.0,0.0,3759.0,5258.0,4667.0,3901.0,2735.9000000003725,2758.699999999255,2362.1000000089407,2840.1000000089407,"neyemba,baki,akili,paghukom","paghukom,neyemba,baki,akili","neyemba,paghukom,baki,akili","neyemba,baki,paghukom,akili",n,f,v,j,v,f,v,j,baki,paghukom,paghukom,paghukom,232,418,87,202,1,0.0,1.0,1.0,1.0,1.0
196,3,5718a9c4dd9ef10013df01f0,cave,kesho,1.0,False,0,0,1,1,0.0,0.0,0.0,0.75,9937.0,7056.0,7472.0,8084.0,2552.9000000003725,2385.5,2520.8999999910598,2108.0,"kesho,ganti,maisha,nyundo","ganti,kesho,maisha,nyundo","ganti,kesho,maisha,nyundo","ganti,kesho,maisha,nyundo",f,v,v,v,n,n,v,v,nyundo,nyundo,kesho,kesho,154,436,17,250,0,0.0,1.0,0.0,0.0,1.0
197,3,5718a9c4dd9ef10013df01f0,ceiling,maua,1.0,False,1,1,1,1,0.25,0.0,0.0,0.0,8029.0,6152.0,13476.0,4134.0,2261.199999999255,11311.699999999257,2945.20000000298,2210.9000000059605,"kugita,maua,kawaida,rayna","kugita,kawaida,maua,rayna","kugita,kawaida,maua,rayna","kugita,maua,kawaida,rayna",v,j,j,v,v,j,j,v,maua,maua,maua,maua,252,472,53,224,1,0.0,1.0,1.0,1.0,1.0
198,3,5718a9c4dd9ef10013df01f0,cigar,adhabu,1.0,False,0,1,1,1,0.0,1.0,0.0,0.25,4542.0,1582.0,6449.0,4418.0,2457.199999999255,3097.699999999255,2310.4000000059605,7340.90000000596,"adhabu,ndugu,kuta,mlango","ndugu,adhabu,kuta,mlango","ndugu,kuta,mlango,adhabu","ndugu,kuta,mlango,adhabu",f,v,n,n,j,v,n,n,kuta,adhabu,adhabu,adhabu,282,535,75,330,1,1,0.0,0,0,1.0
199,3,5718a9c4dd9ef10013df01f0,clock,mbwa,1.0,False,1,1,1,1,0.0,0.0,0.0,0.0,8035.0,5389.0,4419.0,2581.0,3388.5,2775.5999999996275,2459.70000000298,2346.8999999910598,"mbwa,kartasi,abang,osha","mbwa,kartasi,abang,osha","kartasi,abang,osha,mbwa","kartasi,abang,osha,mbwa",f,f,n,n,f,f,n,n,mbwa,mbwa,mbwa,mbwa,160,325,37,310,1,0.0,1.0,1.0,1.0,1.0
200,3,5718a9c4dd9ef10013df01f0,coffin,kioo,1.0,False,1,1,1,1,0.75,1.0,1.0,0.0,4115.0,3067.0,3244.0,2274.0,3110.800000000745,2562.699999999255,2399.70000000298,2533.0999999940395,"barua,kioo,tubag,hulma","kioo,barua,tubag,hulma","barua,kioo,tubag,hulma","barua,kioo,tubag,hulma",v,f,v,v,v,f,v,v,kioo,kioo,kioo,kioo,166,331,77,228,1,1,0.0,0,0,1.0
201,3,5718a9c4dd9ef10013df01f0,column,ufagio,1.0,False,1,1,1,1,0.5,1.0,0.0,0.0,3513.0,4655.0,7831.0,5281.0,10530.099999999627,18342.5,2344.5,2170.79999999702,"pundok,dila,pala,ufagio","pundok,dila,ufagio,pala","ufagio,pundok,dila,pala","ufagio,pundok,dila,pala",n,j,f,f,n,j,f,f,ufagio,ufagio,ufagio,ufagio,118,337,23,338,1,1,0.0,0,0,1.0
202,3,5718a9c4dd9ef10013df01f0,cop,mechezo,1.0,False,1,1,1,1,1.0,1.0,1.0,1.0,4002.0,2133.0,4446.0,1687.0,2340.89999999851,3024.099999997765,2580.29999999702,2180.3999999910598,"bustani,jikoni,bakus,mechezo","bustani,jikoni,mechezo,bakus","bustani,mechezo,jikoni,bakus","bustani,mechezo,jikoni,bakus",n,j,v,v,n,j,v,v,mechezo,mechezo,mechezo,mechezo,182,517,29,302,1,1.0,1.0,0.0,0.0,1.0
203,3,5718a9c4dd9ef10013df01f0,cup,matumai,1.0,False,1,1,1,1,0.0,0.0,0.0,1.0,5098.0,7480.0,3919.0,3161.0,2642.5,2452.800000000745,2499.1000000089407,2352.0,"dagat,matumai,shimoni,jeraha","dagat,matumai,shimoni,jeraha","dagat,shimoni,matumai,jeraha","dagat,matumai,shimoni,jeraha",v,v,j,v,v,v,j,v,matumai,matumai,matumai,matumai,130,316,171,272,1,0.0,1.0,1.0,1.0,1.0
204,3,5718a9c4dd9ef10013df01f0,curtain,mchanga,1.0,False,1,1,1,1,0.25,0.75,0.25,1.0,6055.0,4358.0,2897.0,3431.0,2202.0,2307.5,3146.29999999702,2345.6000000089407,"mchanga,lisud,bulwawan,chubani","mchanga,lisud,bulwawan,chubani","mchanga,lisud,bulwawan,chubani","lisud,mchanga,bulwawan,chubani",f,f,f,v,f,f,f,v,mchanga,mchanga,mchanga,mchanga,272,322,9,204,1,0.75,1.0,0.25,0.25,1.0
205,3,5718a9c4dd9ef10013df01f0,dog,bahari,1.0,False,1,1,1,1,0.0,1.0,1.0,1.0,3902.0,2760.0,2775.0,2552.0,2226.2000000011176,3089.70000000298,2294.29999999702,2710.5,"lubi,washia,bahari,kalamu","lubi,bahari,washia,kalamu","bahari,lubi,washia,kalamu","lubi,washia,kalamu,bahari",j,v,f,n,j,v,f,n,bahari,bahari,bahari,bahari,226,526,67,198,1,1,0.0,0,0,1.0
206,3,5718a9c4dd9ef10013df01f0,donkey,elfu,1.0,False,1,1,1,1,0.75,1.0,1.0,1.0,3129.0,2502.0,2640.0,2513.0,2416.7999999988824,2389.20000000298,2466.9000000059605,2322.199999988079,"bloke,lalake,elfu,rombus","bloke,lalake,elfu,rombus","bloke,lalake,rombus,elfu","bloke,elfu,lalake,rombus",j,j,n,v,j,j,n,v,elfu,elfu,elfu,elfu,194,445,141,214,1,1.0,1.0,0.0,0.0,1.0
207,3,5718a9c4dd9ef10013df01f0,door,surali,1.0,False,0,0,0,0,0.0,0.0,0.0,0.0,4381.0,5950.0,5855.0,2161.0,2359.699999999255,2352.0,2350.1000000089407,2180.0999999940395,"tena,surali,soko,nyota","tena,soko,nyota,surali","tena,soko,surali,nyota","tena,surali,soko,nyota",v,n,j,v,n,j,f,f,nyota,nyota,tena,tena,268,397,103,306,0,0.0,1.0,0.0,0.0,0.0
208,3,5718a9c4dd9ef10013df01f0,eel,msumari,1.0,False,1,1,1,1,0.75,0.25,0.0,0.0,3926.0,5475.0,12920.0,8739.0,2382.0,3739.800000000745,3380.20000000298,2103.1000000089407,"ishara,kunywa,msumari,kabuang","ishara,msumari,kunywa,kabuang","ishara,kunywa,msumari,kabuang","ishara,kunywa,msumari,kabuang",j,v,j,j,j,v,j,j,msumari,msumari,msumari,msumari,180,346,153,362,1,0.25,1.0,0.75,0.75,1.0
209,3,5718a9c4dd9ef10013df01f0,elephant,kito,1.0,False,1,1,1,1,0.75,1.0,0.25,1.0,2639.0,2420.0,2997.0,1903.0,2288.199999999255,2980.300000000745,2375.5,2722.9000000059605,"petye,pagduol,suka,kito","petye,pagduol,suka,kito","petye,pagduol,kito,suka","petye,pagduol,kito,suka",n,n,j,j,n,n,j,j,kito,kito,kito,kito,134,433,123,190,1,1.0,1.0,0.0,0.0,1.0
210,3,5718a9c4dd9ef10013df01f0,finger,moyo,1.0,False,0,0,1,1,0.0,0.0,0.75,0.75,5792.0,5417.0,4135.0,1989.0,2664.5999999996275,2329.5,2409.4000000059605,3071.3999999910598,"simu,sufuria,moyo,lima","moyo,simu,sufuria,lima","simu,sufuria,moyo,lima","simu,sufuria,moyo,lima",j,f,j,j,v,j,j,j,sufuria,sufuria,moyo,moyo,220,367,115,248,0,0.0,1.0,0.0,0.0,1.0
211,3,5718a9c4dd9ef10013df01f0,fish,buli,1.0,False,0,1,1,1,0.0,0.0,0.0,0.0,4848.0,7091.0,7214.0,2897.0,2410.5,3004.89999999851,2535.9000000059605,2160.699999988079,"bala,baho,buli,imani","bala,buli,baho,imani","bala,baho,buli,imani","bala,buli,baho,imani",j,v,j,v,n,v,j,v,imani,buli,buli,buli,270,457,25,304,1,0.0,1.0,1.0,1.0,1.0
212,3,5718a9c4dd9ef10013df01f0,flag,trekta,1.0,False,0,0,1,1,0.0,0.0,1.0,1.0,4371.0,7214.0,3058.0,2992.0,3876.39999999851,2790.39999999851,2305.0999999940395,2233.70000000298,"ndege,trekta,mkate,kawa","trekta,ndege,mkate,kawa","ndege,trekta,mkate,kawa","ndege,mkate,trekta,kawa",v,f,v,j,n,n,v,j,kawa,kawa,trekta,trekta,274,391,49,350,0,0.0,1.0,0.0,0.0,1.0
213,3,5718a9c4dd9ef10013df01f0,flower,bega,1.0,False,0,0,1,1,0.0,0.0,0.0,0.0,4894.0,6379.0,4384.0,6041.0,4062.5,2400.5,2242.5999999940395,2269.5,"tamasha,bega,lobo,usiku","tamasha,bega,lobo,usiku","bega,tamasha,lobo,usiku","bega,tamasha,lobo,usiku",v,v,f,f,f,f,f,f,tamasha,tamasha,bega,bega,116,532,159,206,0,0.0,1.0,0.0,0.0,1.0
214,3,5718a9c4dd9ef10013df01f0,fork,mgonjwa,1.0,False,0,0,0,0,0.0,0.0,0.0,0.0,9270.0,3600.0,7553.0,4717.0,2825.0,2205.5,2304.8999999910598,2174.70000000298,"baboy,paghago,mgonjwa,gorisi","baboy,paghago,gorisi,mgonjwa","baboy,paghago,mgonjwa,gorisi","mgonjwa,baboy,paghago,gorisi",j,n,j,f,v,v,v,j,paghago,paghago,paghago,paghago,124,541,165,290,0,0.0,1.0,0.0,0.0,0.0
215,3,5718a9c4dd9ef10013df01f0,gift,pagtawag,1.0,False,0,0,1,1,0.0,0.0,0.0,0.0,40420.0,47056.0,5474.0,4962.0,2290.5,2600.5999999996275,2595.1000000089407,2915.4000000059605,"baba,nyange,pagtawag,baso","pagtawag,baba,nyange,baso","baba,nyange,baso,pagtawag","baba,nyange,baso,pagtawag",j,f,n,n,n,n,n,n,baso,baso,pagtawag,pagtawag,238,349,35,356,0,0.0,1.0,0.0,0.0,1.0
216,3,5718a9c4dd9ef10013df01f0,giraffe,mahitabo,1.0,False,1,1,1,1,0.0,0.0,0.0,0.0,7089.0,6473.0,6515.0,2864.0,2386.4000000003725,2293.599999997765,2473.70000000298,2563.5,"daraja,mahitabo,jumatu,hangyo","mahitabo,daraja,jumatu,hangyo","daraja,jumatu,hangyo,mahitabo","daraja,mahitabo,jumatu,hangyo",v,f,n,v,v,f,n,v,mahitabo,mahitabo,mahitabo,mahitabo,224,430,109,296,1,0.0,1.0,1.0,1.0,1.0
217,3,5718a9c4dd9ef10013df01f0,hammer,napakyas,1.0,False,1,0,0,0,0.0,0.0,0.0,0.0,5088.0,7336.0,4351.0,7744.0,2289.300000000745,2957.89999999851,2227.800000011921,2163.8999999910598,"mekno,kitovu,layag,napakyas","mekno,kitovu,napakyas,layag","mekno,napakyas,kitovu,layag","mekno,kitovu,layag,napakyas",n,j,v,n,n,f,f,f,napakyas,mekno,mekno,mekno,248,538,173,326,0,0.0,1.0,0.0,0.0,0.0
218,3,5718a9c4dd9ef10013df01f0,hill,matumbo,1.0,False,1,1,1,1,0.0,0.0,0.0,0.0,10776.0,797804.0,5504.0,7029.0,2920.300000000745,6439.099999999628,2326.9000000059605,2233.0999999940395,"kushoto,kukimba,sweta,matumbo","matumbo,kushoto,kukimba,sweta","matumbo,kushoto,kukimba,sweta","kushoto,kukimba,matumbo,sweta",n,f,f,j,n,f,f,j,matumbo,matumbo,matumbo,matumbo,200,373,135,236,1,0.0,1.0,1.0,1.0,1.0
219,3,5718a9c4dd9ef10013df01f0,human,tinapay,1.0,False,1,1,1,1,0.75,1.0,0.0,1.0,2830.0,3152.0,3041.0,2666.0,2983.0999999996275,2443.199999999255,2236.0999999940395,2681.79999999702,"tinapay,bado,kikapu,punguza","bado,kikapu,punguza,tinapay","bado,kikapu,punguza,tinapay","tinapay,bado,kikapu,punguza",f,n,n,f,f,n,n,f,tinapay,tinapay,tinapay,tinapay,158,412,169,244,1,1.0,1.0,0.0,0.0,1.0
220,3,5718a9c4dd9ef10013df01f0,key,chombo,1.0,False,1,1,1,1,0.75,1.0,1.0,1.0,3276.0,3367.0,2881.0,2247.0,2716.5,2481.89999999851,2574.5,2344.0,"miaka,goma,chombo,ahos","miaka,chombo,goma,ahos","chombo,miaka,goma,ahos","miaka,goma,chombo,ahos",j,v,f,j,j,v,f,j,chombo,chombo,chombo,chombo,212,502,41,262,1,1.0,1.0,0.0,0.0,1.0
221,3,5718a9c4dd9ef10013df01f0,knee,duka,1.0,False,1,1,1,1,1.0,1.0,0.75,1.0,3825.0,2767.0,2358.0,2262.0,2364.9000000003725,7435.400000000372,2319.5,2649.20000000298,"mvuke,kubale,duka,bili","mvuke,kubale,bili,duka","mvuke,duka,kubale,bili","mvuke,kubale,bili,duka",j,n,v,n,j,n,v,n,duka,duka,duka,duka,250,358,183,288,1,1.0,1.0,0.0,0.0,1.0
222,3,5718a9c4dd9ef10013df01f0,ladder,pangalan,1.0,False,1,1,1,1,0.0,0.0,0.0,0.0,5847.0,3687.0,5645.0,3923.0,2592.9000000003725,2316.199999999255,2450.0,2519.5,"mashua,mwanga,kamba,pangalan","mashua,pangalan,mwanga,kamba","mashua,mwanga,kamba,pangalan","pangalan,mashua,mwanga,kamba",n,v,n,f,n,v,n,f,pangalan,pangalan,pangalan,pangalan,156,547,97,242,1,0.0,1.0,1.0,1.0,1.0
223,3,5718a9c4dd9ef10013df01f0,lamp,afya,1.0,False,1,0,0,0,0.0,0.0,0.0,0.75,5824.0,9256.0,2963.0,6749.0,2306.0999999996275,2474.699999999255,2296.5999999940395,3225.29999999702,"daub,bilaska,mbolea,afya","afya,daub,bilaska,mbolea","daub,afya,bilaska,mbolea","daub,afya,bilaska,mbolea",n,f,v,v,n,v,f,f,afya,daub,daub,daub,280,406,65,254,0,0.0,1.0,0.0,0.0,0.0
224,3,5718a9c4dd9ef10013df01f0,letter,kifua,1.0,False,1,1,1,0,0.0,1.0,0.0,0.0,9130.0,5423.0,26611.0,4904.0,2425.199999999255,2479.79999999702,3293.79999999702,2236.0,"filimbi,chuma,uhuru,kifua","filimbi,chuma,uhuru,kifua","filimbi,chuma,kifua,uhuru","filimbi,kifua,chuma,uhuru",n,n,j,v,n,n,j,n,kifua,kifua,kifua,uhuru,178,523,47,276,1,1,0.0,0,0,0.0
225,3,5718a9c4dd9ef10013df01f0,list,wingu,1.0,False,1,1,1,1,0.0,0.0,0.0,0.0,5740.0,3417.0,3216.0,3830.0,2334.699999999255,2609.0,2463.5,2363.79999999702,"alizeti,kuzama,kaso,wingu","wingu,alizeti,kuzama,kaso","wingu,alizeti,kuzama,kaso","alizeti,kuzama,kaso,wingu",n,f,f,n,n,f,f,n,wingu,wingu,wingu,wingu,284,571,145,234,1,0.0,1.0,1.0,1.0,1.0
226,3,5718a9c4dd9ef10013df01f0,magazine,kiti,1.0,False,1,1,1,1,0.75,1.0,1.0,1.0,9542.0,2409.0,2516.0,1756.0,2501.0999999996275,2559.5,2385.70000000298,2351.4000000059605,"gundi,mchawi,bahandi,kiti","gundi,mchawi,kiti,bahandi","kiti,gundi,mchawi,bahandi","gundi,kiti,mchawi,bahandi",n,j,f,v,n,j,f,v,kiti,kiti,kiti,kiti,150,334,33,212,1,1.0,1.0,0.0,0.0,1.0
227,3,5718a9c4dd9ef10013df01f0,marker,maji,1.0,False,0,1,0,0,0.0,0.0,0.0,0.0,3641.0,4564.0,4185.0,3275.0,3130.5999999996275,3611.10000000149,2407.6000000089407,2283.1000000089407,"mapafu,maji,salita,atay","mapafu,salita,maji,atay","mapafu,salita,atay,maji","mapafu,salita,atay,maji",v,j,n,n,j,j,v,v,salita,maji,salita,salita,256,508,99,232,1,0.0,1.0,1.0,1.0,0.0
228,3,5718a9c4dd9ef10013df01f0,mirror,sulagma,1.0,False,1,1,1,1,0.0,0.0,0.0,0.0,7905.0,6340.0,8684.0,3044.0,2821.699999999255,3007.0999999996275,2331.79999999702,2316.0,"rangi,sulagma,kanding,furaha","rangi,kanding,furaha,sulagma","sulagma,rangi,kanding,furaha","rangi,kanding,sulagma,furaha",v,n,f,j,v,n,f,j,sulagma,sulagma,sulagma,sulagma,140,328,107,226,1,0.0,1.0,1.0,1.0,1.0
229,3,5718a9c4dd9ef10013df01f0,mosquito,martilyo,1.0,False,1,1,1,1,0.75,1.0,1.0,1.0,2887.0,6779.0,1950.0,2219.0,2372.4000000003725,2341.10000000149,2619.29999999702,2623.4000000059605,"isda,taras,martilyo,gutom","martilyo,isda,taras,gutom","isda,taras,gutom,martilyo","isda,taras,gutom,martilyo",j,f,n,n,j,f,n,n,martilyo,martilyo,martilyo,martilyo,126,484,69,216,1,1.0,1.0,0.0,0.0,1.0
230,3,5718a9c4dd9ef10013df01f0,mother,babaye,1.0,False,1,1,1,1,1.0,1.0,1.0,1.0,2122.0,2156.0,2520.0,2498.0,2494.5,2360.70000000298,2505.199999988079,3429.29999999702,"kahawa,mbuzi,jokofu,babaye","kahawa,mbuzi,babaye,jokofu","kahawa,babaye,mbuzi,jokofu","kahawa,babaye,mbuzi,jokofu",n,j,v,v,n,j,v,v,babaye,babaye,babaye,babaye,208,481,51,260,1,1,0.0,0,0,1.0
231,3,5718a9c4dd9ef10013df01f0,music,baiski,1.0,False,1,1,1,1,0.0,0.75,1.0,1.0,3829.0,2893.0,2099.0,2853.0,2496.5,2310.0,2394.0,2625.199999988079,"mraba,baiski,mageho,tumbo","mraba,mageho,tumbo,baiski","mraba,mageho,baiski,tumbo","mraba,mageho,tumbo,baiski",v,n,j,n,v,n,j,n,baiski,baiski,baiski,baiski,120,499,137,354,1,0.75,1.0,0.25,0.25,1.0
232,3,5718a9c4dd9ef10013df01f0,nose,sehemu,1.0,False,1,1,1,0,0.25,1.0,0.0,0.0,4974.0,3645.0,6492.0,6921.0,2504.2999999988824,2342.79999999702,2531.5999999940395,2307.4000000059605,"gubat,sehemu,kopa,kidole","gubat,sehemu,kopa,kidole","sehemu,gubat,kopa,kidole","gubat,kopa,kidole,sehemu",v,v,f,n,v,v,f,v,sehemu,sehemu,sehemu,kopa,188,469,13,266,1,1,0.0,0,0,0.0
233,3,5718a9c4dd9ef10013df01f0,notebook,kemia,1.0,False,0,0,1,1,0.5,0.0,0.0,0.0,8328.0,5794.0,2892.0,41900.0,5372.4000000003725,4863.20000000298,2534.70000000298,2552.70000000298,"kemia,msitu,kila,mdudu","msitu,kila,mdudu,kemia","msitu,kila,mdudu,kemia","msitu,kila,mdudu,kemia",f,n,n,n,j,v,n,n,kila,kila,kemia,kemia,168,388,71,334,0,0.0,1.0,0.0,0.0,1.0
234,3,5718a9c4dd9ef10013df01f0,number,mundamo,1.0,False,1,1,1,1,1.0,0.75,1.0,1.0,2578.0,3212.0,2293.0,1943.0,2564.300000000745,16802.599999999627,3018.8999999910598,2219.0999999940395,"mundamo,shule,kengele,choori","shule,mundamo,kengele,choori","shule,kengele,mundamo,choori","shule,kengele,choori,mundamo",f,v,j,n,f,v,j,n,mundamo,mundamo,mundamo,mundamo,174,340,63,208,1,0.75,1.0,0.25,0.25,1.0
235,3,5718a9c4dd9ef10013df01f0,office,leso,1.0,False,1,1,1,1,0.0,0.0,0.75,1.0,8499.0,27788.0,4157.0,1994.0,2889.9000000003725,2183.099999997765,2358.20000000298,2631.70000000298,"leso,hazini,yatima,kuna","leso,hazini,yatima,kuna","leso,hazini,yatima,kuna","hazini,leso,yatima,kuna",f,f,f,v,f,f,f,v,leso,leso,leso,leso,142,511,61,192,1,0.0,1.0,1.0,1.0,1.0
236,3,5718a9c4dd9ef10013df01f0,olive,jiwe,1.0,False,1,0,1,1,0.0,0.0,0.0,0.0,7402.0,4519.0,6431.0,4345.0,3104.9000000003725,2447.699999999255,2375.300000011921,2396.5999999940395,"bata,jiwe,siagi,welder","bata,siagi,welder,jiwe","jiwe,bata,siagi,welder","bata,siagi,jiwe,welder",v,n,f,j,v,v,f,j,jiwe,siagi,jiwe,jiwe,148,574,83,322,0,0.0,1.0,0.0,0.0,1.0
237,3,5718a9c4dd9ef10013df01f0,page,wimbo,1.0,False,1,1,1,1,0.25,0.0,0.0,0.0,9127.0,5959.0,3108.0,3376.0,2565.5,2364.900000002235,2559.5999999940395,2220.0,"wakala,ishiri,wimbo,skina","wakala,ishiri,skina,wimbo","wakala,ishiri,wimbo,skina","wimbo,wakala,ishiri,skina",j,n,j,f,j,n,j,f,wimbo,wimbo,wimbo,wimbo,214,466,177,342,1,0.0,1.0,1.0,1.0,1.0
238,3,5718a9c4dd9ef10013df01f0,pants,haki,1.0,False,0,1,0,0,0.0,0.0,0.0,0.0,7256.0,6601.0,6282.0,5834.0,2355.7000000011176,2550.0,2546.20000000298,2297.0999999940395,"pintal,chuki,hari,haki","pintal,chuki,hari,haki","pintal,haki,chuki,hari","pintal,chuki,hari,haki",n,n,v,n,j,n,j,v,hari,haki,chuki,chuki,216,313,139,364,1,0.0,1.0,1.0,1.0,0.0
239,3,5718a9c4dd9ef10013df01f0,park,bunifu,1.0,False,1,0,1,0,0.0,0.0,0.0,0.0,4662.0,5798.0,4834.0,6453.0,4063.599999999628,2390.9000000003725,2224.4000000059605,2386.3999999910598,"tambok,bunifu,pwani,ihalas","tambok,pwani,bunifu,ihalas","tambok,pwani,bunifu,ihalas","tambok,pwani,bunifu,ihalas",v,j,j,j,v,f,j,f,bunifu,tambok,bunifu,tambok,172,364,11,318,0,0.0,1.0,0.0,0.0,0.0
240,3,5718a9c4dd9ef10013df01f0,perfume,katuyoan,1.0,False,0,1,0,0,0.0,0.0,0.0,0.0,4551.0,4232.0,6292.0,4296.0,2475.4000000003725,2249.699999999255,2516.5,2579.3999999910598,"bino,katuyoan,sungura,ndogo","bino,katuyoan,sungura,ndogo","bino,sungura,ndogo,katuyoan","katuyoan,bino,sungura,ndogo",v,v,n,f,j,v,v,j,sungura,katuyoan,sungura,sungura,146,487,129,194,1,0.0,1.0,1.0,1.0,0.0
241,3,5718a9c4dd9ef10013df01f0,picture,kubwa,1.0,False,1,1,1,1,0.0,1.0,0.0,0.0,4766.0,2586.0,4271.0,4757.0,2342.5,2399.099999997765,2222.4000000059605,2383.1000000089407,"silya,chaki,asin,kubwa","silya,chaki,kubwa,asin","kubwa,silya,chaki,asin","silya,chaki,asin,kubwa",n,j,f,n,n,j,f,n,kubwa,kubwa,kubwa,kubwa,288,577,161,188,1,1,0.0,0,0,1.0
242,3,5718a9c4dd9ef10013df01f0,poster,madungog,1.0,False,0,1,0,1,0.0,0.0,0.0,0.0,5611.0,9699.0,5245.0,3788.0,2416.60000000149,2465.0,3049.0,2250.29999999702,"nchi,fedha,kasuko,madungog","nchi,fedha,madungog,kasuko","madungog,nchi,fedha,kasuko","madungog,nchi,fedha,kasuko",n,j,f,f,j,j,n,f,kasuko,madungog,kasuko,madungog,196,496,151,324,1,0.0,1.0,1.0,1.0,0.0
243,3,5718a9c4dd9ef10013df01f0,pudding,aibu,1.0,False,1,1,1,1,0.0,0.75,0.0,0.0,6183.0,4710.0,5237.0,3369.0,2675.0999999996275,2289.800000000745,2609.0999999940395,2501.0,"aibu,abug,mpishi,iring","abug,aibu,mpishi,iring","abug,mpishi,aibu,iring","abug,mpishi,iring,aibu",f,v,j,n,f,v,j,n,aibu,aibu,aibu,aibu,242,553,89,316,1,0.75,1.0,0.25,0.25,1.0
244,3,5718a9c4dd9ef10013df01f0,puppet,mazishi,1.0,False,0,1,0,0,0.0,1.0,0.0,0.0,5231.0,1910.0,6968.0,4051.0,2758.39999999851,2312.10000000149,3254.5999999940395,2644.699999988079,"napulo,lamok,mazishi,godoro","napulo,mazishi,lamok,godoro","napulo,mazishi,lamok,godoro","napulo,lamok,godoro,mazishi",j,v,v,n,f,v,f,v,napulo,mazishi,napulo,lamok,198,493,45,278,1,1,0.0,0,0,0.0
245,3,5718a9c4dd9ef10013df01f0,rose,paghalad,1.0,False,0,0,1,1,0.0,0.0,1.0,1.0,5686.0,17423.0,3827.0,2459.0,2638.5999999996275,2500.5999999996275,2532.29999999702,2351.5,"singizi,mwanake,paghalad,amani","singizi,mwanake,amani,paghalad","paghalad,singizi,mwanake,amani","singizi,mwanake,amani,paghalad",j,n,f,n,n,v,f,n,amani,mwanake,paghalad,paghalad,278,343,59,252,0,0.0,1.0,0.0,0.0,1.0
246,3,5718a9c4dd9ef10013df01f0,salmon,sensilyo,1.0,False,1,1,1,1,1.0,1.0,1.0,1.0,2677.0,3089.0,3092.0,3478.0,2352.4000000003725,2481.10000000149,2436.29999999702,2398.29999999702,"mzungu,sensilyo,seri,baharia","mzungu,seri,baharia,sensilyo","mzungu,sensilyo,seri,baharia","sensilyo,mzungu,seri,baharia",v,n,v,f,v,n,v,f,sensilyo,sensilyo,sensilyo,sensilyo,164,400,43,196,1,1.0,1.0,0.0,0.0,1.0
247,3,5718a9c4dd9ef10013df01f0,scissors,tanuri,1.0,False,0,0,0,0,0.0,0.0,0.0,0.0,7354.0,4574.0,2134.0,1875.0,2978.10000000149,2525.599999997765,2659.20000000298,2155.5999999940395,"tanuri,duga,mtawa,suga","duga,tanuri,mtawa,suga","duga,tanuri,mtawa,suga","duga,mtawa,suga,tanuri",f,v,v,n,j,n,n,j,mtawa,suga,suga,suga,230,463,155,360,0,0.0,1.0,0.0,0.0,0.0
248,3,5718a9c4dd9ef10013df01f0,sheet,bililhon,1.0,False,1,1,1,1,1.0,1.0,1.0,1.0,3043.0,2971.0,2416.0,1550.0,2539.7000000011176,2444.79999999702,2394.70000000298,2240.5999999940395,"juuya,watu,kamantis,bililhon","juuya,bililhon,watu,kamantis","juuya,bililhon,watu,kamantis","bililhon,juuya,watu,kamantis",n,v,v,f,n,v,v,f,bililhon,bililhon,bililhon,bililhon,286,490,125,294,1,1.0,1.0,0.0,0.0,1.0
249,3,5718a9c4dd9ef10013df01f0,shelf,pamahaw,1.0,False,1,1,1,1,0.0,1.0,0.0,0.0,11152.0,1665.0,13467.0,3797.0,2358.5999999996275,2534.300000000745,2507.70000000298,2482.699999988079,"bungtod,kadaot,awit,pamahaw","pamahaw,bungtod,kadaot,awit","bungtod,pamahaw,kadaot,awit","pamahaw,bungtod,kadaot,awit",n,f,v,f,n,f,v,f,pamahaw,pamahaw,pamahaw,pamahaw,162,409,79,238,1,1,0.0,0,0,1.0
250,3,5718a9c4dd9ef10013df01f0,shoe,uyoga,1.0,False,0,0,1,1,0.0,0.0,0.0,1.0,5133.0,4547.0,3448.0,2949.0,2442.699999999255,2387.800000000745,2376.0,2344.79999999702,"nyeusi,uyoga,hatua,kama","uyoga,nyeusi,hatua,kama","nyeusi,hatua,kama,uyoga","nyeusi,uyoga,hatua,kama",v,f,n,v,j,j,n,v,hatua,hatua,uyoga,uyoga,222,514,167,218,0,0.0,1.0,0.0,0.0,1.0
251,3,5718a9c4dd9ef10013df01f0,shop,samaki,1.0,False,1,1,1,1,0.0,0.0,0.0,0.0,4266.0,5138.0,5523.0,2335.0,2479.199999999255,2361.10000000149,2584.0999999940395,2739.0,"samaki,nopya,kerida,ndezu","nopya,kerida,samaki,ndezu","samaki,nopya,kerida,ndezu","nopya,kerida,ndezu,samaki",f,j,f,n,f,j,f,n,samaki,samaki,samaki,samaki,132,529,157,284,1,0.0,1.0,1.0,1.0,1.0
252,3,5718a9c4dd9ef10013df01f0,shoulder,mkuu,1.0,False,1,1,1,1,0.75,1.0,0.25,1.0,4742.0,2541.0,3002.0,3050.0,2164.4000000003725,3051.900000002235,2776.29999999702,2476.8999999910598,"kelele,ndaniya,guruwe,mkuu","kelele,ndaniya,mkuu,guruwe","kelele,ndaniya,guruwe,mkuu","mkuu,kelele,ndaniya,guruwe",n,j,n,f,n,j,n,f,mkuu,mkuu,mkuu,mkuu,170,403,31,256,1,1.0,1.0,0.0,0.0,1.0
253,3,5718a9c4dd9ef10013df01f0,snake,pagtukod,1.0,False,1,1,1,1,0.0,0.0,0.0,0.0,5917.0,11355.0,6284.0,3809.0,2241.699999999255,2243.10000000149,3223.0,2351.70000000298,"pagtukod,jansa,karon,mvringo","jansa,pagtukod,karon,mvringo","jansa,karon,pagtukod,mvringo","jansa,karon,mvringo,pagtukod",f,v,j,n,f,v,j,n,pagtukod,pagtukod,pagtukod,pagtukod,236,382,113,348,1,0.0,1.0,1.0,1.0,1.0
254,3,5718a9c4dd9ef10013df01f0,sock,mamba,1.0,False,1,1,1,1,0.25,0.25,1.0,1.0,7061.0,2490.0,2214.0,2355.0,2465.9000000003725,2771.699999999255,2438.300000011921,2155.6000000089407,"mamba,ndoora,kimysa,mtirka","ndoora,mamba,kimysa,mtirka","ndoora,mamba,kimysa,mtirka","ndoora,kimysa,mtirka,mamba",f,v,v,n,f,v,v,n,mamba,mamba,mamba,mamba,190,505,57,258,1,0.25,1.0,0.75,0.75,1.0
255,3,5718a9c4dd9ef10013df01f0,spider,kamwe,1.0,False,1,1,1,1,0.0,0.0,1.0,1.0,5417.0,3702.0,2995.0,2547.0,2344.0,2548.39999999851,3064.5999999940395,2710.79999999702,"bunyag,mkboa,atop,kamwe","kamwe,bunyag,mkboa,atop","bunyag,kamwe,mkboa,atop","bunyag,mkboa,kamwe,atop",n,f,v,j,n,f,v,j,kamwe,kamwe,kamwe,kamwe,122,421,85,332,1,0.0,1.0,1.0,1.0,1.0
256,3,5718a9c4dd9ef10013df01f0,spoon,pagsulod,1.0,False,0,0,0,0,0.0,0.0,0.0,0.0,4060.0,8959.0,6974.0,8036.0,2903.0,2215.900000002235,2220.199999988079,3290.0999999940395,"betri,nzuri,ngazi,pagsulod","betri,nzuri,ngazi,pagsulod","betri,pagsulod,nzuri,ngazi","betri,nzuri,ngazi,pagsulod",n,n,v,n,j,j,n,j,ngazi,ngazi,ngazi,ngazi,254,460,163,230,0,0.0,1.0,0.0,0.0,0.0
257,3,5718a9c4dd9ef10013df01f0,squirrel,hofu,1.0,False,1,1,1,1,0.75,0.0,0.0,0.75,5554.0,4576.0,5605.0,2583.0,3026.0,2520.300000000745,2571.70000000298,2886.3999999910598,"mahugaw,ukweli,hofu,kichwa","mahugaw,hofu,ukweli,kichwa","mahugaw,ukweli,hofu,kichwa","hofu,mahugaw,ukweli,kichwa",j,v,j,f,j,v,j,f,hofu,hofu,hofu,hofu,186,394,39,264,1,0.0,1.0,1.0,1.0,1.0
258,3,5718a9c4dd9ef10013df01f0,stone,wingi,1.0,False,0,1,1,1,0.0,0.0,0.0,0.0,3448.0,4649.0,8037.0,2656.0,2495.0999999996275,2414.699999999255,2512.79999999702,2311.5999999940395,"ulimwengu,wingi,mkasi,asili","ulimwengu,mkasi,asili,wingi","ulimwengu,mkasi,wingi,asili","ulimwengu,wingi,mkasi,asili",v,n,j,v,j,n,j,v,mkasi,wingi,wingi,wingi,246,442,55,220,1,0.0,1.0,1.0,1.0,1.0
259,3,5718a9c4dd9ef10013df01f0,sun,basi,1.0,False,1,1,1,1,1.0,1.0,0.0,0.75,2841.0,2414.0,3671.0,2889.0,2322.300000000745,2388.300000000745,2699.5,2872.5,"bendi,luha,uongo,basi","basi,bendi,luha,uongo","bendi,luha,uongo,basi","bendi,luha,basi,uongo",n,f,n,j,n,f,n,j,basi,basi,basi,basi,218,544,5,286,1,1,0.0,0,0,1.0
260,3,5718a9c4dd9ef10013df01f0,tissue,ugomvi,1.0,False,0,0,0,0,0.0,0.0,0.0,0.0,6020.0,5866.0,6662.0,3982.0,2356.0,2444.29999999702,2283.1000000089407,2381.29999999702,"ugomvi,lamigas,kisiwa,katika","lamigas,kisiwa,katika,ugomvi","ugomvi,lamigas,kisiwa,katika","lamigas,ugomvi,kisiwa,katika",f,n,f,v,j,v,j,j,kisiwa,kisiwa,kisiwa,kisiwa,260,562,111,246,0,0.0,1.0,0.0,0.0,0.0
261,3,5718a9c4dd9ef10013df01f0,tomato,mvua,1.0,False,1,1,0,0,0.0,1.0,0.0,0.0,9307.0,1497.0,5482.0,2448.0,2503.5,2411.300000000745,2580.5999999940395,2374.3999999910598,"chupi,chupa,mvua,takatak","mvua,chupi,chupa,takatak","mvua,chupi,chupa,takatak","mvua,chupi,chupa,takatak",j,f,f,f,j,f,n,n,mvua,mvua,takatak,takatak,244,568,101,222,1,1,0.0,0,0,0.0
262,3,5718a9c4dd9ef10013df01f0,tooth,kabalaka,1.0,False,0,0,1,1,0.0,0.0,0.0,0.0,4738.0,7055.0,12409.0,2603.0,2530.5999999996275,3029.60000000149,2347.79999999702,2581.1000000089407,"kabalaka,kijiko,uadui,pahiyum","kijiko,uadui,pahiyum,kabalaka","kijiko,uadui,pahiyum,kabalaka","kabalaka,kijiko,uadui,pahiyum",f,n,n,f,j,v,n,f,uadui,uadui,kabalaka,kabalaka,202,385,133,282,0,0.0,1.0,0.0,0.0,1.0
263,3,5718a9c4dd9ef10013df01f0,towel,pagpalit,1.0,False,1,1,1,1,0.25,0.0,1.0,1.0,13433.0,4182.0,3589.0,2165.0,2206.9000000003725,2429.900000002235,3367.6000000089407,2493.1000000089407,"pagpalit,tembo,funzi,pito","tembo,funzi,pagpalit,pito","tembo,funzi,pito,pagpalit","tembo,funzi,pito,pagpalit",f,j,n,n,f,j,n,n,pagpalit,pagpalit,pagpalit,pagpalit,290,415,91,314,1,0.0,1.0,1.0,1.0,1.0
264,3,5718a9c4dd9ef10013df01f0,train,sayari,1.0,False,0,0,1,1,0.0,0.0,0.75,0.75,12091.0,7314.0,2674.0,2763.0,2583.0999999996275,2445.400000002235,2155.0,2499.0,"itik,sayari,dakika,mungu","sayari,itik,dakika,mungu","itik,dakika,mungu,sayari","itik,dakika,mungu,sayari",v,f,n,n,n,n,n,n,mungu,mungu,sayari,sayari,240,376,117,328,0,0.0,1.0,0.0,0.0,1.0
265,3,5718a9c4dd9ef10013df01f0,triangle,kasadpan,1.0,False,1,1,0,0,0.0,0.0,0.0,0.0,5467.0,9275.0,11805.0,2309.0,2652.0999999996275,2256.0,3190.699999988079,2245.70000000298,"kihozi,bentaha,liog,kasadpan","kasadpan,kihozi,bentaha,liog","kihozi,bentaha,kasadpan,liog","kihozi,bentaha,liog,kasadpan",n,f,j,n,n,f,n,j,kasadpan,kasadpan,liog,liog,266,319,179,366,1,0.0,1.0,1.0,1.0,0.0
266,3,5718a9c4dd9ef10013df01f0,wheel,bafuni,1.0,False,1,1,1,1,0.0,1.0,0.0,0.0,8866.0,2548.0,8937.0,5293.0,2719.39999999851,3566.9000000003725,2634.5,2147.4000000059605,"punda,tawo,bafuni,baadaye","punda,tawo,baadaye,bafuni","bafuni,punda,tawo,baadaye","bafuni,punda,tawo,baadaye",j,n,f,f,j,n,f,f,bafuni,bafuni,bafuni,bafuni,206,355,95,200,1,1,0.0,0,0,1.0
267,3,5718a9c4dd9ef10013df01f0,window,kweli,1.0,False,0,0,0,0,0.0,0.0,0.0,0.0,11389.0,10002.0,5854.0,8163.0,2401.800000000745,2364.10000000149,2905.29999999702,2249.79999999702,"nanga,kweli,kujenga,umaga","nanga,kujenga,kweli,umaga","nanga,kujenga,kweli,umaga","kweli,nanga,kujenga,umaga",v,j,j,f,f,n,n,v,nanga,umaga,umaga,nanga,292,424,15,346,0,0.0,1.0,0.0,0.0,0.0
268,3,5718a9c4dd9ef10013df01f0,wolf,lugha,1.0,False,1,1,1,1,1.0,1.0,1.0,1.0,2818.0,2415.0,3129.0,1795.0,2564.5,2444.89999999851,2616.20000000298,2234.20000000298,"lugha,kaburi,ndizi,mchuzi","kaburi,lugha,ndizi,mchuzi","kaburi,lugha,ndizi,mchuzi","kaburi,lugha,ndizi,mchuzi",f,v,v,v,f,v,v,v,lugha,lugha,lugha,lugha,184,379,149,292,1,1.0,1.0,0.0,0.0,1.0
269,3,5718a9c4dd9ef10013df01f0,woman,pagtabon,1.0,False,1,1,1,1,0.0,1.0,0.0,0.0,7539.0,2074.0,6955.0,3617.0,2387.0999999996275,2307.900000002235,2518.5,3257.0,"pagtabon,bandari,bituin,kovuli","bandari,bituin,pagtabon,kovuli","pagtabon,bandari,bituin,kovuli","bandari,bituin,kovuli,pagtabon",f,j,f,n,f,j,f,n,pagtabon,pagtabon,pagtabon,pagtabon,204,427,19,308,1,1,0.0,0,0,1.0
270,4,5744bbe15e549100063b08cb,apple,kisu,1.0,False,0,1,1,1,0.25,1.0,1.0,1.0,2791.0,2358.0,2332.0,1597.0,1591.199999999255,2254.7000000011176,2396.9000000003725,3895.200000000186,"ukame,kisu,estante,edad","ukame,estante,edad,kisu","ukame,estante,edad,kisu","ukame,estante,kisu,edad",v,n,n,j,j,n,n,j,estante,kisu,kisu,kisu,176,352,73,280,1,1,0.0,0,0,1.0
271,4,5744bbe15e549100063b08cb,banana,kazi,1.0,False,1,1,1,1,0.75,1.0,0.0,0.25,2031.0,2752.0,2367.0,2393.0,1614.5,1846.800000000745,4312.099999999628,2123.600000000559,"kasamok,hagdan,twai,kazi","kasamok,hagdan,twai,kazi","kasamok,hagdan,twai,kazi","kasamok,hagdan,kazi,twai",n,n,n,j,n,n,n,j,kazi,kazi,kazi,kazi,128,550,127,210,1,1,0.0,0,0,1.0
272,4,5744bbe15e549100063b08cb,bank,silingan,1.0,False,0,1,1,1,0.5,0.75,0.75,0.75,3023.0,2775.0,2361.0,1644.0,1999.0999999996277,1630.699999999255,2164.0,4209.099999999628,"kudhibi,tualya,silingan,ofisi","kudhibi,tualya,ofisi,silingan","kudhibi,tualya,silingan,ofisi","kudhibi,tualya,ofisi,silingan",j,n,j,n,v,n,j,n,tualya,silingan,silingan,silingan,192,520,131,270,1,0.75,1.0,0.25,0.25,1.0
273,4,5744bbe15e549100063b08cb,basket,kumba,1.0,False,1,1,1,1,0.75,1.0,0.75,0.5,4167.0,2753.0,3353.0,1778.0,2063.0,1494.800000000745,2879.0,3390.699999999255,"kumbuka,utepe,hasira,kumba","kumbuka,utepe,hasira,kumba","kumbuka,utepe,kumba,hasira","kumbuka,utepe,hasira,kumba",n,n,j,n,n,n,j,n,kumba,kumba,kumba,kumba,234,361,7,340,1,1,0.0,0,0,1.0
274,4,5744bbe15e549100063b08cb,bed,mapintas,1.0,False,0,1,1,1,0.25,0.75,1.0,1.0,2519.0,3158.0,2465.0,1711.0,3358.7999999988824,1438.800000000745,3379.399999999441,2248.7999999998137,"kalipay,haraka,starehe,mapintas","mapintas,kalipay,haraka,starehe","kalipay,mapintas,haraka,starehe","kalipay,haraka,starehe,mapintas",n,f,v,n,v,f,v,n,haraka,mapintas,mapintas,mapintas,210,559,21,352,1,0.75,1.0,0.25,0.25,1.0
275,4,5744bbe15e549100063b08cb,berry,kofia,1.0,False,0,1,0,0,0.75,1.0,0.25,0.75,3775.0,4493.0,2487.0,1728.0,1775.0,1918.9000000003723,2337.7999999998137,2445.7000000001863,"abogado,nogozi,kofia,kinywa","abogado,kofia,nogozi,kinywa","kofia,abogado,nogozi,kinywa","abogado,kofia,nogozi,kinywa",j,v,f,v,v,v,j,j,nogozi,kofia,nogozi,nogozi,264,478,181,312,1,1,0.0,0,0,0.0
276,4,5744bbe15e549100063b08cb,boat,agalon,1.0,False,0,1,1,1,0.75,0.75,0.75,0.75,1879.0,2549.0,3855.0,2756.0,1583.0,1454.9000000003723,3497.9000000003725,2955.5,"agalon,hamsi,pombe,kitanda","hamsi,pombe,agalon,kitanda","hamsi,pombe,kitanda,agalon","hamsi,pombe,kitanda,agalon",f,j,n,n,n,j,n,n,kitanda,agalon,agalon,agalon,276,370,27,274,1,0.75,1.0,0.25,0.25,1.0
277,4,5744bbe15e549100063b08cb,body,tindashan,1.0,False,1,1,1,1,0.5,0.75,0.75,1.0,3183.0,3627.0,3379.0,1814.0,2782.9000000003725,1462.9000000003723,2151.5,2483.7000000001863,"nyundu,jibini,tindashan,kununa","nyundu,jibini,kununa,tindashan","tindashan,nyundu,jibini,kununa","nyundu,jibini,kununa,tindashan",j,n,f,n,j,n,f,n,tindashan,tindashan,tindashan,tindashan,144,556,175,320,1,0.75,1.0,0.25,0.25,1.0
278,4,5744bbe15e549100063b08cb,bonfire,goti,1.0,False,1,1,1,1,0.75,1.0,1.0,1.0,3958.0,2221.0,2333.0,1595.0,14582.5,2158.89999999851,2691.0,1977.3999999994408,"goti,mwezi,mfuko,kusanya","mwezi,mfuko,kusanya,goti","mwezi,goti,mfuko,kusanya","mwezi,goti,mfuko,kusanya",f,n,v,v,f,n,v,v,goti,goti,goti,goti,114,451,105,358,1,1.0,1.0,0.0,0.0,1.0
279,4,5744bbe15e549100063b08cb,book,mali,1.0,False,1,1,1,1,1.0,1.0,1.0,1.0,2447.0,4680.0,2585.0,1608.0,1814.300000000745,2214.5999999996275,2509.5,3419.2000000001863,"kuhesa,picha,mara,mali","mali,kuhesa,picha,mara","mali,kuhesa,picha,mara","kuhesa,picha,mali,mara",n,f,f,j,n,f,f,j,mali,mali,mali,mali,138,454,121,268,1,1.0,1.0,0.0,0.0,1.0
