"rt","en_word","options","swa_word","correct_answer","phase","trial_type","trial_index","input_answer","input_word","accuracy","certainty","amt_choices"
"2698","bonfire","mwezi,goti,mfuko,kusanya","goti","v","2","html-keyboard-response","106","v","goti","true","",""
"2558.5","","","","","2","html-slider-response","107","","","","5",""
"3067","flower","bega,tamasha,lobo,usiku","bega","f","2","html-keyboard-response","108","f","bega","true","",""
"2308.9000000059605","","","","","2","html-slider-response","109","","","","5",""
"3089","column","pundok,ufagio,dila,pala","ufagio","v","2","html-keyboard-response","110","v","ufagio","true","",""
"1990.8999999761581","","","","","2","html-slider-response","111","","","","5",""
"9914","music","mraba,mageho,baiski,tumbo","baiski","j","2","html-keyboard-response","112","f","mraba","false","",""
"1937.300000011921","","","","","2","html-slider-response","113","","","","2",""
"2504","spider","bunyag,mkboa,atop,kamwe","kamwe","n","2","html-keyboard-response","114","n","kamwe","true","",""
"1727.699999988079","","","","","2","html-slider-response","115","","","","5",""
"7808","fork","baboy,mgonjwa,paghago,gorisi","mgonjwa","v","2","html-keyboard-response","116","j","paghago","false","",""
"6324.5","","","","","2","html-slider-response","117","","","","3",""
"2901","mosquito","isda,taras,martilyo,gutom","martilyo","j","2","html-keyboard-response","118","j","martilyo","true","",""
"1754.300000011921","","","","","2","html-slider-response","119","","","","5",""
"3865","banana","kasamok,kazi,hagdan,twai","kazi","v","2","html-keyboard-response","120","v","kazi","true","",""
"1694.199999988079","","","","","2","html-slider-response","121","","","","4",""
"12522","cup","dagat,matumai,shimoni,jeraha","matumai","v","2","html-keyboard-response","122","v","matumai","true","",""
"3565.2999999821186","","","","","2","html-slider-response","123","","","","2",""
"3246","shop","nopya,samaki,kerida,ndezu","samaki","v","2","html-keyboard-response","124","v","samaki","true","",""
"2189.399999976158","","","","","2","html-slider-response","125","","","","5",""
"2143","elephant","kito,petye,pagduol,suka","kito","f","2","html-keyboard-response","126","f","kito","true","",""
"2038.699999988079","","","","","2","html-slider-response","127","","","","5",""
"14008","bucket","kiatu,baga,ijayo,init","kiatu","f","2","html-keyboard-response","128","v","baga","false","",""
"4218","","","","","2","html-slider-response","129","","","","3",""
"1966","book","kuhesa,mali,picha,mara","mali","v","2","html-keyboard-response","130","v","mali","true","",""
"2348.4000000059605","","","","","2","html-slider-response","131","","","","5",""
"7226","mirror","rangi,sulagma,kanding,furaha","sulagma","v","2","html-keyboard-response","132","v","sulagma","true","",""
"1789.5","","","","","2","html-slider-response","133","","","","2",""
"3663","office","hazini,yatima,kuna,leso","leso","n","2","html-keyboard-response","134","n","leso","true","",""
"2185.699999988079","","","","","2","html-slider-response","135","","","","5",""
"10847","body","nyundu,jibini,tindashan,kununa","tindashan","j","2","html-keyboard-response","136","j","tindashan","true","",""
"1678.2000000178814","","","","","2","html-slider-response","137","","","","5",""
"6209","perfume","bino,sungura,katuyoan,ndogo","katuyoan","j","2","html-keyboard-response","138","j","katuyoan","true","",""
"1959.4000000059605","","","","","2","html-slider-response","139","","","","2",""
"2347","olive","bata,jiwe,siagi,welder","jiwe","v","2","html-keyboard-response","140","v","jiwe","true","",""
"1890.8999999761581","","","","","2","html-slider-response","141","","","","5",""
"4972","magazine","gundi,kiti,mchawi,bahandi","kiti","v","2","html-keyboard-response","142","v","kiti","true","",""
"3200.5","","","","","2","html-slider-response","143","","","","3",""
"4933","bread","kaili,dizeli,dari,bugas","dari","j","2","html-keyboard-response","144","f","kaili","false","",""
"2257.199999988079","","","","","2","html-slider-response","145","","","","1",""
"3553","cave","kesho,ganti,maisha,nyundo","kesho","f","2","html-keyboard-response","146","v","ganti","false","",""
"1532.5","","","","","2","html-slider-response","147","","","","1",""
"7983","ladder","mashua,mwanga,pangalan,kamba","pangalan","j","2","html-keyboard-response","148","j","pangalan","true","",""
"1573.4000000059605","","","","","2","html-slider-response","149","","","","1",""
"4775","human","tinapay,bado,kikapu,punguza","tinapay","f","2","html-keyboard-response","150","j","kikapu","false","",""
"1677.199999988079","","","","","2","html-slider-response","151","","","","2",""
"2891","clock","mbwa,kartasi,abang,osha","mbwa","f","2","html-keyboard-response","152","f","mbwa","true","",""
"2536.2999999821186","","","","","2","html-slider-response","153","","","","5",""
"6419","shelf","bungtod,pamahaw,kadaot,awit","pamahaw","v","2","html-keyboard-response","154","v","pamahaw","true","",""
"2536.600000023842","","","","","2","html-slider-response","155","","","","1",""
"5316","salmon","mzungu,sensilyo,seri,baharia","sensilyo","v","2","html-keyboard-response","156","v","sensilyo","true","",""
"2374.699999988079","","","","","2","html-slider-response","157","","","","1",""
"2802","coffin","barua,tubag,hulma,kioo","kioo","n","2","html-keyboard-response","158","n","kioo","true","",""
"1828.300000011921","","","","","2","html-slider-response","159","","","","5",""
"8447","notebook","msitu,kemia,kila,mdudu","kemia","v","2","html-keyboard-response","160","f","msitu","false","",""
"2781.0999999940395","","","","","2","html-slider-response","161","","","","5",""
"31596","shoulder","kelele,mkuu,ndaniya,guruwe","mkuu","v","2","html-keyboard-response","162","f","kelele","false","",""
"7327","","","","","2","html-slider-response","163","","","","1",""
"3855","park","bunifu,tambok,pwani,ihalas","bunifu","f","2","html-keyboard-response","164","j","pwani","false","",""
"1903.199999988079","","","","","2","html-slider-response","165","","","","1",""
"2427","number","shule,kengele,choori,mundamo","mundamo","n","2","html-keyboard-response","166","n","mundamo","true","",""
"1796.0999999940395","","","","","2","html-slider-response","167","","","","5",""
"2446","apple","ukame,estante,edad,kisu","kisu","n","2","html-keyboard-response","168","n","kisu","true","",""
"2353.0999999940395","","","","","2","html-slider-response","169","","","","5",""
"4086","letter","kifua,filimbi,chuma,uhuru","kifua","f","2","html-keyboard-response","170","f","kifua","true","",""
"2199.699999988079","","","","","2","html-slider-response","171","","","","1",""
"40296","eel","ishara,kunywa,kabuang,msumari","msumari","n","2","html-keyboard-response","172","v","kunywa","false","",""
"2425.600000023842","","","","","2","html-slider-response","173","","","","1",""
"4358","cop","bustani,mechezo,jikoni,bakus","mechezo","v","2","html-keyboard-response","174","v","mechezo","true","",""
"2401.7999999821186","","","","","2","html-slider-response","175","","","","1",""
"4781","wolf","lugha,kaburi,ndizi,mchuzi","lugha","f","2","html-keyboard-response","176","j","ndizi","false","",""
"2013.2999999821186","","","","","2","html-slider-response","177","","","","1",""
"3407","squirrel","mahugaw,ukweli,hofu,kichwa","hofu","j","2","html-keyboard-response","178","j","hofu","true","",""
"1711.4000000059605","","","","","2","html-slider-response","179","","","","4",""
"3464","nose","gubat,sehemu,kopa,kidole","sehemu","v","2","html-keyboard-response","180","v","sehemu","true","",""
"2732.7999999821186","","","","","2","html-slider-response","181","","","","5",""
"5357","sock","mamba,ndoora,kimysa,mtirka","mamba","f","2","html-keyboard-response","182","v","ndoora","false","",""
"1985.6000000238419","","","","","2","html-slider-response","183","","","","1",""
"5576","bank","silingan,kudhibi,tualya,ofisi","silingan","f","2","html-keyboard-response","184","n","ofisi","false","",""
"1963","","","","","2","html-slider-response","185","","","","1",""
"3792","donkey","elfu,bloke,lalake,rombus","elfu","f","2","html-keyboard-response","186","f","elfu","true","",""
"2012","","","","","2","html-slider-response","187","","","","4",""
"6304","poster","nchi,madungog,fedha,kasuko","madungog","v","2","html-keyboard-response","188","f","nchi","false","",""
"2407.5","","","","","2","html-slider-response","189","","","","1",""
"10939","puppet","napulo,lamok,mazishi,godoro","mazishi","j","2","html-keyboard-response","190","f","napulo","false","",""
"3841.300000011921","","","","","2","html-slider-response","191","","","","2",""
"4731","hill","matumbo,kushoto,kukimba,sweta","matumbo","f","2","html-keyboard-response","192","n","sweta","false","",""
"2087.300000011921","","","","","2","html-slider-response","193","","","","1",""
"20734","tooth","kijiko,kabalaka,uadui,pahiyum","kabalaka","v","2","html-keyboard-response","194","v","kabalaka","true","",""
"1888","","","","","2","html-slider-response","195","","","","1",""
"7148","woman","bandari,bituin,kovuli,pagtabon","pagtabon","n","2","html-keyboard-response","196","j","kovuli","false","",""
"2256","","","","","2","html-slider-response","197","","","","1",""
"6181","wheel","punda,bafuni,tawo,baadaye","bafuni","v","2","html-keyboard-response","198","n","baadaye","false","",""
"1802.0999999940395","","","","","2","html-slider-response","199","","","","1",""
"5750","mother","kahawa,mbuzi,babaye,jokofu","babaye","j","2","html-keyboard-response","200","n","jokofu","false","",""
"1862","","","","","2","html-slider-response","201","","","","1",""
"3653","bed","kalipay,haraka,mapintas,starehe","mapintas","j","2","html-keyboard-response","202","f","kalipay","false","",""
"1827.699999988079","","","","","2","html-slider-response","203","","","","1",""
"5027","key","miaka,goma,ahos,chombo","chombo","n","2","html-keyboard-response","204","n","chombo","true","",""
"2790","","","","","2","html-slider-response","205","","","","1",""
"6908","page","wimbo,wakala,ishiri,skina","wimbo","f","2","html-keyboard-response","206","v","wakala","false","",""
"2135.4000000059605","","","","","2","html-slider-response","207","","","","1",""
"6146","pants","pintal,chuki,hari,haki","haki","n","2","html-keyboard-response","208","n","haki","true","",""
"2055.4000000059605","","","","","2","html-slider-response","209","","","","1",""
"3835","sun","basi,bendi,luha,uongo","basi","f","2","html-keyboard-response","210","n","uongo","false","",""
"1785.0999999940395","","","","","2","html-slider-response","211","","","","1",""
"4202","finger","simu,sufuria,lima,moyo","moyo","n","2","html-keyboard-response","212","j","lima","false","",""
"1794.2000000178814","","","","","2","html-slider-response","213","","","","1",""
"3785","shoe","nyeusi,hatua,kama,uyoga","uyoga","n","2","html-keyboard-response","214","n","uyoga","true","",""
"2338.7000000178814","","","","","2","html-slider-response","215","","","","1",""
"17304","giraffe","daraja,jumatu,hangyo,mahitabo","mahitabo","n","2","html-keyboard-response","216","f","daraja","false","",""
"2358.7999999821186","","","","","2","html-slider-response","217","","","","1",""
"4244","dog","lubi,washia,bahari,kalamu","bahari","j","2","html-keyboard-response","218","n","kalamu","false","",""
"1877.699999988079","","","","","2","html-slider-response","219","","","","1",""
"11046","box","kuacha,rafiki,adui,kitande","adui","j","2","html-keyboard-response","220","f","kuacha","false","",""
"1859.300000011921","","","","","2","html-slider-response","221","","","","1",""
"9519","scissors","duga,mtawa,suga,tanuri","tanuri","n","2","html-keyboard-response","222","v","mtawa","false","",""
"1880.5","","","","","2","html-slider-response","223","","","","1",""
"4411","cat","neyemba,paghukom,baki,akili","paghukom","v","2","html-keyboard-response","224","j","baki","false","",""
"2384.4000000059605","","","","","2","html-slider-response","225","","","","1",""
"3435","basket","kumbuka,utepe,kumba,hasira","kumba","j","2","html-keyboard-response","226","n","hasira","false","",""
"2490.5","","","","","2","html-slider-response","227","","","","1",""
"4134","snake","jansa,karon,pagtukod,mvringo","pagtukod","j","2","html-keyboard-response","228","j","pagtukod","true","",""
"2248.9000000059605","","","","","2","html-slider-response","229","","","","1",""
"2124","gift","baba,nyange,baso,pagtawag","pagtawag","n","2","html-keyboard-response","230","n","pagtawag","true","",""
"2526","","","","","2","html-slider-response","231","","","","1",""
"2979","train","itik,dakika,sayari,mungu","sayari","j","2","html-keyboard-response","232","j","sayari","true","",""
"2211.4000000059605","","","","","2","html-slider-response","233","","","","4",""
"5566","pudding","abug,mpishi,iring,aibu","aibu","n","2","html-keyboard-response","234","n","aibu","true","",""
"2795.699999988079","","","","","2","html-slider-response","235","","","","2",""
"4400","tomato","chupi,chupa,mvua,takatak","mvua","j","2","html-keyboard-response","236","j","mvua","true","",""
"2389.9000000059605","","","","","2","html-slider-response","237","","","","5",""
"5441","stone","ulimwengu,mkasi,wingi,asili","wingi","j","2","html-keyboard-response","238","v","mkasi","false","",""
"3878.4000000059605","","","","","2","html-slider-response","239","","","","3",""
"2994","hammer","mekno,kitovu,napakyas,layag","napakyas","j","2","html-keyboard-response","240","j","napakyas","true","",""
"2959.2000000178814","","","","","2","html-slider-response","241","","","","5",""
"4581","knee","mvuke,kubale,duka,bili","duka","j","2","html-keyboard-response","242","f","mvuke","false","",""
"1760","","","","","2","html-slider-response","243","","","","4",""
"7586","ceiling","kugita,kawaida,rayna,maua","maua","n","2","html-keyboard-response","244","f","kugita","false","",""
"2146.2000000178814","","","","","2","html-slider-response","245","","","","1",""
"11432","spoon","betri,nzuri,ngazi,pagsulod","pagsulod","n","2","html-keyboard-response","246","v","nzuri","false","",""
"2200.5999999940395","","","","","2","html-slider-response","247","","","","1",""
"5315","marker","maji,mapafu,salita,atay","maji","f","2","html-keyboard-response","248","f","maji","true","",""
"2293.5","","","","","2","html-slider-response","249","","","","5",""
"27997","candle","gabi,farasi,geza,kupanda","geza","j","2","html-keyboard-response","250","j","geza","true","",""
"2991.300000011921","","","","","2","html-slider-response","251","","","","5",""
"4296","tissue","lamigas,ugomvi,kisiwa,katika","ugomvi","v","2","html-keyboard-response","252","j","kisiwa","false","",""
"2096.5","","","","","2","html-slider-response","253","","","","1",""
"4742","bridge","daima,ngono,sahani,panya","sahani","j","2","html-keyboard-response","254","j","sahani","true","",""
"1636","","","","","2","html-slider-response","255","","","","5",""
"5896","berry","abogado,kofia,nogozi,kinywa","kofia","v","2","html-keyboard-response","256","v","kofia","true","",""
"2074.7999999821186","","","","","2","html-slider-response","257","","","","2",""
"6759","triangle","kihozi,kasadpan,bentaha,liog","kasadpan","v","2","html-keyboard-response","258","f","kihozi","false","",""
"2074.199999988079","","","","","2","html-slider-response","259","","","","1",""
"4162","door","tena,surali,soko,nyota","surali","v","2","html-keyboard-response","260","j","soko","false","",""
"1774.300000011921","","","","","2","html-slider-response","261","","","","1",""
"4863","fish","bala,baho,imani,buli","buli","n","2","html-keyboard-response","262","n","buli","true","",""
"1773.0999999940395","","","","","2","html-slider-response","263","","","","1",""
"6280","curtain","lisud,bulwawan,mchanga,chubani","mchanga","j","2","html-keyboard-response","264","n","chubani","false","",""
"2734","","","","","2","html-slider-response","265","","","","1",""
"6159","flag","ndege,trekta,mkate,kawa","trekta","v","2","html-keyboard-response","266","v","trekta","true","",""
"2047.0999999940395","","","","","2","html-slider-response","267","","","","1",""
"37576","boat","hamsi,pombe,kitanda,agalon","agalon","n","2","html-keyboard-response","268","v","pombe","false","",""
"1885.5","","","","","2","html-slider-response","269","","","","2",""
"4037","rose","singizi,mwanake,paghalad,amani","paghalad","j","2","html-keyboard-response","270","j","paghalad","true","",""
"1631.4000000059605","","","","","2","html-slider-response","271","","","","1",""
"3378","lamp","daub,bilaska,afya,mbolea","afya","j","2","html-keyboard-response","272","j","afya","true","",""
"1760.5","","","","","2","html-slider-response","273","","","","1",""
"3184","cigar","ndugu,kuta,adhabu,mlango","adhabu","j","2","html-keyboard-response","274","v","kuta","false","",""
"1859.0999999940395","","","","","2","html-slider-response","275","","","","1",""
"2538","list","wingu,alizeti,kuzama,kaso","wingu","f","2","html-keyboard-response","276","f","wingu","true","",""
"1970.5999999940395","","","","","2","html-slider-response","277","","","","5",""
"3414","sheet","juuya,watu,bililhon,kamantis","bililhon","j","2","html-keyboard-response","278","j","bililhon","true","",""
"2121.5","","","","","2","html-slider-response","279","","","","1",""
"3064","picture","kubwa,silya,chaki,asin","kubwa","f","2","html-keyboard-response","280","n","asin","false","",""
"1681.0999999940395","","","","","2","html-slider-response","281","","","","1",""
"6752","towel","pagpalit,tembo,funzi,pito","pagpalit","f","2","html-keyboard-response","282","n","pito","false","",""
"2051.399999976158","","","","","2","html-slider-response","283","","","","1",""
"3979","window","nanga,kujenga,umaga,kweli","kweli","n","2","html-keyboard-response","284","f","nanga","false","",""
"2086.0999999940395","","","","","2","html-slider-response","285","","","","1",""
"3678","box","kuacha,adui,rafiki,kitande","adui","v","3","html-keyboard-response","293","v","adui","true","","4"
"3164.2000000178814","","","","","3","html-slider-response","294","","","","1",""
"2854","","","","","3","html-keyboard-response","295","","","","",""
"4993","pants","haki,pintal,chuki,hari","haki","f","3","html-keyboard-response","296","j","chuki","false","","4"
"1603.3999999761581","","","","","3","html-slider-response","297","","","","2",""
"341","","","","","3","html-keyboard-response","298","","","","",""
"6987","cup","dagat,shimoni,matumai,jeraha","matumai","j","3","html-keyboard-response","299","j","matumai","true","","4"
"1368.300000011921","","","","","3","html-slider-response","300","","","","1",""
"1473","","","","","3","html-keyboard-response","301","","","","",""
"2120","triangle","kasadpan,kihozi,bentaha,liog","kasadpan","f","3","html-keyboard-response","302","v","kihozi","false","","4"
"1560.7999999821186","","","","","3","html-slider-response","303","","","","4",""
"1087","","","","","3","html-keyboard-response","304","","","","",""
"3494","curtain","lisud,mchanga,bulwawan,chubani","mchanga","v","3","html-keyboard-response","305","v","mchanga","true","","4"
"1175.0999999940395","","","","","3","html-slider-response","306","","","","1",""
"901","","","","","3","html-keyboard-response","307","","","","",""
"2559","clock","kartasi,abang,mbwa,osha","mbwa","j","3","html-keyboard-response","308","j","mbwa","true","","4"
"1847.300000011921","","","","","3","html-slider-response","309","","","","5",""
"763","","","","","3","html-keyboard-response","310","","","","",""
"4111","mirror","rangi,kanding,sulagma,furaha","sulagma","j","3","html-keyboard-response","311","j","sulagma","true","","4"
"1332.5999999940395","","","","","3","html-slider-response","312","","","","5",""
"452","","","","","3","html-keyboard-response","313","","","","",""
"4952","coffin","barua,tubag,kioo,hulma","kioo","j","3","html-keyboard-response","314","j","kioo","true","","1"
"1755.4000000059605","","","","","3","html-slider-response","315","","","","5",""
"834","","","","","3","html-keyboard-response","316","","","","",""
"2099","magazine","gundi,kiti,mchawi,bahandi","kiti","v","3","html-keyboard-response","317","v","kiti","true","","4"
"1006.3000000119209","","","","","3","html-slider-response","318","","","","2",""
"551","","","","","3","html-keyboard-response","319","","","","",""
"2437","column","pundok,dila,pala,ufagio","ufagio","n","3","html-keyboard-response","320","n","ufagio","true","","1"
"1381.7000000178814","","","","","3","html-slider-response","321","","","","5",""
"666","","","","","3","html-keyboard-response","322","","","","",""
"2864","number","mundamo,shule,kengele,choori","mundamo","f","3","html-keyboard-response","323","f","mundamo","true","","4"
"899.7000000178814","","","","","3","html-slider-response","324","","","","5",""
"483","","","","","3","html-keyboard-response","325","","","","",""
"4363","rose","singizi,mwanake,amani,paghalad","paghalad","n","3","html-keyboard-response","326","v","mwanake","false","","4"
"1481.5999999940395","","","","","3","html-slider-response","327","","","","1",""
"490","","","","","3","html-keyboard-response","328","","","","",""
"3974","eel","ishara,kunywa,kabuang,msumari","msumari","n","3","html-keyboard-response","329","v","kunywa","false","","4"
"1090.5","","","","","3","html-slider-response","330","","","","1",""
"1368","","","","","3","html-keyboard-response","331","","","","",""
"2646","gift","baba,nyange,pagtawag,baso","pagtawag","j","3","html-keyboard-response","332","n","baso","false","","4"
"2175.5","","","","","3","html-slider-response","333","","","","1",""
"707","","","","","3","html-keyboard-response","334","","","","",""
"2227","apple","ukame,estante,kisu,edad","kisu","j","3","html-keyboard-response","335","j","kisu","true","","1"
"1466.6000000238419","","","","","3","html-slider-response","336","","","","5",""
"328","","","","","3","html-keyboard-response","337","","","","",""
"2124","wheel","punda,tawo,bafuni,baadaye","bafuni","j","3","html-keyboard-response","338","j","bafuni","true","","1"
"2648.699999988079","","","","","3","html-slider-response","339","","","","3",""
"1018","","","","","3","html-keyboard-response","340","","","","",""
"3633","knee","mvuke,duka,kubale,bili","duka","v","3","html-keyboard-response","341","f","mvuke","false","","4"
"1788","","","","","3","html-slider-response","342","","","","2",""
"967","","","","","3","html-keyboard-response","343","","","","",""
"4678","basket","kumbuka,utepe,kumba,hasira","kumba","j","3","html-keyboard-response","344","j","kumba","true","","1"
"2245.5","","","","","3","html-slider-response","345","","","","2",""
"1616","","","","","3","html-keyboard-response","346","","","","",""
"5184","park","tambok,pwani,bunifu,ihalas","bunifu","j","3","html-keyboard-response","347","j","bunifu","true","","4"
"1281.9000000059605","","","","","3","html-slider-response","348","","","","1",""
"866","","","","","3","html-keyboard-response","349","","","","",""
"2997","finger","moyo,simu,sufuria,lima","moyo","f","3","html-keyboard-response","350","n","lima","false","","4"
"1568.2999999821186","","","","","3","html-slider-response","351","","","","1",""
"449","","","","","3","html-keyboard-response","352","","","","",""
"4818","boat","hamsi,agalon,pombe,kitanda","agalon","v","3","html-keyboard-response","353","f","hamsi","false","","4"
"1081.5","","","","","3","html-slider-response","354","","","","1",""
"537","","","","","3","html-keyboard-response","355","","","","",""
"2349","hill","matumbo,kushoto,kukimba,sweta","matumbo","f","3","html-keyboard-response","356","n","sweta","false","","4"
"1023.9000000059605","","","","","3","html-slider-response","357","","","","1",""
"454","","","","","3","html-keyboard-response","358","","","","",""
"3118","train","itik,sayari,dakika,mungu","sayari","v","3","html-keyboard-response","359","v","sayari","true","","4"
"1633.699999988079","","","","","3","html-slider-response","360","","","","5",""
"399","","","","","3","html-keyboard-response","361","","","","",""
"2799","wolf","kaburi,ndizi,mchuzi,lugha","lugha","n","3","html-keyboard-response","362","n","lugha","true","","4"
"1253.699999988079","","","","","3","html-slider-response","363","","","","1",""
"636","","","","","3","html-keyboard-response","364","","","","",""
"6439","snake","jansa,karon,mvringo,pagtukod","pagtukod","n","3","html-keyboard-response","365","v","karon","false","","4"
"1472.5","","","","","3","html-slider-response","366","","","","4",""
"1301","","","","","3","html-keyboard-response","367","","","","",""
"3323","tooth","kijiko,kabalaka,uadui,pahiyum","kabalaka","v","3","html-keyboard-response","368","f","kijiko","false","","4"
"1098.0999999940395","","","","","3","html-slider-response","369","","","","2",""
"982","","","","","3","html-keyboard-response","370","","","","",""
"9543","notebook","kemia,msitu,kila,mdudu","kemia","f","3","html-keyboard-response","371","n","mdudu","false","","4"
"1479.4000000059605","","","","","3","html-slider-response","372","","","","1",""
"1569","","","","","3","html-keyboard-response","373","","","","",""
"5307","flag","ndege,mkate,trekta,kawa","trekta","j","3","html-keyboard-response","374","j","trekta","true","","4"
"1326.5","","","","","3","html-slider-response","375","","","","4",""
"1282","","","","","3","html-keyboard-response","376","","","","",""
"3192","squirrel","hofu,mahugaw,ukweli,kichwa","hofu","f","3","html-keyboard-response","377","f","hofu","true","","4"
"1841.800000011921","","","","","3","html-slider-response","378","","","","5",""
"1402","","","","","3","html-keyboard-response","379","","","","",""
"4231","door","tena,soko,nyota,surali","surali","n","3","html-keyboard-response","380","j","nyota","false","","4"
"1326.7999999821186","","","","","3","html-slider-response","381","","","","1",""
"1478","","","","","3","html-keyboard-response","382","","","","",""
"9481","salmon","mzungu,seri,sensilyo,baharia","sensilyo","j","3","html-keyboard-response","383","f","mzungu","false","","4"
"1635.5999999940395","","","","","3","html-slider-response","384","","","","1",""
"608","","","","","3","html-keyboard-response","385","","","","",""
"6323","shoulder","kelele,ndaniya,mkuu,guruwe","mkuu","j","3","html-keyboard-response","386","j","mkuu","true","","4"
"1223.9000000059605","","","","","3","html-slider-response","387","","","","4",""
"437","","","","","3","html-keyboard-response","388","","","","",""
"5607","lamp","afya,daub,bilaska,mbolea","afya","f","3","html-keyboard-response","389","n","mbolea","false","","4"
"1124","","","","","3","html-slider-response","390","","","","1",""
"434","","","","","3","html-keyboard-response","391","","","","",""
"2817","shelf","bungtod,pamahaw,kadaot,awit","pamahaw","v","3","html-keyboard-response","392","v","pamahaw","true","","1"
"1200.0999999940395","","","","","3","html-slider-response","393","","","","4",""
"521","","","","","3","html-keyboard-response","394","","","","",""
"5050","human","bado,kikapu,punguza,tinapay","tinapay","n","3","html-keyboard-response","395","n","tinapay","true","","4"
"1671.2999999821186","","","","","3","html-slider-response","396","","","","2",""
"662","","","","","3","html-keyboard-response","397","","","","",""
"3993","towel","tembo,pagpalit,funzi,pito","pagpalit","v","3","html-keyboard-response","398","j","funzi","false","","4"
"1267","","","","","3","html-slider-response","399","","","","2",""
"423","","","","","3","html-keyboard-response","400","","","","",""
"4752","cat","neyemba,paghukom,baki,akili","paghukom","v","3","html-keyboard-response","401","j","baki","false","","4"
"1863.5","","","","","3","html-slider-response","402","","","","2",""
"407","","","","","3","html-keyboard-response","403","","","","",""
"3290","spider","bunyag,mkboa,atop,kamwe","kamwe","n","3","html-keyboard-response","404","n","kamwe","true","","4"
"1098.3999999761581","","","","","3","html-slider-response","405","","","","5",""
"380","","","","","3","html-keyboard-response","406","","","","",""
"3787","window","kweli,nanga,kujenga,umaga","kweli","f","3","html-keyboard-response","407","f","kweli","true","","4"
"1624.699999988079","","","","","3","html-slider-response","408","","","","2",""
"482","","","","","3","html-keyboard-response","409","","","","",""
"1592","woman","bandari,bituin,pagtabon,kovuli","pagtabon","j","3","html-keyboard-response","410","j","pagtabon","true","","1"
"1380.699999988079","","","","","3","html-slider-response","411","","","","4",""
"769","","","","","3","html-keyboard-response","412","","","","",""
"9710","giraffe","daraja,jumatu,hangyo,mahitabo","mahitabo","n","3","html-keyboard-response","413","j","hangyo","false","","4"
"1338.300000011921","","","","","3","html-slider-response","414","","","","1",""
"502","","","","","3","html-keyboard-response","415","","","","",""
"3330","elephant","kito,petye,pagduol,suka","kito","f","3","html-keyboard-response","416","f","kito","true","","4"
"941.5999999940395","","","","","3","html-slider-response","417","","","","5",""
"431","","","","","3","html-keyboard-response","418","","","","",""
"5012","cave","kesho,ganti,maisha,nyundo","kesho","f","3","html-keyboard-response","419","v","ganti","false","","4"
"1656.4000000059605","","","","","3","html-slider-response","420","","","","1",""
"397","","","","","3","html-keyboard-response","421","","","","",""
"5061","bread","kaili,dari,dizeli,bugas","dari","v","3","html-keyboard-response","422","n","bugas","false","","4"
"922.9000000059605","","","","","3","html-slider-response","423","","","","1",""
"464","","","","","3","html-keyboard-response","424","","","","",""
"1835","stone","ulimwengu,mkasi,asili,wingi","wingi","n","3","html-keyboard-response","425","v","mkasi","false","","4"
"2292.2000000178814","","","","","3","html-slider-response","426","","","","2",""
"906","","","","","3","html-keyboard-response","427","","","","",""
"2451","donkey","bloke,elfu,lalake,rombus","elfu","v","3","html-keyboard-response","428","v","elfu","true","","4"
"911.4000000059605","","","","","3","html-slider-response","429","","","","5",""
"483","","","","","3","html-keyboard-response","430","","","","",""
"2632","bridge","daima,ngono,panya,sahani","sahani","n","3","html-keyboard-response","431","n","sahani","true","","4"
"1112.800000011921","","","","","3","html-slider-response","432","","","","5",""
"336","","","","","3","html-keyboard-response","433","","","","",""
"1688","bonfire","mwezi,goti,mfuko,kusanya","goti","v","3","html-keyboard-response","434","v","goti","true","","4"
"913.8999999761581","","","","","3","html-slider-response","435","","","","5",""
"437","","","","","3","html-keyboard-response","436","","","","",""
"1615","book","kuhesa,picha,mara,mali","mali","n","3","html-keyboard-response","437","n","mali","true","","4"
"1096.7999999821186","","","","","3","html-slider-response","438","","","","5",""
"330","","","","","3","html-keyboard-response","439","","","","",""
"3738","fish","bala,baho,buli,imani","buli","j","3","html-keyboard-response","440","j","buli","true","","4"
"1008.2999999821186","","","","","3","html-slider-response","441","","","","1",""
"416","","","","","3","html-keyboard-response","442","","","","",""
"4036","spoon","betri,nzuri,pagsulod,ngazi","pagsulod","j","3","html-keyboard-response","443","n","ngazi","false","","4"
"1041.300000011921","","","","","3","html-slider-response","444","","","","1",""
"333","","","","","3","html-keyboard-response","445","","","","",""
"6949","scissors","duga,mtawa,suga,tanuri","tanuri","n","3","html-keyboard-response","446","v","mtawa","false","","4"
"1126","","","","","3","html-slider-response","447","","","","1",""
"717","","","","","3","html-keyboard-response","448","","","","",""
"4039","page","wakala,ishiri,skina,wimbo","wimbo","n","3","html-keyboard-response","449","j","skina","false","","4"
"1606.199999988079","","","","","3","html-slider-response","450","","","","2",""
"830","","","","","3","html-keyboard-response","451","","","","",""
"2766","nose","gubat,kopa,sehemu,kidole","sehemu","j","3","html-keyboard-response","452","j","sehemu","true","","1"
"1857.699999988079","","","","","3","html-slider-response","453","","","","5",""
"638","","","","","3","html-keyboard-response","454","","","","",""
"6323","ceiling","kugita,kawaida,rayna,maua","maua","n","3","html-keyboard-response","455","f","kugita","false","","4"
"1282","","","","","3","html-slider-response","456","","","","1",""
"620","","","","","3","html-keyboard-response","457","","","","",""
"3861","bucket","baga,ijayo,init,kiatu","kiatu","n","3","html-keyboard-response","458","f","baga","false","","4"
"1322.7999999821186","","","","","3","html-slider-response","459","","","","5",""
"780","","","","","3","html-keyboard-response","460","","","","",""
"3435","berry","abogado,nogozi,kinywa,kofia","kofia","n","3","html-keyboard-response","461","n","kofia","true","","1"
"1500.5","","","","","3","html-slider-response","462","","","","1",""
"425","","","","","3","html-keyboard-response","463","","","","",""
"2165","mother","kahawa,mbuzi,jokofu,babaye","babaye","n","3","html-keyboard-response","464","n","babaye","true","","1"
"2234.0999999940395","","","","","3","html-slider-response","465","","","","2",""
"552","","","","","3","html-keyboard-response","466","","","","",""
"4105","mosquito","isda,martilyo,taras,gutom","martilyo","v","3","html-keyboard-response","467","v","martilyo","true","","4"
"1140.7000000178814","","","","","3","html-slider-response","468","","","","5",""
"263","","","","","3","html-keyboard-response","469","","","","",""
"8860","perfume","katuyoan,bino,sungura,ndogo","katuyoan","f","3","html-keyboard-response","470","j","sungura","false","","4"
"1090.6000000238419","","","","","3","html-slider-response","471","","","","1",""
"455","","","","","3","html-keyboard-response","472","","","","",""
"7035","sheet","juuya,bililhon,watu,kamantis","bililhon","v","3","html-keyboard-response","473","n","kamantis","false","","4"
"1099.699999988079","","","","","3","html-slider-response","474","","","","1",""
"779","","","","","3","html-keyboard-response","475","","","","",""
"2716","puppet","napulo,lamok,godoro,mazishi","mazishi","n","3","html-keyboard-response","476","n","mazishi","true","","1"
"1080.9000000059605","","","","","3","html-slider-response","477","","","","2",""
"465","","","","","3","html-keyboard-response","478","","","","",""
"11143","poster","nchi,fedha,madungog,kasuko","madungog","j","3","html-keyboard-response","479","n","kasuko","false","","4"
"1057.7000000178814","","","","","3","html-slider-response","480","","","","1",""
"417","","","","","3","html-keyboard-response","481","","","","",""
"5079","music","mraba,mageho,baiski,tumbo","baiski","j","3","html-keyboard-response","482","n","tumbo","false","","4"
"1205.4000000059605","","","","","3","html-slider-response","483","","","","2",""
"754","","","","","3","html-keyboard-response","484","","","","",""
"3454","key","miaka,chombo,goma,ahos","chombo","v","3","html-keyboard-response","485","f","miaka","false","","4"
"1016.5","","","","","3","html-slider-response","486","","","","1",""
"441","","","","","3","html-keyboard-response","487","","","","",""
"6813","sock","ndoora,kimysa,mtirka,mamba","mamba","n","3","html-keyboard-response","488","n","mamba","true","","4"
"951.8000000119209","","","","","3","html-slider-response","489","","","","1",""
"735","","","","","3","html-keyboard-response","490","","","","",""
"6630","marker","mapafu,maji,salita,atay","maji","v","3","html-keyboard-response","491","v","maji","true","","4"
"1473.800000011921","","","","","3","html-slider-response","492","","","","5",""
"355","","","","","3","html-keyboard-response","493","","","","",""
"2205","office","hazini,yatima,leso,kuna","leso","j","3","html-keyboard-response","494","j","leso","true","","4"
"984","","","","","3","html-slider-response","495","","","","5",""
"618","","","","","3","html-keyboard-response","496","","","","",""
"4175","shoe","nyeusi,uyoga,hatua,kama","uyoga","v","3","html-keyboard-response","497","f","nyeusi","false","","4"
"1225.5","","","","","3","html-slider-response","498","","","","1",""
"546","","","","","3","html-keyboard-response","499","","","","",""
"3194","cop","bustani,mechezo,jikoni,bakus","mechezo","v","3","html-keyboard-response","500","v","mechezo","true","","4"
"1445.0999999940395","","","","","3","html-slider-response","501","","","","5",""
"409","","","","","3","html-keyboard-response","502","","","","",""
"3279","bank","kudhibi,silingan,tualya,ofisi","silingan","v","3","html-keyboard-response","503","n","ofisi","false","","4"
"1201.9000000059605","","","","","3","html-slider-response","504","","","","5",""
"1001","","","","","3","html-keyboard-response","505","","","","",""
"9694","letter","kifua,filimbi,chuma,uhuru","kifua","f","3","html-keyboard-response","506","f","kifua","true","","1"
"1039.800000011921","","","","","3","html-slider-response","507","","","","1",""
"541","","","","","3","html-keyboard-response","508","","","","",""
"2988","dog","lubi,washia,kalamu,bahari","bahari","n","3","html-keyboard-response","509","n","bahari","true","","1"
"1016.9000000059605","","","","","3","html-slider-response","510","","","","1",""
"313","","","","","3","html-keyboard-response","511","","","","",""
"6272","shop","nopya,kerida,samaki,ndezu","samaki","j","3","html-keyboard-response","512","j","samaki","true","","4"
"1789.800000011921","","","","","3","html-slider-response","513","","","","5",""
"359","","","","","3","html-keyboard-response","514","","","","",""
"2478","flower","tamasha,lobo,bega,usiku","bega","j","3","html-keyboard-response","515","j","bega","true","","4"
"914.7000000178814","","","","","3","html-slider-response","516","","","","5",""
"635","","","","","3","html-keyboard-response","517","","","","",""
"1743","cigar","ndugu,kuta,adhabu,mlango","adhabu","j","3","html-keyboard-response","518","j","adhabu","true","","1"
"1115.199999988079","","","","","3","html-slider-response","519","","","","1",""
"634","","","","","3","html-keyboard-response","520","","","","",""
"8650","hammer","mekno,napakyas,kitovu,layag","napakyas","v","3","html-keyboard-response","521","v","napakyas","true","","4"
"1247.7000000178814","","","","","3","html-slider-response","522","","","","5",""
"544","","","","","3","html-keyboard-response","523","","","","",""
"7764","fork","baboy,paghago,mgonjwa,gorisi","mgonjwa","j","3","html-keyboard-response","524","v","paghago","false","","4"
"1347.0999999940395","","","","","3","html-slider-response","525","","","","1",""
"830","","","","","3","html-keyboard-response","526","","","","",""
"1715","sun","bendi,luha,basi,uongo","basi","j","3","html-keyboard-response","527","j","basi","true","","1"
"1189.2000000178814","","","","","3","html-slider-response","528","","","","1",""
"584","","","","","3","html-keyboard-response","529","","","","",""
"3284","ladder","mashua,pangalan,mwanga,kamba","pangalan","v","3","html-keyboard-response","530","j","mwanga","false","","4"
"1706.0999999940395","","","","","3","html-slider-response","531","","","","1",""
"750","","","","","3","html-keyboard-response","532","","","","",""
"6936","banana","kazi,kasamok,hagdan,twai","kazi","f","3","html-keyboard-response","533","f","kazi","true","","1"
"970.6000000238419","","","","","3","html-slider-response","534","","","","1",""
"389","","","","","3","html-keyboard-response","535","","","","",""
"9126","pudding","aibu,abug,mpishi,iring","aibu","f","3","html-keyboard-response","536","j","mpishi","false","","4"
"4922.5","","","","","3","html-slider-response","537","","","","1",""
"678","","","","","3","html-keyboard-response","538","","","","",""
"2404","body","tindashan,nyundu,jibini,kununa","tindashan","f","3","html-keyboard-response","539","f","tindashan","true","","4"
"1633.0999999940395","","","","","3","html-slider-response","540","","","","5",""
"316","","","","","3","html-keyboard-response","541","","","","",""
"2593","bed","kalipay,mapintas,haraka,starehe","mapintas","v","3","html-keyboard-response","542","n","starehe","false","","4"
"1154.5999999940395","","","","","3","html-slider-response","543","","","","1",""
"462","","","","","3","html-keyboard-response","544","","","","",""
"3347","tissue","lamigas,kisiwa,katika,ugomvi","ugomvi","n","3","html-keyboard-response","545","j","katika","false","","4"
"965.0999999940395","","","","","3","html-slider-response","546","","","","1",""
"348","","","","","3","html-keyboard-response","547","","","","",""
"2196","candle","gabi,farasi,geza,kupanda","geza","j","3","html-keyboard-response","548","j","geza","true","","4"
"961","","","","","3","html-slider-response","549","","","","5",""
"263","","","","","3","html-keyboard-response","550","","","","",""
"2817","tomato","mvua,chupi,chupa,takatak","mvua","f","3","html-keyboard-response","551","f","mvua","true","","1"
"1117.699999988079","","","","","3","html-slider-response","552","","","","5",""
"271","","","","","3","html-keyboard-response","553","","","","",""
"2771","list","alizeti,wingu,kuzama,kaso","wingu","v","3","html-keyboard-response","554","v","wingu","true","","4"
"917.6999999880791","","","","","3","html-slider-response","555","","","","5",""
"423","","","","","3","html-keyboard-response","556","","","","",""
"1866","olive","bata,siagi,jiwe,welder","jiwe","j","3","html-keyboard-response","557","j","jiwe","true","","4"
"1033.9000000059605","","","","","3","html-slider-response","558","","","","5",""
"280","","","","","3","html-keyboard-response","559","","","","",""
"10140","picture","kubwa,silya,chaki,asin","kubwa","f","3","html-keyboard-response","560","f","kubwa","true","","1"
"4058.5","","","","","3","html-slider-response","561","","","","4",""
"546","","","","","3","html-keyboard-response","562","","","","",""
"5750","page","wakala,wimbo,ishiri,skina","wimbo","v","4","html-keyboard-response","888","v","wimbo","true","",""
"3185.699999988079","","","","","4","html-slider-response","889","","","","3",""
"3543","sheet","juuya,watu,kamantis,bililhon","bililhon","n","4","html-keyboard-response","890","n","bililhon","true","",""
"2101.4000000059605","","","","","4","html-slider-response","891","","","","5",""
"4865","ladder","mashua,mwanga,pangalan,kamba","pangalan","j","4","html-keyboard-response","892","n","kamba","false","",""
"1406.9000000059605","","","","","4","html-slider-response","893","","","","1",""
"5776","door","tena,soko,nyota,surali","surali","n","4","html-keyboard-response","894","j","nyota","false","",""
"1507.9000000059605","","","","","4","html-slider-response","895","","","","1",""
"3228","spider","bunyag,kamwe,mkboa,atop","kamwe","v","4","html-keyboard-response","896","v","kamwe","true","",""
"1351.5999999940395","","","","","4","html-slider-response","897","","","","5",""
"5531","picture","silya,chaki,asin,kubwa","kubwa","n","4","html-keyboard-response","898","j","asin","false","",""
"2222","","","","","4","html-slider-response","899","","","","2",""
"4825","boat","agalon,hamsi,pombe,kitanda","agalon","f","4","html-keyboard-response","900","f","agalon","true","",""
"2037","","","","","4","html-slider-response","901","","","","4",""
"2209","donkey","bloke,lalake,elfu,rombus","elfu","j","4","html-keyboard-response","902","j","elfu","true","",""
"1628.8999999761581","","","","","4","html-slider-response","903","","","","5",""
"2064","book","mali,kuhesa,picha,mara","mali","f","4","html-keyboard-response","904","f","mali","true","",""
"1871.6000000238419","","","","","4","html-slider-response","905","","","","5",""
"8351","cup","matumai,dagat,shimoni,jeraha","matumai","f","4","html-keyboard-response","906","v","dagat","false","",""
"1312.9000000059605","","","","","4","html-slider-response","907","","","","1",""
"4706","sun","basi,bendi,luha,uongo","basi","f","4","html-keyboard-response","908","f","basi","true","",""
"1864.7000000178814","","","","","4","html-slider-response","909","","","","5",""
"39011","pudding","abug,mpishi,aibu,iring","aibu","j","4","html-keyboard-response","910","f","abug","false","",""
"1145.800000011921","","","","","4","html-slider-response","911","","","","2",""
"2440","human","bado,kikapu,tinapay,punguza","tinapay","j","4","html-keyboard-response","912","j","tinapay","true","",""
"1327.9000000059605","","","","","4","html-slider-response","913","","","","5",""
"1561","squirrel","mahugaw,hofu,ukweli,kichwa","hofu","v","4","html-keyboard-response","914","v","hofu","true","",""
"939.1999999880791","","","","","4","html-slider-response","915","","","","5",""
"3435","park","tambok,bunifu,pwani,ihalas","bunifu","v","4","html-keyboard-response","916","j","pwani","false","",""
"905","","","","","4","html-slider-response","917","","","","2",""
"3637","poster","nchi,madungog,fedha,kasuko","madungog","v","4","html-keyboard-response","918","j","fedha","false","",""
"3232.4000000059605","","","","","4","html-slider-response","919","","","","3",""
"7124","wolf","lugha,kaburi,ndizi,mchuzi","lugha","f","4","html-keyboard-response","920","j","ndizi","false","",""
"1380.9000000059605","","","","","4","html-slider-response","921","","","","2",""
"7902","cat","neyemba,baki,akili,paghukom","paghukom","n","4","html-keyboard-response","922","n","paghukom","true","",""
"1997.9000000059605","","","","","4","html-slider-response","923","","","","3",""
"4035","fish","bala,buli,baho,imani","buli","v","4","html-keyboard-response","924","v","buli","true","",""
"1317","","","","","4","html-slider-response","925","","","","5",""
"2626","tooth","kijiko,uadui,pahiyum,kabalaka","kabalaka","n","4","html-keyboard-response","926","n","kabalaka","true","",""
"1584.0999999940395","","","","","4","html-slider-response","927","","","","5",""
"9760","cave","ganti,maisha,nyundo,kesho","kesho","n","4","html-keyboard-response","928","v","maisha","false","",""
"1630.300000011921","","","","","4","html-slider-response","929","","","","1",""
"36837","lamp","daub,bilaska,mbolea,afya","afya","n","4","html-keyboard-response","930","f","daub","false","",""
"1648.5999999940395","","","","","4","html-slider-response","931","","","","1",""
"3584","banana","kasamok,kazi,hagdan,twai","kazi","v","4","html-keyboard-response","932","v","kazi","true","",""
"1549.2000000178814","","","","","4","html-slider-response","933","","","","5",""
"1623","bonfire","mwezi,goti,mfuko,kusanya","goti","v","4","html-keyboard-response","934","v","goti","true","",""
"1432.800000011921","","","","","4","html-slider-response","935","","","","5",""
"3254","cop","mechezo,bustani,jikoni,bakus","mechezo","f","4","html-keyboard-response","936","f","mechezo","true","",""
"1033.5999999940395","","","","","4","html-slider-response","937","","","","5",""
"3381","marker","mapafu,salita,maji,atay","maji","j","4","html-keyboard-response","938","j","maji","true","",""
"1139.9000000059605","","","","","4","html-slider-response","939","","","","5",""
"3816","window","kweli,nanga,kujenga,umaga","kweli","f","4","html-keyboard-response","940","f","kweli","true","",""
"1086.5","","","","","4","html-slider-response","941","","","","5",""
"1783","body","tindashan,nyundu,jibini,kununa","tindashan","f","4","html-keyboard-response","942","f","tindashan","true","",""
"1719.7999999821186","","","","","4","html-slider-response","943","","","","5",""
"2671","apple","ukame,estante,kisu,edad","kisu","j","4","html-keyboard-response","944","j","kisu","true","",""
"1126.8999999761581","","","","","4","html-slider-response","945","","","","5",""
"4979","salmon","mzungu,seri,sensilyo,baharia","sensilyo","j","4","html-keyboard-response","946","n","baharia","false","",""
"2478.2000000178814","","","","","4","html-slider-response","947","","","","1",""
"4632","bed","kalipay,haraka,starehe,mapintas","mapintas","n","4","html-keyboard-response","948","v","haraka","false","",""
"3095.300000011921","","","","","4","html-slider-response","949","","","","1",""
"1427","berry","abogado,kofia,nogozi,kinywa","kofia","v","4","html-keyboard-response","950","v","kofia","true","",""
"2004.4000000059605","","","","","4","html-slider-response","951","","","","5",""
"10590","mirror","rangi,kanding,sulagma,furaha","sulagma","j","4","html-keyboard-response","952","j","sulagma","true","",""
"1854","","","","","4","html-slider-response","953","","","","5",""
"2130","flag","ndege,trekta,mkate,kawa","trekta","v","4","html-keyboard-response","954","v","trekta","true","",""
"1478.0999999940395","","","","","4","html-slider-response","955","","","","5",""
"3008","shoulder","mkuu,kelele,ndaniya,guruwe","mkuu","f","4","html-keyboard-response","956","f","mkuu","true","",""
"939.5","","","","","4","html-slider-response","957","","","","5",""
"3828","tissue","lamigas,kisiwa,ugomvi,katika","ugomvi","j","4","html-keyboard-response","958","v","kisiwa","false","",""
"1162.5999999940395","","","","","4","html-slider-response","959","","","","1",""
"11590","notebook","msitu,kemia,kila,mdudu","kemia","v","4","html-keyboard-response","960","n","mdudu","false","",""
"1557.9000000059605","","","","","4","html-slider-response","961","","","","1",""
"9170","snake","jansa,karon,pagtukod,mvringo","pagtukod","j","4","html-keyboard-response","962","n","mvringo","false","",""
"1002.0999999940395","","","","","4","html-slider-response","963","","","","1",""
"4032","finger","simu,sufuria,lima,moyo","moyo","n","4","html-keyboard-response","964","j","lima","false","",""
"957.0999999940395","","","","","4","html-slider-response","965","","","","2",""
"8285","basket","kumba,kumbuka,utepe,hasira","kumba","f","4","html-keyboard-response","966","f","kumba","true","",""
"1008.9000000059605","","","","","4","html-slider-response","967","","","","1",""
"5492","curtain","lisud,bulwawan,mchanga,chubani","mchanga","j","4","html-keyboard-response","968","n","chubani","false","",""
"1831.800000011921","","","","","4","html-slider-response","969","","","","2",""
"2876","perfume","bino,sungura,ndogo,katuyoan","katuyoan","n","4","html-keyboard-response","970","v","sungura","false","",""
"1735.0999999940395","","","","","4","html-slider-response","971","","","","2",""
"4814","key","miaka,chombo,goma,ahos","chombo","v","4","html-keyboard-response","972","v","chombo","true","",""
"946.9000000059605","","","","","4","html-slider-response","973","","","","1",""
"1766","olive","bata,jiwe,siagi,welder","jiwe","v","4","html-keyboard-response","974","v","jiwe","true","",""
"824.0999999940395","","","","","4","html-slider-response","975","","","","5",""
"4031","rose","singizi,mwanake,amani,paghalad","paghalad","n","4","html-keyboard-response","976","j","amani","false","",""
"1378.800000011921","","","","","4","html-slider-response","977","","","","2",""
"1864","bridge","daima,ngono,panya,sahani","sahani","n","4","html-keyboard-response","978","n","sahani","true","",""
"909.8000000119209","","","","","4","html-slider-response","979","","","","5",""
"10539","hill","kushoto,kukimba,sweta,matumbo","matumbo","n","4","html-keyboard-response","980","j","sweta","false","",""
"1930","","","","","4","html-slider-response","981","","","","4",""
"4162","letter","kifua,filimbi,chuma,uhuru","kifua","f","4","html-keyboard-response","982","v","filimbi","false","",""
"1344.2999999821186","","","","","4","html-slider-response","983","","","","1",""
"3368","sock","mamba,ndoora,kimysa,mtirka","mamba","f","4","html-keyboard-response","984","f","mamba","true","",""
"1761.5","","","","","4","html-slider-response","985","","","","5",""
"5493","fork","baboy,paghago,mgonjwa,gorisi","mgonjwa","j","4","html-keyboard-response","986","f","baboy","false","",""
"1133.5","","","","","4","html-slider-response","987","","","","1",""
"2432","box","kuacha,rafiki,adui,kitande","adui","j","4","html-keyboard-response","988","j","adui","true","",""
"1152.5","","","","","4","html-slider-response","989","","","","2",""
"3281","gift","baba,nyange,pagtawag,baso","pagtawag","j","4","html-keyboard-response","990","j","pagtawag","true","",""
"1067","","","","","4","html-slider-response","991","","","","5",""
"2126","bucket","kiatu,baga,ijayo,init","kiatu","f","4","html-keyboard-response","992","v","baga","false","",""
"1308.5999999940395","","","","","4","html-slider-response","993","","","","5",""
"2753","shop","samaki,nopya,kerida,ndezu","samaki","f","4","html-keyboard-response","994","f","samaki","true","",""
"1255.4000000059605","","","","","4","html-slider-response","995","","","","5",""
"2006","puppet","napulo,mazishi,lamok,godoro","mazishi","v","4","html-keyboard-response","996","v","mazishi","true","",""
"1151.2999999821186","","","","","4","html-slider-response","997","","","","5",""
"2472","nose","gubat,sehemu,kopa,kidole","sehemu","v","4","html-keyboard-response","998","v","sehemu","true","",""
"871.5","","","","","4","html-slider-response","999","","","","5",""
"4538","music","mraba,mageho,baiski,tumbo","baiski","j","4","html-keyboard-response","1000","j","baiski","true","",""
"964.9000000059605","","","","","4","html-slider-response","1001","","","","5",""
"4173","dog","bahari,lubi,washia,kalamu","bahari","f","4","html-keyboard-response","1002","f","bahari","true","",""
"781.3000000119209","","","","","4","html-slider-response","1003","","","","1",""
"8156","eel","ishara,kunywa,kabuang,msumari","msumari","n","4","html-keyboard-response","1004","n","msumari","true","",""
"1140.300000011921","","","","","4","html-slider-response","1005","","","","2",""
"1948","number","mundamo,shule,kengele,choori","mundamo","f","4","html-keyboard-response","1006","f","mundamo","true","",""
"1756.699999988079","","","","","4","html-slider-response","1007","","","","5",""
"1522","tomato","chupi,mvua,chupa,takatak","mvua","v","4","html-keyboard-response","1008","v","mvua","true","",""
"1016","","","","","4","html-slider-response","1009","","","","5",""
"2386","coffin","kioo,barua,tubag,hulma","kioo","f","4","html-keyboard-response","1010","f","kioo","true","",""
"1291.2999999821186","","","","","4","html-slider-response","1011","","","","5",""
"3565","knee","mvuke,duka,kubale,bili","duka","v","4","html-keyboard-response","1012","f","mvuke","false","",""
"1069.199999988079","","","","","4","html-slider-response","1013","","","","5",""
"22909","woman","bandari,pagtabon,bituin,kovuli","pagtabon","v","4","html-keyboard-response","1014","v","pagtabon","true","",""
"1131.5999999940395","","","","","4","html-slider-response","1015","","","","5",""
"2486","stone","ulimwengu,mkasi,asili,wingi","wingi","n","4","html-keyboard-response","1016","n","wingi","true","",""
"1046.800000011921","","","","","4","html-slider-response","1017","","","","5",""
"3734","bread","kaili,dizeli,bugas,dari","dari","n","4","html-keyboard-response","1018","n","dari","true","",""
"1716.9000000059605","","","","","4","html-slider-response","1019","","","","2",""
"5489","triangle","kihozi,kasadpan,bentaha,liog","kasadpan","v","4","html-keyboard-response","1020","j","bentaha","false","",""
"1237","","","","","4","html-slider-response","1021","","","","1",""
"3498","scissors","duga,mtawa,tanuri,suga","tanuri","j","4","html-keyboard-response","1022","j","tanuri","true","",""
"1071.199999988079","","","","","4","html-slider-response","1023","","","","4",""
"6856","giraffe","daraja,jumatu,hangyo,mahitabo","mahitabo","n","4","html-keyboard-response","1024","j","hangyo","false","",""
"1276.2000000178814","","","","","4","html-slider-response","1025","","","","1",""
"2553","flower","tamasha,lobo,bega,usiku","bega","j","4","html-keyboard-response","1026","j","bega","true","",""
"1550.7000000178814","","","","","4","html-slider-response","1027","","","","5",""
"1722","candle","gabi,farasi,geza,kupanda","geza","j","4","html-keyboard-response","1028","j","geza","true","",""
"955.9000000059605","","","","","4","html-slider-response","1029","","","","5",""
"2946","mother","kahawa,mbuzi,babaye,jokofu","babaye","j","4","html-keyboard-response","1030","j","babaye","true","",""
"1966.800000011921","","","","","4","html-slider-response","1031","","","","5",""
"5441","towel","pagpalit,tembo,funzi,pito","pagpalit","f","4","html-keyboard-response","1032","f","pagpalit","true","",""
"1747.199999988079","","","","","4","html-slider-response","1033","","","","2",""
"2059","elephant","petye,pagduol,kito,suka","kito","j","4","html-keyboard-response","1034","j","kito","true","",""
"1126.2999999821186","","","","","4","html-slider-response","1035","","","","5",""
"5163","shelf","bungtod,kadaot,pamahaw,awit","pamahaw","j","4","html-keyboard-response","1036","v","kadaot","false","",""
"1055.699999988079","","","","","4","html-slider-response","1037","","","","1",""
"2307","mosquito","isda,taras,martilyo,gutom","martilyo","j","4","html-keyboard-response","1038","j","martilyo","true","",""
"915.5999999940395","","","","","4","html-slider-response","1039","","","","5",""
"2146","column","pundok,dila,ufagio,pala","ufagio","j","4","html-keyboard-response","1040","j","ufagio","true","",""
"1086.4000000059605","","","","","4","html-slider-response","1041","","","","5",""
"5048","pants","pintal,haki,chuki,hari","haki","v","4","html-keyboard-response","1042","j","chuki","false","",""
"1595.5999999940395","","","","","4","html-slider-response","1043","","","","1",""
"3117","list","wingu,alizeti,kuzama,kaso","wingu","f","4","html-keyboard-response","1044","f","wingu","true","",""
"1017.3000000119209","","","","","4","html-slider-response","1045","","","","5",""
"3710","bank","kudhibi,silingan,tualya,ofisi","silingan","v","4","html-keyboard-response","1046","v","silingan","true","",""
"1703.300000011921","","","","","4","html-slider-response","1047","","","","5",""
"2413","clock","kartasi,mbwa,abang,osha","mbwa","v","4","html-keyboard-response","1048","v","mbwa","true","",""
"1611.5999999940395","","","","","4","html-slider-response","1049","","","","5",""
"4165","ceiling","maua,kugita,kawaida,rayna","maua","f","4","html-keyboard-response","1050","f","maua","true","",""
"1236.1000000238419","","","","","4","html-slider-response","1051","","","","1",""
"5027","train","sayari,itik,dakika,mungu","sayari","f","4","html-keyboard-response","1052","f","sayari","true","",""
"1109","","","","","4","html-slider-response","1053","","","","5",""
"2368","magazine","gundi,mchawi,kiti,bahandi","kiti","j","4","html-keyboard-response","1054","j","kiti","true","",""
"1066.9000000059605","","","","","4","html-slider-response","1055","","","","5",""
"1835","office","hazini,yatima,kuna,leso","leso","n","4","html-keyboard-response","1056","n","leso","true","",""
"980.3000000119209","","","","","4","html-slider-response","1057","","","","5",""
"5786","wheel","punda,bafuni,tawo,baadaye","bafuni","v","4","html-keyboard-response","1058","v","bafuni","true","",""
"1560","","","","","4","html-slider-response","1059","","","","1",""
"7032","spoon","betri,pagsulod,nzuri,ngazi","pagsulod","v","4","html-keyboard-response","1060","f","betri","false","",""
"1658.199999988079","","","","","4","html-slider-response","1061","","","","1",""
"3940","hammer","mekno,kitovu,napakyas,layag","napakyas","j","4","html-keyboard-response","1062","j","napakyas","true","",""
"1536.699999988079","","","","","4","html-slider-response","1063","","","","5",""
"21073","cigar","adhabu,ndugu,kuta,mlango","adhabu","f","4","html-keyboard-response","1064","v","ndugu","false","",""
"1342.4000000059605","","","","","4","html-slider-response","1065","","","","1",""
"8478","shoe","nyeusi,hatua,uyoga,kama","uyoga","j","4","html-keyboard-response","1066","n","kama","false","",""
"1795.699999988079","","","","","4","html-slider-response","1067","","","","1",""
"1862","list","alizeti,wingu,kuzama,kaso","wingu","v","5","html-keyboard-response","1069","v","wingu","true","",""
"1538.800000011921","","","","","5","html-slider-response","1070","","","","5",""
"1766","number","shule,kengele,mundamo,choori","mundamo","j","5","html-keyboard-response","1071","j","mundamo","true","",""
"796.5999999940395","","","","","5","html-slider-response","1072","","","","5",""
"1426","apple","ukame,kisu,estante,edad","kisu","v","5","html-keyboard-response","1073","v","kisu","true","",""
"796.7999999821186","","","","","5","html-slider-response","1074","","","","5",""
"3024","knee","mvuke,duka,kubale,bili","duka","v","5","html-keyboard-response","1075","f","mvuke","false","",""
"842.5999999940395","","","","","5","html-slider-response","1076","","","","5",""
"3421","tooth","kabalaka,kijiko,uadui,pahiyum","kabalaka","f","5","html-keyboard-response","1077","f","kabalaka","true","",""
"1210.8999999761581","","","","","5","html-slider-response","1078","","","","5",""
"1417","berry","kofia,abogado,nogozi,kinywa","kofia","f","5","html-keyboard-response","1079","f","kofia","true","",""
"857","","","","","5","html-slider-response","1080","","","","5",""
"1840","bridge","daima,ngono,panya,sahani","sahani","n","5","html-keyboard-response","1081","n","sahani","true","",""
"1397","","","","","5","html-slider-response","1082","","","","5",""
"1758","perfume","bino,sungura,katuyoan,ndogo","katuyoan","j","5","html-keyboard-response","1083","v","sungura","false","",""
"1443.2999999821186","","","","","5","html-slider-response","1084","","","","4",""
"2982","ladder","mashua,mwanga,pangalan,kamba","pangalan","j","5","html-keyboard-response","1085","j","pangalan","true","",""
"929.5","","","","","5","html-slider-response","1086","","","","1",""
"2368","pants","pintal,chuki,haki,hari","haki","j","5","html-keyboard-response","1087","v","chuki","false","",""
"930.9000000059605","","","","","5","html-slider-response","1088","","","","2",""
"3104","salmon","mzungu,seri,sensilyo,baharia","sensilyo","j","5","html-keyboard-response","1089","j","sensilyo","true","",""
"1362.5","","","","","5","html-slider-response","1090","","","","1",""
"2320","coffin","barua,tubag,kioo,hulma","kioo","j","5","html-keyboard-response","1091","j","kioo","true","",""
"1052.5999999940395","","","","","5","html-slider-response","1092","","","","5",""
"3174","park","bunifu,tambok,pwani,ihalas","bunifu","f","5","html-keyboard-response","1093","j","pwani","false","",""
"1847.5999999940395","","","","","5","html-slider-response","1094","","","","1",""
"2916","giraffe","daraja,mahitabo,jumatu,hangyo","mahitabo","v","5","html-keyboard-response","1095","j","jumatu","false","",""
"875.9000000059605","","","","","5","html-slider-response","1096","","","","1",""
"4652","mirror","rangi,kanding,sulagma,furaha","sulagma","j","5","html-keyboard-response","1097","j","sulagma","true","",""
"1177.5999999940395","","","","","5","html-slider-response","1098","","","","5",""
"2025","ceiling","kugita,maua,kawaida,rayna","maua","v","5","html-keyboard-response","1099","n","rayna","false","",""
"1197.0999999940395","","","","","5","html-slider-response","1100","","","","1",""
"2555","marker","mapafu,salita,maji,atay","maji","j","5","html-keyboard-response","1101","j","maji","true","",""
"1144","","","","","5","html-slider-response","1102","","","","5",""
"2196","sock","ndoora,kimysa,mamba,mtirka","mamba","j","5","html-keyboard-response","1103","j","mamba","true","",""
"1071.199999988079","","","","","5","html-slider-response","1104","","","","5",""
"1987","cop","bustani,jikoni,bakus,mechezo","mechezo","n","5","html-keyboard-response","1105","n","mechezo","true","",""
"1414.699999988079","","","","","5","html-slider-response","1106","","","","5",""
"2660","gift","baba,pagtawag,nyange,baso","pagtawag","v","5","html-keyboard-response","1107","v","pagtawag","true","",""
"1096.300000011921","","","","","5","html-slider-response","1108","","","","5",""
"4024","notebook","kemia,msitu,kila,mdudu","kemia","f","5","html-keyboard-response","1109","j","kila","false","",""
"1041.4000000059605","","","","","5","html-slider-response","1110","","","","1",""
"1451","bank","kudhibi,silingan,tualya,ofisi","silingan","v","5","html-keyboard-response","1111","v","silingan","true","",""
"936.1999999880791","","","","","5","html-slider-response","1112","","","","5",""
"8882","letter","filimbi,chuma,uhuru,kifua","kifua","n","5","html-keyboard-response","1113","v","chuma","false","",""
"1177.2000000178814","","","","","5","html-slider-response","1114","","","","1",""
"12923","candle","gabi,geza,farasi,kupanda","geza","v","5","html-keyboard-response","1115","v","geza","true","",""
"1159.0999999940395","","","","","5","html-slider-response","1116","","","","5",""
"28449","bread","kaili,dizeli,dari,bugas","dari","j","5","html-keyboard-response","1117","j","dari","true","",""
"1457.5","","","","","5","html-slider-response","1118","","","","5",""
"6354","snake","jansa,pagtukod,karon,mvringo","pagtukod","v","5","html-keyboard-response","1119","n","mvringo","false","",""
"1865.5","","","","","5","html-slider-response","1120","","","","1",""
"9117","rose","singizi,mwanake,paghalad,amani","paghalad","j","5","html-keyboard-response","1121","v","mwanake","false","",""
"1238.7999999821186","","","","","5","html-slider-response","1122","","","","1",""
"1947","hill","matumbo,kushoto,kukimba,sweta","matumbo","f","5","html-keyboard-response","1123","n","sweta","false","",""
"1165.2000000178814","","","","","5","html-slider-response","1124","","","","2",""
"2709","train","sayari,itik,dakika,mungu","sayari","f","5","html-keyboard-response","1125","f","sayari","true","",""
"1665.5","","","","","5","html-slider-response","1126","","","","5",""
"2499","shop","nopya,samaki,kerida,ndezu","samaki","v","5","html-keyboard-response","1127","v","samaki","true","",""
"1264.5999999940395","","","","","5","html-slider-response","1128","","","","5",""
"2038","nose","gubat,sehemu,kopa,kidole","sehemu","v","5","html-keyboard-response","1129","v","sehemu","true","",""
"961.0999999940395","","","","","5","html-slider-response","1130","","","","5",""
"4505","boat","hamsi,agalon,pombe,kitanda","agalon","v","5","html-keyboard-response","1131","v","agalon","true","",""
"1668","","","","","5","html-slider-response","1132","","","","4",""
"1959","body","nyundu,jibini,kununa,tindashan","tindashan","n","5","html-keyboard-response","1133","n","tindashan","true","",""
"948.6000000238419","","","","","5","html-slider-response","1134","","","","5",""
"3171","bed","kalipay,mapintas,haraka,starehe","mapintas","v","5","html-keyboard-response","1135","j","haraka","false","",""
"1161.699999988079","","","","","5","html-slider-response","1136","","","","1",""
"1805","squirrel","hofu,mahugaw,ukweli,kichwa","hofu","f","5","html-keyboard-response","1137","f","hofu","true","",""
"965.2000000178814","","","","","5","html-slider-response","1138","","","","5",""
"3473","window","kweli,nanga,kujenga,umaga","kweli","f","5","html-keyboard-response","1139","f","kweli","true","",""
"1101.699999988079","","","","","5","html-slider-response","1140","","","","5",""
"1817","bonfire","mwezi,mfuko,goti,kusanya","goti","j","5","html-keyboard-response","1141","j","goti","true","",""
"832","","","","","5","html-slider-response","1142","","","","5",""
"2768","fish","buli,bala,baho,imani","buli","f","5","html-keyboard-response","1143","f","buli","true","",""
"860.5999999940395","","","","","5","html-slider-response","1144","","","","5",""
"2416","cat","neyemba,baki,paghukom,akili","paghukom","j","5","html-keyboard-response","1145","j","paghukom","true","",""
"2069.9000000059605","","","","","5","html-slider-response","1146","","","","4",""
"2447","spider","bunyag,mkboa,kamwe,atop","kamwe","j","5","html-keyboard-response","1147","j","kamwe","true","",""
"1262.199999988079","","","","","5","html-slider-response","1148","","","","5",""
"3256","eel","ishara,kunywa,msumari,kabuang","msumari","j","5","html-keyboard-response","1149","j","msumari","true","",""
"2502.2000000178814","","","","","5","html-slider-response","1150","","","","3",""
"4088","woman","bandari,bituin,kovuli,pagtabon","pagtabon","n","5","html-keyboard-response","1151","n","pagtabon","true","",""
"1022.4000000059605","","","","","5","html-slider-response","1152","","","","5",""
"1968","magazine","gundi,mchawi,bahandi,kiti","kiti","n","5","html-keyboard-response","1153","n","kiti","true","",""
"1023","","","","","5","html-slider-response","1154","","","","5",""
"3115","pudding","abug,mpishi,aibu,iring","aibu","j","5","html-keyboard-response","1155","n","iring","false","",""
"965.3000000119209","","","","","5","html-slider-response","1156","","","","1",""
"4085","lamp","daub,afya,bilaska,mbolea","afya","v","5","html-keyboard-response","1157","v","afya","true","",""
"893.5999999940395","","","","","5","html-slider-response","1158","","","","1",""
"3437","cave","ganti,maisha,kesho,nyundo","kesho","j","5","html-keyboard-response","1159","f","ganti","false","",""
"1176.0999999940395","","","","","5","html-slider-response","1160","","","","1",""
"1902","shoulder","kelele,ndaniya,mkuu,guruwe","mkuu","j","5","html-keyboard-response","1161","j","mkuu","true","",""
"977","","","","","5","html-slider-response","1162","","","","5",""
"2274","stone","ulimwengu,mkasi,wingi,asili","wingi","j","5","html-keyboard-response","1163","j","wingi","true","",""
"925.9000000059605","","","","","5","html-slider-response","1164","","","","5",""
"2308","column","pundok,ufagio,dila,pala","ufagio","v","5","html-keyboard-response","1165","v","ufagio","true","",""
"851.5999999940395","","","","","5","html-slider-response","1166","","","","5",""
"2529","page","wakala,ishiri,wimbo,skina","wimbo","j","5","html-keyboard-response","1167","j","wimbo","true","",""
"1452","","","","","5","html-slider-response","1168","","","","5",""
"3608","shoe","nyeusi,hatua,kama,uyoga","uyoga","n","5","html-keyboard-response","1169","j","kama","false","",""
"1277.7000000178814","","","","","5","html-slider-response","1170","","","","1",""
"2977","clock","mbwa,kartasi,abang,osha","mbwa","f","5","html-keyboard-response","1171","f","mbwa","true","",""
"1101.300000011921","","","","","5","html-slider-response","1172","","","","5",""
"3793","towel","pagpalit,tembo,funzi,pito","pagpalit","f","5","html-keyboard-response","1173","f","pagpalit","true","",""
"1320.2999999821186","","","","","5","html-slider-response","1174","","","","1",""
"2165","tomato","chupi,chupa,takatak,mvua","mvua","n","5","html-keyboard-response","1175","n","mvua","true","",""
"1487","","","","","5","html-slider-response","1176","","","","5",""
"4511","bucket","baga,ijayo,kiatu,init","kiatu","j","5","html-keyboard-response","1177","f","baga","false","",""
"1266.0999999940395","","","","","5","html-slider-response","1178","","","","5",""
"5379","finger","simu,sufuria,moyo,lima","moyo","j","5","html-keyboard-response","1179","n","lima","false","",""
"1528.2000000178814","","","","","5","html-slider-response","1180","","","","1",""
"6335","mother","babaye,kahawa,mbuzi,jokofu","babaye","f","5","html-keyboard-response","1181","f","babaye","true","",""
"1470.7999999821186","","","","","5","html-slider-response","1182","","","","5",""
"1756","human","bado,tinapay,kikapu,punguza","tinapay","v","5","html-keyboard-response","1183","v","tinapay","true","",""
"1099.7000000178814","","","","","5","html-slider-response","1184","","","","5",""
"2735","sun","bendi,luha,uongo,basi","basi","n","5","html-keyboard-response","1185","n","basi","true","",""
"1307.5999999940395","","","","","5","html-slider-response","1186","","","","5",""
"2333","fork","baboy,paghago,gorisi,mgonjwa","mgonjwa","n","5","html-keyboard-response","1187","v","paghago","false","",""
"1554.300000011921","","","","","5","html-slider-response","1188","","","","1",""
"2111","donkey","bloke,lalake,rombus,elfu","elfu","n","5","html-keyboard-response","1189","n","elfu","true","",""
"823.0999999940395","","","","","5","html-slider-response","1190","","","","5",""
"4209","wolf","lugha,kaburi,ndizi,mchuzi","lugha","f","5","html-keyboard-response","1191","j","ndizi","false","",""
"1912.7000000178814","","","","","5","html-slider-response","1192","","","","1",""
"3512","cigar","ndugu,kuta,mlango,adhabu","adhabu","n","5","html-keyboard-response","1193","v","kuta","false","",""
"1061.699999988079","","","","","5","html-slider-response","1194","","","","1",""
"2044","olive","bata,jiwe,siagi,welder","jiwe","v","5","html-keyboard-response","1195","v","jiwe","true","",""
"1264.9000000059605","","","","","5","html-slider-response","1196","","","","5",""
"4610","key","miaka,goma,chombo,ahos","chombo","j","5","html-keyboard-response","1197","j","chombo","true","",""
"1180.199999988079","","","","","5","html-slider-response","1198","","","","1",""
"2356","door","tena,soko,surali,nyota","surali","j","5","html-keyboard-response","1199","n","nyota","false","",""
"916.1999999880791","","","","","5","html-slider-response","1200","","","","1",""
"3211","wheel","punda,tawo,baadaye,bafuni","bafuni","n","5","html-keyboard-response","1201","n","bafuni","true","",""
"1544.699999988079","","","","","5","html-slider-response","1202","","","","1",""
"5416","basket","kumbuka,utepe,kumba,hasira","kumba","j","5","html-keyboard-response","1203","n","hasira","false","",""
"1180.699999988079","","","","","5","html-slider-response","1204","","","","1",""
"1775","elephant","petye,pagduol,suka,kito","kito","n","5","html-keyboard-response","1205","n","kito","true","",""
"850.7000000178814","","","","","5","html-slider-response","1206","","","","5",""
"2075","office","hazini,yatima,leso,kuna","leso","j","5","html-keyboard-response","1207","j","leso","true","",""
"820.9000000059605","","","","","5","html-slider-response","1208","","","","5",""
"5457","music","mraba,mageho,baiski,tumbo","baiski","j","5","html-keyboard-response","1209","f","mraba","false","",""
"1782.5999999940395","","","","","5","html-slider-response","1210","","","","1",""
"2119","tissue","ugomvi,lamigas,kisiwa,katika","ugomvi","f","5","html-keyboard-response","1211","j","kisiwa","false","",""
"1022.7999999821186","","","","","5","html-slider-response","1212","","","","1",""
"4839","curtain","mchanga,lisud,bulwawan,chubani","mchanga","f","5","html-keyboard-response","1213","n","chubani","false","",""
"962.6999999880791","","","","","5","html-slider-response","1214","","","","5",""
"1968","flag","ndege,mkate,kawa,trekta","trekta","n","5","html-keyboard-response","1215","n","trekta","true","",""
"906.1000000238419","","","","","5","html-slider-response","1216","","","","5",""
"12036","dog","lubi,washia,kalamu,bahari","bahari","n","5","html-keyboard-response","1217","f","lubi","false","",""
"1510.0999999940395","","","","","5","html-slider-response","1218","","","","1",""
"6492","cup","dagat,shimoni,matumai,jeraha","matumai","j","5","html-keyboard-response","1219","v","shimoni","false","",""
"1071.5999999940395","","","","","5","html-slider-response","1220","","","","1",""
"1509","sheet","bililhon,juuya,watu,kamantis","bililhon","f","5","html-keyboard-response","1221","f","bililhon","true","",""
"1561","","","","","5","html-slider-response","1222","","","","5",""
"6696","spoon","betri,nzuri,pagsulod,ngazi","pagsulod","j","5","html-keyboard-response","1223","n","ngazi","false","",""
"933.6000000238419","","","","","5","html-slider-response","1224","","","","1",""
"1714","flower","tamasha,lobo,bega,usiku","bega","j","5","html-keyboard-response","1225","j","bega","true","",""
"954.1999999880791","","","","","5","html-slider-response","1226","","","","5",""
"5562","picture","kubwa,silya,chaki,asin","kubwa","f","5","html-keyboard-response","1227","j","chaki","false","",""
"1272.9000000059605","","","","","5","html-slider-response","1228","","","","1",""
"4283","puppet","mazishi,napulo,lamok,godoro","mazishi","f","5","html-keyboard-response","1229","f","mazishi","true","",""
"1046","","","","","5","html-slider-response","1230","","","","5",""
"3179","banana","kasamok,kazi,hagdan,twai","kazi","v","5","html-keyboard-response","1231","v","kazi","true","",""
"926.4000000059605","","","","","5","html-slider-response","1232","","","","5",""
"1881","book","kuhesa,picha,mali,mara","mali","j","5","html-keyboard-response","1233","j","mali","true","",""
"1131.6000000238419","","","","","5","html-slider-response","1234","","","","5",""
"5188","triangle","kihozi,bentaha,liog,kasadpan","kasadpan","n","5","html-keyboard-response","1235","f","kihozi","false","",""
"3217.600000023842","","","","","5","html-slider-response","1236","","","","4",""
"3868","poster","nchi,madungog,fedha,kasuko","madungog","v","5","html-keyboard-response","1237","j","fedha","false","",""
"1200.5","","","","","5","html-slider-response","1238","","","","2",""
"5831","box","adui,kuacha,rafiki,kitande","adui","f","5","html-keyboard-response","1239","f","adui","true","",""
"3553.5","","","","","5","html-slider-response","1240","","","","2",""
"2666","mosquito","martilyo,isda,taras,gutom","martilyo","f","5","html-keyboard-response","1241","f","martilyo","true","",""
"999.5999999940395","","","","","5","html-slider-response","1242","","","","5",""
"6557","shelf","pamahaw,bungtod,kadaot,awit","pamahaw","f","5","html-keyboard-response","1243","f","pamahaw","true","",""
"2458","","","","","5","html-slider-response","1244","","","","3",""
"2306","scissors","duga,mtawa,suga,tanuri","tanuri","n","5","html-keyboard-response","1245","n","tanuri","true","",""
"1048.699999988079","","","","","5","html-slider-response","1246","","","","5",""
"2197","hammer","mekno,kitovu,napakyas,layag","napakyas","j","5","html-keyboard-response","1247","j","napakyas","true","",""
"1148","","","","","5","html-slider-response","1248","","","","5",""
