"rt","en_word","options","swa_word","correct_answer","phase","trial_type","trial_index","input_answer","input_word","accuracy","certainty","amt_choices"
"3766","bonfire","mwezi,mfuko,kusanya,goti","goti","n","2","html-keyboard-response","106","n","goti","true","",""
"2764.899999976158","","","","","2","html-slider-response","107","","","","5",""
"6114","flower","bega,tamasha,lobo,usiku","bega","f","2","html-keyboard-response","108","f","bega","true","",""
"2211.899999976158","","","","","2","html-slider-response","109","","","","1",""
"4168","column","pundok,dila,pala,ufagio","ufagio","n","2","html-keyboard-response","110","n","ufagio","true","",""
"2628","","","","","2","html-slider-response","111","","","","4",""
"4179","music","mraba,mageho,baiski,tumbo","baiski","j","2","html-keyboard-response","112","j","baiski","true","",""
"2137.699999988079","","","","","2","html-slider-response","113","","","","4",""
"3282","spider","bunyag,mkboa,atop,kamwe","kamwe","n","2","html-keyboard-response","114","n","kamwe","true","",""
"2309.100000023842","","","","","2","html-slider-response","115","","","","5",""
"3017","fork","mgonjwa,baboy,paghago,gorisi","mgonjwa","f","2","html-keyboard-response","116","f","mgonjwa","true","",""
"2125.900000035763","","","","","2","html-slider-response","117","","","","1",""
"2673","mosquito","isda,martilyo,taras,gutom","martilyo","v","2","html-keyboard-response","118","v","martilyo","true","",""
"1998","","","","","2","html-slider-response","119","","","","5",""
"4081","banana","kasamok,kazi,hagdan,twai","kazi","v","2","html-keyboard-response","120","v","kazi","true","",""
"1538.199999988079","","","","","2","html-slider-response","121","","","","4",""
"3492","cup","dagat,shimoni,matumai,jeraha","matumai","j","2","html-keyboard-response","122","f","dagat","false","",""
"1466.5","","","","","2","html-slider-response","123","","","","2",""
"5101","shop","nopya,samaki,kerida,ndezu","samaki","v","2","html-keyboard-response","124","j","kerida","false","",""
"2055.899999976158","","","","","2","html-slider-response","125","","","","1",""
"7891","elephant","kito,petye,pagduol,suka","kito","f","2","html-keyboard-response","126","f","kito","true","",""
"2671.2000000476837","","","","","2","html-slider-response","127","","","","3",""
"5229","bucket","kiatu,baga,ijayo,init","kiatu","f","2","html-keyboard-response","128","f","kiatu","true","",""
"1740.699999988079","","","","","2","html-slider-response","129","","","","4",""
"4068","book","kuhesa,mali,picha,mara","mali","v","2","html-keyboard-response","130","v","mali","true","",""
"1550.5999999642372","","","","","2","html-slider-response","131","","","","5",""
"4291","mirror","sulagma,rangi,kanding,furaha","sulagma","f","2","html-keyboard-response","132","j","kanding","false","",""
"2054.900000035763","","","","","2","html-slider-response","133","","","","1",""
"2446","office","hazini,yatima,kuna,leso","leso","n","2","html-keyboard-response","134","j","kuna","false","",""
"1454.300000011921","","","","","2","html-slider-response","135","","","","2",""
"5235","body","nyundu,jibini,tindashan,kununa","tindashan","j","2","html-keyboard-response","136","j","tindashan","true","",""
"1457.5","","","","","2","html-slider-response","137","","","","5",""
"4457","perfume","bino,katuyoan,sungura,ndogo","katuyoan","v","2","html-keyboard-response","138","v","katuyoan","true","",""
"1919.7999999523163","","","","","2","html-slider-response","139","","","","4",""
"3668","olive","bata,siagi,jiwe,welder","jiwe","j","2","html-keyboard-response","140","v","siagi","false","",""
"1691.7999999523163","","","","","2","html-slider-response","141","","","","1",""
"6339","magazine","kiti,gundi,mchawi,bahandi","kiti","f","2","html-keyboard-response","142","n","bahandi","false","",""
"2508.599999964237","","","","","2","html-slider-response","143","","","","3",""
"5169","bread","kaili,dari,dizeli,bugas","dari","v","2","html-keyboard-response","144","v","dari","true","",""
"2091.2999999523163","","","","","2","html-slider-response","145","","","","3",""
"3920","cave","ganti,maisha,kesho,nyundo","kesho","j","2","html-keyboard-response","146","j","kesho","true","",""
"2137.699999988079","","","","","2","html-slider-response","147","","","","4",""
"3781","ladder","mashua,pangalan,mwanga,kamba","pangalan","v","2","html-keyboard-response","148","n","kamba","false","",""
"2085.100000023842","","","","","2","html-slider-response","149","","","","2",""
"6888","human","tinapay,bado,kikapu,punguza","tinapay","f","2","html-keyboard-response","150","f","tinapay","true","",""
"1863.7999999523163","","","","","2","html-slider-response","151","","","","4",""
"4636","clock","kartasi,abang,mbwa,osha","mbwa","j","2","html-keyboard-response","152","j","mbwa","true","",""
"1678.3999999761581","","","","","2","html-slider-response","153","","","","5",""
"4056","shelf","bungtod,pamahaw,kadaot,awit","pamahaw","v","2","html-keyboard-response","154","v","pamahaw","true","",""
"1704.5","","","","","2","html-slider-response","155","","","","1",""
"4392","salmon","mzungu,seri,baharia,sensilyo","sensilyo","n","2","html-keyboard-response","156","n","sensilyo","true","",""
"1619.800000011921","","","","","2","html-slider-response","157","","","","5",""
"3344","coffin","barua,tubag,kioo,hulma","kioo","j","2","html-keyboard-response","158","j","kioo","true","",""
"1565.6000000238419","","","","","2","html-slider-response","159","","","","4",""
"3859","notebook","msitu,kila,mdudu,kemia","kemia","n","2","html-keyboard-response","160","n","kemia","true","",""
"1670.3999999761581","","","","","2","html-slider-response","161","","","","4",""
"3792","shoulder","kelele,mkuu,ndaniya,guruwe","mkuu","v","2","html-keyboard-response","162","v","mkuu","true","",""
"2183.600000023842","","","","","2","html-slider-response","163","","","","2",""
"4270","park","bunifu,tambok,pwani,ihalas","bunifu","f","2","html-keyboard-response","164","v","tambok","false","",""
"1587.199999988079","","","","","2","html-slider-response","165","","","","1",""
"6949","number","mundamo,shule,kengele,choori","mundamo","f","2","html-keyboard-response","166","f","mundamo","true","",""
"1927.6000000238419","","","","","2","html-slider-response","167","","","","3",""
"2466","apple","ukame,estante,edad,kisu","kisu","n","2","html-keyboard-response","168","n","kisu","true","",""
"1513.5999999642372","","","","","2","html-slider-response","169","","","","1",""
"5553","letter","kifua,filimbi,chuma,uhuru","kifua","f","2","html-keyboard-response","170","v","filimbi","false","",""
"2150.300000011921","","","","","2","html-slider-response","171","","","","1",""
"7239","eel","ishara,kunywa,kabuang,msumari","msumari","n","2","html-keyboard-response","172","v","kunywa","false","",""
"1505.3999999761581","","","","","2","html-slider-response","173","","","","4",""
"3525","cop","bustani,mechezo,jikoni,bakus","mechezo","v","2","html-keyboard-response","174","n","bakus","false","",""
"2653.400000035763","","","","","2","html-slider-response","175","","","","4",""
"4002","wolf","kaburi,lugha,ndizi,mchuzi","lugha","v","2","html-keyboard-response","176","j","ndizi","false","",""
"1939.3999999761581","","","","","2","html-slider-response","177","","","","1",""
"4452","squirrel","hofu,mahugaw,ukweli,kichwa","hofu","f","2","html-keyboard-response","178","f","hofu","true","",""
"2552.600000023842","","","","","2","html-slider-response","179","","","","3",""
"4506","nose","sehemu,gubat,kopa,kidole","sehemu","f","2","html-keyboard-response","180","j","kopa","false","",""
"1982.5","","","","","2","html-slider-response","181","","","","4",""
"7148","sock","ndoora,kimysa,mamba,mtirka","mamba","j","2","html-keyboard-response","182","f","ndoora","false","",""
"2702.399999976158","","","","","2","html-slider-response","183","","","","1",""
"3960","bank","kudhibi,tualya,ofisi,silingan","silingan","n","2","html-keyboard-response","184","v","tualya","false","",""
"1935.800000011921","","","","","2","html-slider-response","185","","","","2",""
"4295","donkey","bloke,lalake,elfu,rombus","elfu","j","2","html-keyboard-response","186","j","elfu","true","",""
"1690.1000000238419","","","","","2","html-slider-response","187","","","","4",""
"4416","poster","nchi,fedha,kasuko,madungog","madungog","n","2","html-keyboard-response","188","n","madungog","true","",""
"2114.800000011921","","","","","2","html-slider-response","189","","","","2",""
"8624","puppet","mazishi,napulo,lamok,godoro","mazishi","f","2","html-keyboard-response","190","f","mazishi","true","",""
"1906.8999999761581","","","","","2","html-slider-response","191","","","","3",""
"2862","hill","kushoto,kukimba,sweta,matumbo","matumbo","n","2","html-keyboard-response","192","j","sweta","false","",""
"1793.699999988079","","","","","2","html-slider-response","193","","","","1",""
"2183","tooth","kijiko,uadui,kabalaka,pahiyum","kabalaka","j","2","html-keyboard-response","194","j","kabalaka","true","",""
"1557.3999999761581","","","","","2","html-slider-response","195","","","","1",""
"2788","woman","pagtabon,bandari,bituin,kovuli","pagtabon","f","2","html-keyboard-response","196","n","kovuli","false","",""
"1743.2999999523163","","","","","2","html-slider-response","197","","","","2",""
"2777","wheel","punda,tawo,bafuni,baadaye","bafuni","j","2","html-keyboard-response","198","n","baadaye","false","",""
"1517.699999988079","","","","","2","html-slider-response","199","","","","1",""
"3168","mother","kahawa,babaye,mbuzi,jokofu","babaye","v","2","html-keyboard-response","200","v","babaye","true","",""
"1534.0999999642372","","","","","2","html-slider-response","201","","","","2",""
"2147","bed","kalipay,haraka,starehe,mapintas","mapintas","n","2","html-keyboard-response","202","f","kalipay","false","",""
"1890.3999999761581","","","","","2","html-slider-response","203","","","","1",""
"3174","key","chombo,miaka,goma,ahos","chombo","f","2","html-keyboard-response","204","v","miaka","false","",""
"1368.5","","","","","2","html-slider-response","205","","","","4",""
"3366","page","wakala,ishiri,wimbo,skina","wimbo","j","2","html-keyboard-response","206","v","ishiri","false","",""
"1480.5","","","","","2","html-slider-response","207","","","","5",""
"3957","pants","pintal,chuki,hari,haki","haki","n","2","html-keyboard-response","208","j","hari","false","",""
"2324","","","","","2","html-slider-response","209","","","","4",""
"3571","sun","bendi,luha,basi,uongo","basi","j","2","html-keyboard-response","210","v","luha","false","",""
"2527.400000035763","","","","","2","html-slider-response","211","","","","3",""
"4114","finger","simu,sufuria,moyo,lima","moyo","j","2","html-keyboard-response","212","f","simu","false","",""
"1509.5999999642372","","","","","2","html-slider-response","213","","","","2",""
"7686","shoe","nyeusi,uyoga,hatua,kama","uyoga","v","2","html-keyboard-response","214","n","kama","false","",""
"7981.5","","","","","2","html-slider-response","215","","","","4",""
"3796","giraffe","daraja,jumatu,hangyo,mahitabo","mahitabo","n","2","html-keyboard-response","216","n","mahitabo","true","",""
"5458.399999976158","","","","","2","html-slider-response","217","","","","5",""
"5138","dog","bahari,lubi,washia,kalamu","bahari","f","2","html-keyboard-response","218","f","bahari","true","",""
"2069","","","","","2","html-slider-response","219","","","","3",""
"2425","box","adui,kuacha,rafiki,kitande","adui","f","2","html-keyboard-response","220","f","adui","true","",""
"1763.699999988079","","","","","2","html-slider-response","221","","","","4",""
"5587","scissors","duga,mtawa,suga,tanuri","tanuri","n","2","html-keyboard-response","222","f","duga","false","",""
"1561.199999988079","","","","","2","html-slider-response","223","","","","2",""
"4864","cat","neyemba,baki,akili,paghukom","paghukom","n","2","html-keyboard-response","224","n","paghukom","true","",""
"1604.199999988079","","","","","2","html-slider-response","225","","","","5",""
"7081","basket","kumba,kumbuka,utepe,hasira","kumba","f","2","html-keyboard-response","226","v","kumbuka","false","",""
"1551.300000011921","","","","","2","html-slider-response","227","","","","2",""
"4472","snake","jansa,pagtukod,karon,mvringo","pagtukod","v","2","html-keyboard-response","228","n","mvringo","false","",""
"3670","","","","","2","html-slider-response","229","","","","1",""
"6363","gift","baba,nyange,pagtawag,baso","pagtawag","j","2","html-keyboard-response","230","j","pagtawag","true","",""
"2602.800000011921","","","","","2","html-slider-response","231","","","","3",""
"7703","train","sayari,itik,dakika,mungu","sayari","f","2","html-keyboard-response","232","f","sayari","true","",""
"1683.5999999642372","","","","","2","html-slider-response","233","","","","4",""
"3272","pudding","abug,mpishi,aibu,iring","aibu","j","2","html-keyboard-response","234","f","abug","false","",""
"1692.3999999761581","","","","","2","html-slider-response","235","","","","1",""
"4374","tomato","chupi,chupa,mvua,takatak","mvua","j","2","html-keyboard-response","236","j","mvua","true","",""
"2057.699999988079","","","","","2","html-slider-response","237","","","","5",""
"3797","stone","ulimwengu,mkasi,wingi,asili","wingi","j","2","html-keyboard-response","238","n","asili","false","",""
"2149.300000011921","","","","","2","html-slider-response","239","","","","2",""
"2715","hammer","napakyas,mekno,kitovu,layag","napakyas","f","2","html-keyboard-response","240","v","mekno","false","",""
"1499.800000011921","","","","","2","html-slider-response","241","","","","1",""
"3934","knee","duka,mvuke,kubale,bili","duka","f","2","html-keyboard-response","242","f","duka","true","",""
"1512.5","","","","","2","html-slider-response","243","","","","5",""
"2831","ceiling","kugita,kawaida,maua,rayna","maua","j","2","html-keyboard-response","244","v","kawaida","false","",""
"1847.800000011921","","","","","2","html-slider-response","245","","","","4",""
"2862","spoon","betri,nzuri,ngazi,pagsulod","pagsulod","n","2","html-keyboard-response","246","n","pagsulod","true","",""
"2074.599999964237","","","","","2","html-slider-response","247","","","","2",""
"7321","marker","maji,mapafu,salita,atay","maji","f","2","html-keyboard-response","248","n","atay","false","",""
"2606.399999976158","","","","","2","html-slider-response","249","","","","4",""
"1913","candle","gabi,farasi,kupanda,geza","geza","n","2","html-keyboard-response","250","f","gabi","false","",""
"1209.199999988079","","","","","2","html-slider-response","251","","","","2",""
"961","tissue","lamigas,kisiwa,ugomvi,katika","ugomvi","j","2","html-keyboard-response","252","v","kisiwa","false","",""
"1977.199999988079","","","","","2","html-slider-response","253","","","","5",""
"1581","bridge","sahani,daima,ngono,panya","sahani","f","2","html-keyboard-response","254","f","sahani","true","",""
"1477.300000011921","","","","","2","html-slider-response","255","","","","2",""
"3159","berry","kofia,abogado,nogozi,kinywa","kofia","f","2","html-keyboard-response","256","j","nogozi","false","",""
"3811.699999988079","","","","","2","html-slider-response","257","","","","3",""
"2584","triangle","kihozi,bentaha,liog,kasadpan","kasadpan","n","2","html-keyboard-response","258","n","kasadpan","true","",""
"2582.800000011921","","","","","2","html-slider-response","259","","","","3",""
"2881","door","tena,surali,soko,nyota","surali","v","2","html-keyboard-response","260","f","tena","false","",""
"2221.899999976158","","","","","2","html-slider-response","261","","","","1",""
"2561","fish","bala,baho,imani,buli","buli","n","2","html-keyboard-response","262","v","baho","false","",""
"1700.300000011921","","","","","2","html-slider-response","263","","","","2",""
"4221","curtain","lisud,bulwawan,chubani,mchanga","mchanga","n","2","html-keyboard-response","264","n","mchanga","true","",""
"2855.5","","","","","2","html-slider-response","265","","","","1",""
"1886","flag","ndege,mkate,kawa,trekta","trekta","n","2","html-keyboard-response","266","v","mkate","false","",""
"1316.699999988079","","","","","2","html-slider-response","267","","","","2",""
"3658","boat","hamsi,pombe,kitanda,agalon","agalon","n","2","html-keyboard-response","268","j","kitanda","false","",""
"1491.199999988079","","","","","2","html-slider-response","269","","","","4",""
"2326","rose","paghalad,singizi,mwanake,amani","paghalad","f","2","html-keyboard-response","270","n","amani","false","",""
"1382.699999988079","","","","","2","html-slider-response","271","","","","2",""
"2732","lamp","daub,afya,bilaska,mbolea","afya","v","2","html-keyboard-response","272","v","afya","true","",""
"1864.300000011921","","","","","2","html-slider-response","273","","","","4",""
"2468","cigar","ndugu,kuta,mlango,adhabu","adhabu","n","2","html-keyboard-response","274","v","kuta","false","",""
"1592.699999988079","","","","","2","html-slider-response","275","","","","1",""
"2806","list","alizeti,wingu,kuzama,kaso","wingu","v","2","html-keyboard-response","276","v","wingu","true","",""
"1952","","","","","2","html-slider-response","277","","","","5",""
"4118","sheet","juuya,watu,kamantis,bililhon","bililhon","n","2","html-keyboard-response","278","n","bililhon","true","",""
"2322.100000023842","","","","","2","html-slider-response","279","","","","2",""
"1448","picture","silya,chaki,asin,kubwa","kubwa","n","2","html-keyboard-response","280","f","silya","false","",""
"1923.699999988079","","","","","2","html-slider-response","281","","","","1",""
"5469","towel","tembo,funzi,pito,pagpalit","pagpalit","n","2","html-keyboard-response","282","n","pagpalit","true","",""
"2448.699999988079","","","","","2","html-slider-response","283","","","","3",""
"5650","window","kweli,nanga,kujenga,umaga","kweli","f","2","html-keyboard-response","284","n","umaga","false","",""
"1488.4000000357628","","","","","2","html-slider-response","285","","","","2",""
"5878","box","kuacha,rafiki,adui,kitande","adui","j","3","html-keyboard-response","293","j","adui","true","","4"
"3473.300000011921","","","","","3","html-slider-response","294","","","","5",""
"2371","","","","","3","html-keyboard-response","295","","","","",""
"4226","pants","pintal,chuki,hari,haki","haki","n","3","html-keyboard-response","296","j","hari","false","","4"
"2327.600000023842","","","","","3","html-slider-response","297","","","","2",""
"9213","","","","","3","html-keyboard-response","298","","","","",""
"5178","cup","matumai,dagat,shimoni,jeraha","matumai","f","3","html-keyboard-response","299","v","dagat","false","","4"
"2703.100000023842","","","","","3","html-slider-response","300","","","","4",""
"7946","","","","","3","html-keyboard-response","301","","","","",""
"6879","triangle","kihozi,bentaha,liog,kasadpan","kasadpan","n","3","html-keyboard-response","302","n","kasadpan","true","","4"
"3172.399999976158","","","","","3","html-slider-response","303","","","","1",""
"12069","","","","","3","html-keyboard-response","304","","","","",""
"5322","curtain","mchanga,lisud,bulwawan,chubani","mchanga","f","3","html-keyboard-response","305","v","lisud","false","","4"
"2332.899999976158","","","","","3","html-slider-response","306","","","","2",""
"11430","","","","","3","html-keyboard-response","307","","","","",""
"5996","clock","kartasi,abang,osha,mbwa","mbwa","n","3","html-keyboard-response","308","n","mbwa","true","","4"
"2100.699999988079","","","","","3","html-slider-response","309","","","","4",""
"3823","","","","","3","html-keyboard-response","310","","","","",""
"5041","mirror","sulagma,rangi,kanding,furaha","sulagma","f","3","html-keyboard-response","311","f","sulagma","true","","4"
"2273.900000035763","","","","","3","html-slider-response","312","","","","4",""
"3902","","","","","3","html-keyboard-response","313","","","","",""
"3201","coffin","barua,tubag,hulma,kioo","kioo","n","3","html-keyboard-response","314","n","kioo","true","","1"
"3115.899999976158","","","","","3","html-slider-response","315","","","","5",""
"1596","","","","","3","html-keyboard-response","316","","","","",""
"6806","magazine","gundi,mchawi,bahandi,kiti","kiti","n","3","html-keyboard-response","317","f","gundi","false","","4"
"1700.9000000357628","","","","","3","html-slider-response","318","","","","2",""
"5182","","","","","3","html-keyboard-response","319","","","","",""
"3586","column","pundok,dila,pala,ufagio","ufagio","n","3","html-keyboard-response","320","n","ufagio","true","","1"
"2590.699999988079","","","","","3","html-slider-response","321","","","","5",""
"1801","","","","","3","html-keyboard-response","322","","","","",""
"5201","number","shule,kengele,mundamo,choori","mundamo","j","3","html-keyboard-response","323","j","mundamo","true","","4"
"2380.300000011921","","","","","3","html-slider-response","324","","","","4",""
"7448","","","","","3","html-keyboard-response","325","","","","",""
"4721","rose","singizi,mwanake,paghalad,amani","paghalad","j","3","html-keyboard-response","326","j","paghalad","true","","4"
"1840.3999999761581","","","","","3","html-slider-response","327","","","","1",""
"10273","","","","","3","html-keyboard-response","328","","","","",""
"8869","eel","ishara,msumari,kunywa,kabuang","msumari","v","3","html-keyboard-response","329","n","kabuang","false","","4"
"2434.699999988079","","","","","3","html-slider-response","330","","","","1",""
"6285","","","","","3","html-keyboard-response","331","","","","",""
"3835","gift","pagtawag,baba,nyange,baso","pagtawag","f","3","html-keyboard-response","332","f","pagtawag","true","","4"
"3333.099999964237","","","","","3","html-slider-response","333","","","","3",""
"7683","","","","","3","html-keyboard-response","334","","","","",""
"2484","apple","kisu,ukame,estante,edad","kisu","f","3","html-keyboard-response","335","f","kisu","true","","1"
"2129.199999988079","","","","","3","html-slider-response","336","","","","5",""
"2015","","","","","3","html-keyboard-response","337","","","","",""
"7479","wheel","punda,tawo,baadaye,bafuni","bafuni","n","3","html-keyboard-response","338","n","bafuni","true","","1"
"3527","","","","","3","html-slider-response","339","","","","5",""
"945","","","","","3","html-keyboard-response","340","","","","",""
"2930","knee","mvuke,duka,kubale,bili","duka","v","3","html-keyboard-response","341","v","duka","true","","4"
"2011.5999999642372","","","","","3","html-slider-response","342","","","","5",""
"1028","","","","","3","html-keyboard-response","343","","","","",""
"5487","basket","kumbuka,utepe,hasira,kumba","kumba","n","3","html-keyboard-response","344","n","kumba","true","","1"
"2099.5","","","","","3","html-slider-response","345","","","","5",""
"784","","","","","3","html-keyboard-response","346","","","","",""
"3391","park","tambok,pwani,ihalas,bunifu","bunifu","n","3","html-keyboard-response","347","j","ihalas","false","","4"
"2314","","","","","3","html-slider-response","348","","","","2",""
"5143","","","","","3","html-keyboard-response","349","","","","",""
"4968","finger","simu,sufuria,moyo,lima","moyo","j","3","html-keyboard-response","350","f","simu","false","","4"
"2295.899999976158","","","","","3","html-slider-response","351","","","","3",""
"6489","","","","","3","html-keyboard-response","352","","","","",""
"5658","boat","hamsi,pombe,kitanda,agalon","agalon","n","3","html-keyboard-response","353","v","pombe","false","","4"
"2457.300000011921","","","","","3","html-slider-response","354","","","","2",""
"6532","","","","","3","html-keyboard-response","355","","","","",""
"3081","hill","kushoto,kukimba,sweta,matumbo","matumbo","n","3","html-keyboard-response","356","j","sweta","false","","4"
"2891.699999988079","","","","","3","html-slider-response","357","","","","4",""
"5578","","","","","3","html-keyboard-response","358","","","","",""
"3528","train","itik,dakika,mungu,sayari","sayari","n","3","html-keyboard-response","359","n","sayari","true","","4"
"1839.6000000238419","","","","","3","html-slider-response","360","","","","2",""
"2598","","","","","3","html-keyboard-response","361","","","","",""
"4543","wolf","kaburi,lugha,ndizi,mchuzi","lugha","v","3","html-keyboard-response","362","j","ndizi","false","","4"
"2185.800000011921","","","","","3","html-slider-response","363","","","","4",""
"7115","","","","","3","html-keyboard-response","364","","","","",""
"4942","snake","jansa,pagtukod,karon,mvringo","pagtukod","v","3","html-keyboard-response","365","v","pagtukod","true","","4"
"2200.600000023842","","","","","3","html-slider-response","366","","","","5",""
"4705","","","","","3","html-keyboard-response","367","","","","",""
"4839","tooth","kabalaka,kijiko,uadui,pahiyum","kabalaka","f","3","html-keyboard-response","368","j","uadui","false","","4"
"2014.1000000238419","","","","","3","html-slider-response","369","","","","1",""
"5662","","","","","3","html-keyboard-response","370","","","","",""
"3882","notebook","msitu,kila,kemia,mdudu","kemia","j","3","html-keyboard-response","371","j","kemia","true","","4"
"2512.300000011921","","","","","3","html-slider-response","372","","","","5",""
"1415","","","","","3","html-keyboard-response","373","","","","",""
"3716","flag","ndege,mkate,trekta,kawa","trekta","j","3","html-keyboard-response","374","f","ndege","false","","4"
"1804.6000000238419","","","","","3","html-slider-response","375","","","","2",""
"3912","","","","","3","html-keyboard-response","376","","","","",""
"3693","squirrel","mahugaw,ukweli,hofu,kichwa","hofu","j","3","html-keyboard-response","377","n","kichwa","false","","4"
"2138.600000023842","","","","","3","html-slider-response","378","","","","4",""
"5488","","","","","3","html-keyboard-response","379","","","","",""
"5684","door","surali,tena,soko,nyota","surali","f","3","html-keyboard-response","380","n","nyota","false","","4"
"2117.399999976158","","","","","3","html-slider-response","381","","","","1",""
"4433","","","","","3","html-keyboard-response","382","","","","",""
"3180","salmon","mzungu,seri,sensilyo,baharia","sensilyo","j","3","html-keyboard-response","383","j","sensilyo","true","","4"
"3237.599999964237","","","","","3","html-slider-response","384","","","","5",""
"1359","","","","","3","html-keyboard-response","385","","","","",""
"3200","shoulder","kelele,mkuu,ndaniya,guruwe","mkuu","v","3","html-keyboard-response","386","f","kelele","false","","4"
"2602.5","","","","","3","html-slider-response","387","","","","4",""
"5478","","","","","3","html-keyboard-response","388","","","","",""
"7296","lamp","afya,daub,bilaska,mbolea","afya","f","3","html-keyboard-response","389","n","mbolea","false","","4"
"3024.300000011921","","","","","3","html-slider-response","390","","","","2",""
"7199","","","","","3","html-keyboard-response","391","","","","",""
"4571","shelf","pamahaw,bungtod,kadaot,awit","pamahaw","f","3","html-keyboard-response","392","f","pamahaw","true","","1"
"2191.5","","","","","3","html-slider-response","393","","","","5",""
"1024","","","","","3","html-keyboard-response","394","","","","",""
"2912","human","tinapay,bado,kikapu,punguza","tinapay","f","3","html-keyboard-response","395","f","tinapay","true","","4"
"2120.900000035763","","","","","3","html-slider-response","396","","","","4",""
"3431","","","","","3","html-keyboard-response","397","","","","",""
"6277","towel","tembo,funzi,pagpalit,pito","pagpalit","j","3","html-keyboard-response","398","f","tembo","false","","4"
"1768.5","","","","","3","html-slider-response","399","","","","2",""
"5763","","","","","3","html-keyboard-response","400","","","","",""
"4420","cat","paghukom,neyemba,baki,akili","paghukom","f","3","html-keyboard-response","401","f","paghukom","true","","4"
"2074.300000011921","","","","","3","html-slider-response","402","","","","5",""
"1016","","","","","3","html-keyboard-response","403","","","","",""
"3533","spider","bunyag,mkboa,atop,kamwe","kamwe","n","3","html-keyboard-response","404","n","kamwe","true","","4"
"2073.5","","","","","3","html-slider-response","405","","","","5",""
"18683","","","","","3","html-keyboard-response","406","","","","",""
"10164","window","nanga,kweli,kujenga,umaga","kweli","v","3","html-keyboard-response","407","j","kujenga","false","","4"
"3505.899999976158","","","","","3","html-slider-response","408","","","","2",""
"8017","","","","","3","html-keyboard-response","409","","","","",""
"2304","woman","bandari,bituin,pagtabon,kovuli","pagtabon","j","3","html-keyboard-response","410","j","pagtabon","true","","1"
"2527.800000011921","","","","","3","html-slider-response","411","","","","5",""
"4907","","","","","3","html-keyboard-response","412","","","","",""
"4009","giraffe","daraja,mahitabo,jumatu,hangyo","mahitabo","v","3","html-keyboard-response","413","v","mahitabo","true","","4"
"2898.199999988079","","","","","3","html-slider-response","414","","","","5",""
"1214","","","","","3","html-keyboard-response","415","","","","",""
"10031","elephant","petye,kito,pagduol,suka","kito","v","3","html-keyboard-response","416","j","pagduol","false","","4"
"2388.900000035763","","","","","3","html-slider-response","417","","","","1",""
"6496","","","","","3","html-keyboard-response","418","","","","",""
"4076","cave","ganti,kesho,maisha,nyundo","kesho","v","3","html-keyboard-response","419","v","kesho","true","","4"
"2097.800000011921","","","","","3","html-slider-response","420","","","","2",""
"7524","","","","","3","html-keyboard-response","421","","","","",""
"4470","bread","kaili,dari,dizeli,bugas","dari","v","3","html-keyboard-response","422","v","dari","true","","4"
"2463.600000023842","","","","","3","html-slider-response","423","","","","1",""
"2632","","","","","3","html-keyboard-response","424","","","","",""
"2783","stone","wingi,ulimwengu,mkasi,asili","wingi","f","3","html-keyboard-response","425","n","asili","false","","4"
"1754","","","","","3","html-slider-response","426","","","","4",""
"1470","","","","","3","html-keyboard-response","427","","","","",""
"3268","donkey","bloke,lalake,rombus,elfu","elfu","n","3","html-keyboard-response","428","n","elfu","true","","4"
"1894.3999999761581","","","","","3","html-slider-response","429","","","","5",""
"1583","","","","","3","html-keyboard-response","430","","","","",""
"5183","bridge","sahani,daima,ngono,panya","sahani","f","3","html-keyboard-response","431","j","ngono","false","","4"
"1614.8999999761581","","","","","3","html-slider-response","432","","","","1",""
"3616","","","","","3","html-keyboard-response","433","","","","",""
"5857","bonfire","goti,mwezi,mfuko,kusanya","goti","f","3","html-keyboard-response","434","f","goti","true","","4"
"2530.899999976158","","","","","3","html-slider-response","435","","","","5",""
"1619","","","","","3","html-keyboard-response","436","","","","",""
"3191","book","mali,kuhesa,picha,mara","mali","f","3","html-keyboard-response","437","f","mali","true","","4"
"2206.400000035763","","","","","3","html-slider-response","438","","","","5",""
"928","","","","","3","html-keyboard-response","439","","","","",""
"3921","fish","bala,baho,imani,buli","buli","n","3","html-keyboard-response","440","n","buli","true","","4"
"2346.300000011921","","","","","3","html-slider-response","441","","","","2",""
"1663","","","","","3","html-keyboard-response","442","","","","",""
"3262","spoon","pagsulod,betri,nzuri,ngazi","pagsulod","f","3","html-keyboard-response","443","j","nzuri","false","","4"
"1789","","","","","3","html-slider-response","444","","","","2",""
"2800","","","","","3","html-keyboard-response","445","","","","",""
"7213","scissors","duga,mtawa,tanuri,suga","tanuri","j","3","html-keyboard-response","446","j","tanuri","true","","4"
"1583","","","","","3","html-slider-response","447","","","","1",""
"2224","","","","","3","html-keyboard-response","448","","","","",""
"4784","page","wakala,ishiri,skina,wimbo","wimbo","n","3","html-keyboard-response","449","f","wakala","false","","4"
"1736.5","","","","","3","html-slider-response","450","","","","2",""
"2987","","","","","3","html-keyboard-response","451","","","","",""
"2015","nose","gubat,kopa,sehemu,kidole","sehemu","j","3","html-keyboard-response","452","j","sehemu","true","","1"
"3180.099999964237","","","","","3","html-slider-response","453","","","","5",""
"4151","","","","","3","html-keyboard-response","454","","","","",""
"4659","ceiling","kugita,kawaida,maua,rayna","maua","j","3","html-keyboard-response","455","v","kawaida","false","","4"
"1648.9000000357628","","","","","3","html-slider-response","456","","","","2",""
"7132","","","","","3","html-keyboard-response","457","","","","",""
"4429","bucket","baga,ijayo,init,kiatu","kiatu","n","3","html-keyboard-response","458","v","ijayo","false","","4"
"2401.899999976158","","","","","3","html-slider-response","459","","","","1",""
"4563","","","","","3","html-keyboard-response","460","","","","",""
"3471","berry","abogado,nogozi,kofia,kinywa","kofia","j","3","html-keyboard-response","461","j","kofia","true","","1"
"2802.600000023842","","","","","3","html-slider-response","462","","","","5",""
"2824","","","","","3","html-keyboard-response","463","","","","",""
"2709","mother","kahawa,babaye,mbuzi,jokofu","babaye","v","3","html-keyboard-response","464","v","babaye","true","","1"
"1918.9000000357628","","","","","3","html-slider-response","465","","","","5",""
"940","","","","","3","html-keyboard-response","466","","","","",""
"5837","mosquito","martilyo,isda,taras,gutom","martilyo","f","3","html-keyboard-response","467","f","martilyo","true","","4"
"1974","","","","","3","html-slider-response","468","","","","4",""
"8903","","","","","3","html-keyboard-response","469","","","","",""
"5406","perfume","katuyoan,bino,sungura,ndogo","katuyoan","f","3","html-keyboard-response","470","f","katuyoan","true","","4"
"2212.599999964237","","","","","3","html-slider-response","471","","","","5",""
"678","","","","","3","html-keyboard-response","472","","","","",""
"9931","sheet","juuya,bililhon,watu,kamantis","bililhon","v","3","html-keyboard-response","473","n","kamantis","false","","4"
"1963.300000011921","","","","","3","html-slider-response","474","","","","1",""
"10871","","","","","3","html-keyboard-response","475","","","","",""
"4996","puppet","napulo,lamok,godoro,mazishi","mazishi","n","3","html-keyboard-response","476","n","mazishi","true","","1"
"2398.800000011921","","","","","3","html-slider-response","477","","","","5",""
"1225","","","","","3","html-keyboard-response","478","","","","",""
"3346","poster","nchi,fedha,kasuko,madungog","madungog","n","3","html-keyboard-response","479","j","kasuko","false","","4"
"2210","","","","","3","html-slider-response","480","","","","4",""
"4556","","","","","3","html-keyboard-response","481","","","","",""
"5341","music","mraba,mageho,baiski,tumbo","baiski","j","3","html-keyboard-response","482","n","tumbo","false","","4"
"1998.5999999642372","","","","","3","html-slider-response","483","","","","2",""
"3324","","","","","3","html-keyboard-response","484","","","","",""
"4586","key","miaka,goma,chombo,ahos","chombo","j","3","html-keyboard-response","485","v","goma","false","","4"
"1624.8999999761581","","","","","3","html-slider-response","486","","","","1",""
"1547","","","","","3","html-keyboard-response","487","","","","",""
"6707","sock","ndoora,mamba,kimysa,mtirka","mamba","v","3","html-keyboard-response","488","v","mamba","true","","4"
"1957","","","","","3","html-slider-response","489","","","","5",""
"768","","","","","3","html-keyboard-response","490","","","","",""
"3505","marker","mapafu,maji,salita,atay","maji","v","3","html-keyboard-response","491","n","atay","false","","4"
"2352.699999988079","","","","","3","html-slider-response","492","","","","2",""
"868","","","","","3","html-keyboard-response","493","","","","",""
"5888","office","hazini,yatima,leso,kuna","leso","j","3","html-keyboard-response","494","f","hazini","false","","4"
"1650.0999999642372","","","","","3","html-slider-response","495","","","","2",""
"990","","","","","3","html-keyboard-response","496","","","","",""
"3603","shoe","nyeusi,uyoga,hatua,kama","uyoga","v","3","html-keyboard-response","497","v","uyoga","true","","4"
"1577.199999988079","","","","","3","html-slider-response","498","","","","4",""
"2845","","","","","3","html-keyboard-response","499","","","","",""
"4065","cop","bustani,jikoni,mechezo,bakus","mechezo","j","3","html-keyboard-response","500","n","bakus","false","","4"
"1969.1000000238419","","","","","3","html-slider-response","501","","","","5",""
"8180","","","","","3","html-keyboard-response","502","","","","",""
"7946","bank","kudhibi,tualya,silingan,ofisi","silingan","j","3","html-keyboard-response","503","v","tualya","false","","4"
"1438.800000011921","","","","","3","html-slider-response","504","","","","1",""
"7852","","","","","3","html-keyboard-response","505","","","","",""
"4899","letter","filimbi,kifua,chuma,uhuru","kifua","v","3","html-keyboard-response","506","v","kifua","true","","1"
"1781.800000011921","","","","","3","html-slider-response","507","","","","5",""
"846","","","","","3","html-keyboard-response","508","","","","",""
"4514","dog","bahari,lubi,washia,kalamu","bahari","f","3","html-keyboard-response","509","f","bahari","true","","1"
"1851","","","","","3","html-slider-response","510","","","","5",""
"1049","","","","","3","html-keyboard-response","511","","","","",""
"4164","shop","nopya,samaki,kerida,ndezu","samaki","v","3","html-keyboard-response","512","n","ndezu","false","","4"
"1620.0999999642372","","","","","3","html-slider-response","513","","","","2",""
"4821","","","","","3","html-keyboard-response","514","","","","",""
"7118","flower","tamasha,lobo,bega,usiku","bega","j","3","html-keyboard-response","515","n","usiku","false","","4"
"1580.199999988079","","","","","3","html-slider-response","516","","","","1",""
"3393","","","","","3","html-keyboard-response","517","","","","",""
"9073","cigar","ndugu,adhabu,kuta,mlango","adhabu","v","3","html-keyboard-response","518","v","adhabu","true","","1"
"2224.5","","","","","3","html-slider-response","519","","","","5",""
"962","","","","","3","html-keyboard-response","520","","","","",""
"6608","hammer","mekno,napakyas,kitovu,layag","napakyas","v","3","html-keyboard-response","521","v","napakyas","true","","4"
"1619.8999999761581","","","","","3","html-slider-response","522","","","","2",""
"11102","","","","","3","html-keyboard-response","523","","","","",""
"4024","fork","baboy,paghago,mgonjwa,gorisi","mgonjwa","j","3","html-keyboard-response","524","j","mgonjwa","true","","4"
"1637.2000000476837","","","","","3","html-slider-response","525","","","","1",""
"9011","","","","","3","html-keyboard-response","526","","","","",""
"2683","sun","bendi,luha,uongo,basi","basi","n","3","html-keyboard-response","527","n","basi","true","","1"
"1855","","","","","3","html-slider-response","528","","","","5",""
"844","","","","","3","html-keyboard-response","529","","","","",""
"5805","ladder","pangalan,mashua,mwanga,kamba","pangalan","f","3","html-keyboard-response","530","f","pangalan","true","","4"
"2064.900000035763","","","","","3","html-slider-response","531","","","","3",""
"4126","","","","","3","html-keyboard-response","532","","","","",""
"2708","banana","kazi,kasamok,hagdan,twai","kazi","f","3","html-keyboard-response","533","f","kazi","true","","1"
"2534.400000035763","","","","","3","html-slider-response","534","","","","5",""
"2204","","","","","3","html-keyboard-response","535","","","","",""
"3723","pudding","abug,mpishi,iring,aibu","aibu","n","3","html-keyboard-response","536","v","mpishi","false","","4"
"2086.5","","","","","3","html-slider-response","537","","","","2",""
"2128","","","","","3","html-keyboard-response","538","","","","",""
"8503","body","nyundu,jibini,tindashan,kununa","tindashan","j","3","html-keyboard-response","539","j","tindashan","true","","4"
"1899.699999988079","","","","","3","html-slider-response","540","","","","5",""
"1858","","","","","3","html-keyboard-response","541","","","","",""
"2950","bed","mapintas,kalipay,haraka,starehe","mapintas","f","3","html-keyboard-response","542","v","kalipay","false","","4"
"1399.9000000357628","","","","","3","html-slider-response","543","","","","2",""
"6899","","","","","3","html-keyboard-response","544","","","","",""
"6688","tissue","lamigas,kisiwa,katika,ugomvi","ugomvi","n","3","html-keyboard-response","545","j","katika","false","","4"
"3159.199999988079","","","","","3","html-slider-response","546","","","","4",""
"4089","","","","","3","html-keyboard-response","547","","","","",""
"4567","candle","gabi,farasi,geza,kupanda","geza","j","3","html-keyboard-response","548","j","geza","true","","4"
"1492.300000011921","","","","","3","html-slider-response","549","","","","2",""
"1990","","","","","3","html-keyboard-response","550","","","","",""
"5167","tomato","mvua,chupi,chupa,takatak","mvua","f","3","html-keyboard-response","551","f","mvua","true","","1"
"2059.100000023842","","","","","3","html-slider-response","552","","","","5",""
"906","","","","","3","html-keyboard-response","553","","","","",""
"2659","list","alizeti,wingu,kuzama,kaso","wingu","v","3","html-keyboard-response","554","v","wingu","true","","4"
"1634.1000000238419","","","","","3","html-slider-response","555","","","","5",""
"994","","","","","3","html-keyboard-response","556","","","","",""
"3505","olive","jiwe,bata,siagi,welder","jiwe","f","3","html-keyboard-response","557","j","siagi","false","","4"
"1518.300000011921","","","","","3","html-slider-response","558","","","","2",""
"3492","","","","","3","html-keyboard-response","559","","","","",""
"4476","picture","silya,kubwa,chaki,asin","kubwa","v","3","html-keyboard-response","560","v","kubwa","true","","1"
"1935.199999988079","","","","","3","html-slider-response","561","","","","5",""
"1238","","","","","3","html-keyboard-response","562","","","","",""
"5404","page","wakala,ishiri,skina,wimbo","wimbo","n","4","html-keyboard-response","888","n","wimbo","true","",""
"2571.899999976158","","","","","4","html-slider-response","889","","","","5",""
"5809","sheet","juuya,bililhon,watu,kamantis","bililhon","v","4","html-keyboard-response","890","v","bililhon","true","",""
"1523.5","","","","","4","html-slider-response","891","","","","4",""
"7899","ladder","mashua,pangalan,mwanga,kamba","pangalan","v","4","html-keyboard-response","892","v","pangalan","true","",""
"2021.5","","","","","4","html-slider-response","893","","","","5",""
"9542","door","surali,tena,soko,nyota","surali","f","4","html-keyboard-response","894","f","surali","true","",""
"1383.7999999523163","","","","","4","html-slider-response","895","","","","4",""
"2344","spider","bunyag,kamwe,mkboa,atop","kamwe","v","4","html-keyboard-response","896","v","kamwe","true","",""
"1361.5999999642372","","","","","4","html-slider-response","897","","","","5",""
"4170","picture","silya,chaki,asin,kubwa","kubwa","n","4","html-keyboard-response","898","v","chaki","false","",""
"1621.4000000357628","","","","","4","html-slider-response","899","","","","2",""
"3258","boat","agalon,hamsi,pombe,kitanda","agalon","f","4","html-keyboard-response","900","j","pombe","false","",""
"1436.800000011921","","","","","4","html-slider-response","901","","","","5",""
"3861","donkey","bloke,elfu,lalake,rombus","elfu","v","4","html-keyboard-response","902","v","elfu","true","",""
"1602.3999999761581","","","","","4","html-slider-response","903","","","","5",""
"2555","book","kuhesa,picha,mali,mara","mali","j","4","html-keyboard-response","904","j","mali","true","",""
"2500.7999999523163","","","","","4","html-slider-response","905","","","","4",""
"7211","cup","dagat,shimoni,jeraha,matumai","matumai","n","4","html-keyboard-response","906","n","matumai","true","",""
"2054.899999976158","","","","","4","html-slider-response","907","","","","5",""
"2996","sun","bendi,luha,uongo,basi","basi","n","4","html-keyboard-response","908","n","basi","true","",""
"1850.0999999642372","","","","","4","html-slider-response","909","","","","4",""
"5978","pudding","abug,mpishi,aibu,iring","aibu","j","4","html-keyboard-response","910","j","aibu","true","",""
"2190","","","","","4","html-slider-response","911","","","","4",""
"3437","human","bado,kikapu,punguza,tinapay","tinapay","n","4","html-keyboard-response","912","n","tinapay","true","",""
"1666.5","","","","","4","html-slider-response","913","","","","5",""
"2471","squirrel","mahugaw,hofu,ukweli,kichwa","hofu","v","4","html-keyboard-response","914","v","hofu","true","",""
"1711.9000000357628","","","","","4","html-slider-response","915","","","","4",""
"5675","park","tambok,bunifu,pwani,ihalas","bunifu","v","4","html-keyboard-response","916","v","bunifu","true","",""
"1610.699999988079","","","","","4","html-slider-response","917","","","","4",""
"6012","poster","madungog,nchi,fedha,kasuko","madungog","f","4","html-keyboard-response","918","n","kasuko","false","",""
"1514.300000011921","","","","","4","html-slider-response","919","","","","2",""
"3004","wolf","kaburi,ndizi,mchuzi,lugha","lugha","n","4","html-keyboard-response","920","n","lugha","true","",""
"1748.699999988079","","","","","4","html-slider-response","921","","","","5",""
"3417","cat","neyemba,baki,akili,paghukom","paghukom","n","4","html-keyboard-response","922","n","paghukom","true","",""
"1590.800000011921","","","","","4","html-slider-response","923","","","","5",""
"2926","fish","buli,bala,baho,imani","buli","f","4","html-keyboard-response","924","f","buli","true","",""
"2104.5","","","","","4","html-slider-response","925","","","","5",""
"6295","tooth","kijiko,uadui,kabalaka,pahiyum","kabalaka","j","4","html-keyboard-response","926","j","kabalaka","true","",""
"1478.699999988079","","","","","4","html-slider-response","927","","","","4",""
"5486","cave","ganti,maisha,nyundo,kesho","kesho","n","4","html-keyboard-response","928","n","kesho","true","",""
"1430.3999999761581","","","","","4","html-slider-response","929","","","","5",""
"4558","lamp","afya,daub,bilaska,mbolea","afya","f","4","html-keyboard-response","930","f","afya","true","",""
"1766.1000000238419","","","","","4","html-slider-response","931","","","","4",""
"2813","banana","kasamok,hagdan,kazi,twai","kazi","j","4","html-keyboard-response","932","j","kazi","true","",""
"1903.0999999642372","","","","","4","html-slider-response","933","","","","5",""
"1858","bonfire","mwezi,mfuko,goti,kusanya","goti","j","4","html-keyboard-response","934","j","goti","true","",""
"2843.399999976158","","","","","4","html-slider-response","935","","","","5",""
"6961","cop","bustani,mechezo,jikoni,bakus","mechezo","v","4","html-keyboard-response","936","v","mechezo","true","",""
"3064.2000000476837","","","","","4","html-slider-response","937","","","","4",""
"6262","marker","mapafu,salita,atay,maji","maji","n","4","html-keyboard-response","938","j","atay","false","",""
"1583.800000011921","","","","","4","html-slider-response","939","","","","1",""
"3706","window","nanga,kujenga,kweli,umaga","kweli","j","4","html-keyboard-response","940","j","kweli","true","",""
"1799.4000000357628","","","","","4","html-slider-response","941","","","","5",""
"3772","body","nyundu,jibini,kununa,tindashan","tindashan","n","4","html-keyboard-response","942","n","tindashan","true","",""
"1932.199999988079","","","","","4","html-slider-response","943","","","","4",""
"2185","apple","ukame,estante,edad,kisu","kisu","n","4","html-keyboard-response","944","n","kisu","true","",""
"1474.8999999761581","","","","","4","html-slider-response","945","","","","5",""
"3424","salmon","sensilyo,mzungu,seri,baharia","sensilyo","f","4","html-keyboard-response","946","f","sensilyo","true","",""
"1582","","","","","4","html-slider-response","947","","","","5",""
"4751","bed","kalipay,haraka,starehe,mapintas","mapintas","n","4","html-keyboard-response","948","n","mapintas","true","",""
"1707.3999999761581","","","","","4","html-slider-response","949","","","","4",""
"3256","berry","abogado,nogozi,kofia,kinywa","kofia","j","4","html-keyboard-response","950","j","kofia","true","",""
"1263.8999999761581","","","","","4","html-slider-response","951","","","","5",""
"4940","mirror","rangi,sulagma,kanding,furaha","sulagma","v","4","html-keyboard-response","952","v","sulagma","true","",""
"1862.5","","","","","4","html-slider-response","953","","","","4",""
"3171","flag","ndege,mkate,kawa,trekta","trekta","n","4","html-keyboard-response","954","n","trekta","true","",""
"1562.6000000238419","","","","","4","html-slider-response","955","","","","2",""
"7263","shoulder","mkuu,kelele,ndaniya,guruwe","mkuu","f","4","html-keyboard-response","956","f","mkuu","true","",""
"1257.199999988079","","","","","4","html-slider-response","957","","","","5",""
"8920","tissue","lamigas,ugomvi,kisiwa,katika","ugomvi","v","4","html-keyboard-response","958","v","ugomvi","true","",""
"1789.3999999761581","","","","","4","html-slider-response","959","","","","4",""
"2180","notebook","msitu,kemia,kila,mdudu","kemia","v","4","html-keyboard-response","960","v","kemia","true","",""
"1461.800000011921","","","","","4","html-slider-response","961","","","","5",""
"3584","snake","pagtukod,jansa,karon,mvringo","pagtukod","f","4","html-keyboard-response","962","f","pagtukod","true","",""
"1520.2999999523163","","","","","4","html-slider-response","963","","","","5",""
"2637","finger","simu,moyo,sufuria,lima","moyo","v","4","html-keyboard-response","964","v","moyo","true","",""
"1657.2999999523163","","","","","4","html-slider-response","965","","","","4",""
"6028","basket","kumbuka,utepe,hasira,kumba","kumba","n","4","html-keyboard-response","966","n","kumba","true","",""
"3243.699999988079","","","","","4","html-slider-response","967","","","","3",""
"7750","curtain","lisud,bulwawan,mchanga,chubani","mchanga","j","4","html-keyboard-response","968","f","lisud","false","",""
"2187.699999988079","","","","","4","html-slider-response","969","","","","3",""
"3816","perfume","bino,sungura,ndogo,katuyoan","katuyoan","n","4","html-keyboard-response","970","n","katuyoan","true","",""
"1480.199999988079","","","","","4","html-slider-response","971","","","","5",""
"6597","key","miaka,goma,chombo,ahos","chombo","j","4","html-keyboard-response","972","v","goma","false","",""
"1899.199999988079","","","","","4","html-slider-response","973","","","","2",""
"3864","olive","bata,jiwe,siagi,welder","jiwe","v","4","html-keyboard-response","974","v","jiwe","true","",""
"2183.300000011921","","","","","4","html-slider-response","975","","","","5",""
"6446","rose","singizi,mwanake,paghalad,amani","paghalad","j","4","html-keyboard-response","976","j","paghalad","true","",""
"2105.399999976158","","","","","4","html-slider-response","977","","","","5",""
"12076","bridge","sahani,daima,ngono,panya","sahani","f","4","html-keyboard-response","978","f","sahani","true","",""
"2089.899999976158","","","","","4","html-slider-response","979","","","","5",""
"5801","hill","kushoto,kukimba,sweta,matumbo","matumbo","n","4","html-keyboard-response","980","n","matumbo","true","",""
"3167.5","","","","","4","html-slider-response","981","","","","3",""
"6282","letter","filimbi,chuma,uhuru,kifua","kifua","n","4","html-keyboard-response","982","n","kifua","true","",""
"1570.5999999642372","","","","","4","html-slider-response","983","","","","5",""
"4001","sock","ndoora,mamba,kimysa,mtirka","mamba","v","4","html-keyboard-response","984","v","mamba","true","",""
"1406.8999999761581","","","","","4","html-slider-response","985","","","","4",""
"6031","fork","baboy,paghago,mgonjwa,gorisi","mgonjwa","j","4","html-keyboard-response","986","j","mgonjwa","true","",""
"1792.300000011921","","","","","4","html-slider-response","987","","","","5",""
"2472","box","kuacha,adui,rafiki,kitande","adui","v","4","html-keyboard-response","988","v","adui","true","",""
"1260.2999999523163","","","","","4","html-slider-response","989","","","","4",""
"2698","gift","baba,pagtawag,nyange,baso","pagtawag","v","4","html-keyboard-response","990","v","pagtawag","true","",""
"1729.0999999642372","","","","","4","html-slider-response","991","","","","5",""
"3936","bucket","baga,kiatu,ijayo,init","kiatu","v","4","html-keyboard-response","992","v","kiatu","true","",""
"1592.5","","","","","4","html-slider-response","993","","","","4",""
"3558","shop","samaki,nopya,kerida,ndezu","samaki","f","4","html-keyboard-response","994","f","samaki","true","",""
"1345.3999999761581","","","","","4","html-slider-response","995","","","","5",""
"2743","puppet","napulo,lamok,godoro,mazishi","mazishi","n","4","html-keyboard-response","996","n","mazishi","true","",""
"1711.199999988079","","","","","4","html-slider-response","997","","","","4",""
"6256","nose","gubat,kopa,kidole,sehemu","sehemu","n","4","html-keyboard-response","998","n","sehemu","true","",""
"1331.5999999642372","","","","","4","html-slider-response","999","","","","4",""
"4426","music","mraba,mageho,baiski,tumbo","baiski","j","4","html-keyboard-response","1000","j","baiski","true","",""
"1391.699999988079","","","","","4","html-slider-response","1001","","","","2",""
"2236","dog","bahari,lubi,washia,kalamu","bahari","f","4","html-keyboard-response","1002","f","bahari","true","",""
"1977.7999999523163","","","","","4","html-slider-response","1003","","","","3",""
"6204","eel","ishara,kunywa,kabuang,msumari","msumari","n","4","html-keyboard-response","1004","j","kabuang","false","",""
"1522.1000000238419","","","","","4","html-slider-response","1005","","","","2",""
"3057","number","shule,kengele,mundamo,choori","mundamo","j","4","html-keyboard-response","1006","j","mundamo","true","",""
"1501.2999999523163","","","","","4","html-slider-response","1007","","","","4",""
"3385","tomato","mvua,chupi,chupa,takatak","mvua","f","4","html-keyboard-response","1008","f","mvua","true","",""
"1556","","","","","4","html-slider-response","1009","","","","5",""
"3502","coffin","barua,tubag,kioo,hulma","kioo","j","4","html-keyboard-response","1010","j","kioo","true","",""
"1601.8999999761581","","","","","4","html-slider-response","1011","","","","4",""
"2967","knee","mvuke,kubale,bili,duka","duka","n","4","html-keyboard-response","1012","n","duka","true","",""
"1359.5","","","","","4","html-slider-response","1013","","","","5",""
"2860","woman","bandari,bituin,pagtabon,kovuli","pagtabon","j","4","html-keyboard-response","1014","j","pagtabon","true","",""
"1233.9000000357628","","","","","4","html-slider-response","1015","","","","4",""
"13804","stone","ulimwengu,mkasi,asili,wingi","wingi","n","4","html-keyboard-response","1016","n","wingi","true","",""
"1392.1000000238419","","","","","4","html-slider-response","1017","","","","1",""
"2136","bread","dari,kaili,dizeli,bugas","dari","f","4","html-keyboard-response","1018","f","dari","true","",""
"1502.199999988079","","","","","4","html-slider-response","1019","","","","4",""
"5592","triangle","kihozi,bentaha,kasadpan,liog","kasadpan","j","4","html-keyboard-response","1020","j","kasadpan","true","",""
"1467.9000000357628","","","","","4","html-slider-response","1021","","","","4",""
"4996","scissors","duga,mtawa,suga,tanuri","tanuri","n","4","html-keyboard-response","1022","n","tanuri","true","",""
"1372.1000000238419","","","","","4","html-slider-response","1023","","","","4",""
"2718","giraffe","daraja,jumatu,mahitabo,hangyo","mahitabo","j","4","html-keyboard-response","1024","j","mahitabo","true","",""
"1534.199999988079","","","","","4","html-slider-response","1025","","","","5",""
"3437","flower","tamasha,lobo,usiku,bega","bega","n","4","html-keyboard-response","1026","n","bega","true","",""
"1739.699999988079","","","","","4","html-slider-response","1027","","","","4",""
"3443","candle","gabi,farasi,kupanda,geza","geza","n","4","html-keyboard-response","1028","n","geza","true","",""
"1677.5","","","","","4","html-slider-response","1029","","","","2",""
"11210","mother","kahawa,mbuzi,jokofu,babaye","babaye","n","4","html-keyboard-response","1030","n","babaye","true","",""
"1532.9000000357628","","","","","4","html-slider-response","1031","","","","4",""
"8262","towel","tembo,pagpalit,funzi,pito","pagpalit","v","4","html-keyboard-response","1032","v","pagpalit","true","",""
"1606.300000011921","","","","","4","html-slider-response","1033","","","","1",""
"2401","elephant","petye,pagduol,suka,kito","kito","n","4","html-keyboard-response","1034","n","kito","true","",""
"1667","","","","","4","html-slider-response","1035","","","","5",""
"11280","shelf","bungtod,kadaot,pamahaw,awit","pamahaw","j","4","html-keyboard-response","1036","j","pamahaw","true","",""
"2970.2999999523163","","","","","4","html-slider-response","1037","","","","2",""
"1862","mosquito","isda,martilyo,taras,gutom","martilyo","v","4","html-keyboard-response","1038","v","martilyo","true","",""
"2232.199999988079","","","","","4","html-slider-response","1039","","","","5",""
"4494","column","ufagio,pundok,dila,pala","ufagio","f","4","html-keyboard-response","1040","f","ufagio","true","",""
"1602.300000011921","","","","","4","html-slider-response","1041","","","","4",""
"3128","pants","haki,pintal,chuki,hari","haki","f","4","html-keyboard-response","1042","n","hari","false","",""
"4098.099999964237","","","","","4","html-slider-response","1043","","","","2",""
"2900","list","alizeti,wingu,kuzama,kaso","wingu","v","4","html-keyboard-response","1044","v","wingu","true","",""
"1521.199999988079","","","","","4","html-slider-response","1045","","","","4",""
"2908","bank","kudhibi,tualya,silingan,ofisi","silingan","j","4","html-keyboard-response","1046","j","silingan","true","",""
"1449.699999988079","","","","","4","html-slider-response","1047","","","","5",""
"3531","clock","mbwa,kartasi,abang,osha","mbwa","f","4","html-keyboard-response","1048","f","mbwa","true","",""
"1509","","","","","4","html-slider-response","1049","","","","4",""
"3316","ceiling","kugita,kawaida,rayna,maua","maua","n","4","html-keyboard-response","1050","n","maua","true","",""
"2051.7999999523163","","","","","4","html-slider-response","1051","","","","5",""
"3920","train","itik,sayari,dakika,mungu","sayari","v","4","html-keyboard-response","1052","v","sayari","true","",""
"1743.199999988079","","","","","4","html-slider-response","1053","","","","5",""
"4085","magazine","gundi,mchawi,bahandi,kiti","kiti","n","4","html-keyboard-response","1054","n","kiti","true","",""
"1653","","","","","4","html-slider-response","1055","","","","4",""
"4538","office","hazini,leso,yatima,kuna","leso","v","4","html-keyboard-response","1056","v","leso","true","",""
"1687.800000011921","","","","","4","html-slider-response","1057","","","","2",""
"4514","wheel","bafuni,punda,tawo,baadaye","bafuni","f","4","html-keyboard-response","1058","f","bafuni","true","",""
"2537.899999976158","","","","","4","html-slider-response","1059","","","","5",""
"4602","spoon","betri,pagsulod,nzuri,ngazi","pagsulod","v","4","html-keyboard-response","1060","v","pagsulod","true","",""
"1944.5","","","","","4","html-slider-response","1061","","","","4",""
"4706","hammer","napakyas,mekno,kitovu,layag","napakyas","f","4","html-keyboard-response","1062","f","napakyas","true","",""
"1600.199999988079","","","","","4","html-slider-response","1063","","","","5",""
"7128","cigar","ndugu,kuta,adhabu,mlango","adhabu","j","4","html-keyboard-response","1064","j","adhabu","true","",""
"1472.5","","","","","4","html-slider-response","1065","","","","4",""
"5078","shoe","nyeusi,hatua,uyoga,kama","uyoga","j","4","html-keyboard-response","1066","j","uyoga","true","",""
"1932.5","","","","","4","html-slider-response","1067","","","","5",""
"5534","list","alizeti,kuzama,kaso,wingu","wingu","n","5","html-keyboard-response","1069","n","wingu","true","",""
"1858.5","","","","","5","html-slider-response","1070","","","","5",""
"4359","number","shule,mundamo,kengele,choori","mundamo","v","5","html-keyboard-response","1071","v","mundamo","true","",""
"1787.8999999761581","","","","","5","html-slider-response","1072","","","","5",""
"2022","apple","ukame,kisu,estante,edad","kisu","v","5","html-keyboard-response","1073","v","kisu","true","",""
"1714.9000000357628","","","","","5","html-slider-response","1074","","","","5",""
"2635","knee","duka,mvuke,kubale,bili","duka","f","5","html-keyboard-response","1075","f","duka","true","",""
"2402.5","","","","","5","html-slider-response","1076","","","","5",""
"3340","tooth","kabalaka,kijiko,uadui,pahiyum","kabalaka","f","5","html-keyboard-response","1077","f","kabalaka","true","",""
"1587.0999999642372","","","","","5","html-slider-response","1078","","","","5",""
"2347","berry","abogado,kofia,nogozi,kinywa","kofia","v","5","html-keyboard-response","1079","v","kofia","true","",""
"1642.1000000238419","","","","","5","html-slider-response","1080","","","","5",""
"2165","bridge","daima,sahani,ngono,panya","sahani","v","5","html-keyboard-response","1081","v","sahani","true","",""
"1670.300000011921","","","","","5","html-slider-response","1082","","","","4",""
"1861","perfume","bino,katuyoan,sungura,ndogo","katuyoan","v","5","html-keyboard-response","1083","v","katuyoan","true","",""
"1343.800000011921","","","","","5","html-slider-response","1084","","","","5",""
"3809","ladder","mashua,mwanga,pangalan,kamba","pangalan","j","5","html-keyboard-response","1085","j","pangalan","true","",""
"2126.099999964237","","","","","5","html-slider-response","1086","","","","3",""
"3607","pants","pintal,chuki,hari,haki","haki","n","5","html-keyboard-response","1087","n","haki","true","",""
"1328.0999999642372","","","","","5","html-slider-response","1088","","","","5",""
"3514","salmon","sensilyo,mzungu,seri,baharia","sensilyo","f","5","html-keyboard-response","1089","f","sensilyo","true","",""
"1414.699999988079","","","","","5","html-slider-response","1090","","","","5",""
"3098","coffin","barua,tubag,kioo,hulma","kioo","j","5","html-keyboard-response","1091","j","kioo","true","",""
"1827.4000000357628","","","","","5","html-slider-response","1092","","","","5",""
"4129","park","bunifu,tambok,pwani,ihalas","bunifu","f","5","html-keyboard-response","1093","f","bunifu","true","",""
"1582.3999999761581","","","","","5","html-slider-response","1094","","","","5",""
"2292","giraffe","mahitabo,daraja,jumatu,hangyo","mahitabo","f","5","html-keyboard-response","1095","f","mahitabo","true","",""
"1841.699999988079","","","","","5","html-slider-response","1096","","","","4",""
"3012","mirror","rangi,sulagma,kanding,furaha","sulagma","v","5","html-keyboard-response","1097","v","sulagma","true","",""
"1792","","","","","5","html-slider-response","1098","","","","5",""
"3675","ceiling","kugita,kawaida,rayna,maua","maua","n","5","html-keyboard-response","1099","n","maua","true","",""
"1675.4000000357628","","","","","5","html-slider-response","1100","","","","4",""
"5891","marker","mapafu,salita,maji,atay","maji","j","5","html-keyboard-response","1101","n","atay","false","",""
"1570.199999988079","","","","","5","html-slider-response","1102","","","","2",""
"4036","sock","ndoora,mamba,kimysa,mtirka","mamba","v","5","html-keyboard-response","1103","v","mamba","true","",""
"1571","","","","","5","html-slider-response","1104","","","","5",""
"5520","cop","bustani,jikoni,bakus,mechezo","mechezo","n","5","html-keyboard-response","1105","n","mechezo","true","",""
"1404.699999988079","","","","","5","html-slider-response","1106","","","","5",""
"4203","gift","pagtawag,baba,nyange,baso","pagtawag","f","5","html-keyboard-response","1107","f","pagtawag","true","",""
"1251.7999999523163","","","","","5","html-slider-response","1108","","","","4",""
"1938","notebook","msitu,kemia,kila,mdudu","kemia","v","5","html-keyboard-response","1109","v","kemia","true","",""
"2492.800000011921","","","","","5","html-slider-response","1110","","","","5",""
"2590","bank","kudhibi,tualya,silingan,ofisi","silingan","j","5","html-keyboard-response","1111","j","silingan","true","",""
"1912.0999999642372","","","","","5","html-slider-response","1112","","","","5",""
"4138","letter","filimbi,chuma,kifua,uhuru","kifua","j","5","html-keyboard-response","1113","j","kifua","true","",""
"1437.800000011921","","","","","5","html-slider-response","1114","","","","4",""
"3178","candle","geza,gabi,farasi,kupanda","geza","f","5","html-keyboard-response","1115","f","geza","true","",""
"1501.0999999642372","","","","","5","html-slider-response","1116","","","","5",""
"3496","bread","dari,kaili,dizeli,bugas","dari","f","5","html-keyboard-response","1117","f","dari","true","",""
"1398.1000000238419","","","","","5","html-slider-response","1118","","","","5",""
"2691","snake","jansa,karon,mvringo,pagtukod","pagtukod","n","5","html-keyboard-response","1119","n","pagtukod","true","",""
"1530.6000000238419","","","","","5","html-slider-response","1120","","","","4",""
"4941","rose","paghalad,singizi,mwanake,amani","paghalad","f","5","html-keyboard-response","1121","f","paghalad","true","",""
"1620.8999999761581","","","","","5","html-slider-response","1122","","","","2",""
"3457","hill","kushoto,kukimba,sweta,matumbo","matumbo","n","5","html-keyboard-response","1123","n","matumbo","true","",""
"1486.300000011921","","","","","5","html-slider-response","1124","","","","1",""
"3591","train","sayari,itik,dakika,mungu","sayari","f","5","html-keyboard-response","1125","f","sayari","true","",""
"1393.1000000238419","","","","","5","html-slider-response","1126","","","","5",""
"4548","shop","samaki,nopya,kerida,ndezu","samaki","f","5","html-keyboard-response","1127","f","samaki","true","",""
"1723.800000011921","","","","","5","html-slider-response","1128","","","","5",""
"8086","nose","gubat,sehemu,kopa,kidole","sehemu","v","5","html-keyboard-response","1129","v","sehemu","true","",""
"1841.6000000238419","","","","","5","html-slider-response","1130","","","","5",""
"1387","boat","hamsi,pombe,kitanda,agalon","agalon","n","5","html-keyboard-response","1131","v","pombe","false","",""
"1361.4000000357628","","","","","5","html-slider-response","1132","","","","4",""
"3377","body","tindashan,nyundu,jibini,kununa","tindashan","f","5","html-keyboard-response","1133","f","tindashan","true","",""
"1876.3999999761581","","","","","5","html-slider-response","1134","","","","5",""
"2336","bed","kalipay,haraka,starehe,mapintas","mapintas","n","5","html-keyboard-response","1135","n","mapintas","true","",""
"1902.199999988079","","","","","5","html-slider-response","1136","","","","2",""
"2568","squirrel","mahugaw,ukweli,hofu,kichwa","hofu","j","5","html-keyboard-response","1137","j","hofu","true","",""
"1975.800000011921","","","","","5","html-slider-response","1138","","","","5",""
"3077","window","kweli,nanga,kujenga,umaga","kweli","f","5","html-keyboard-response","1139","f","kweli","true","",""
"1592.800000011921","","","","","5","html-slider-response","1140","","","","5",""
"1341","bonfire","goti,mwezi,mfuko,kusanya","goti","f","5","html-keyboard-response","1141","f","goti","true","",""
"1229.8999999761581","","","","","5","html-slider-response","1142","","","","4",""
"2495","fish","bala,baho,buli,imani","buli","j","5","html-keyboard-response","1143","j","buli","true","",""
"2567.100000023842","","","","","5","html-slider-response","1144","","","","5",""
"2535","cat","paghukom,neyemba,baki,akili","paghukom","f","5","html-keyboard-response","1145","f","paghukom","true","",""
"2055.2999999523163","","","","","5","html-slider-response","1146","","","","5",""
"1274","spider","bunyag,kamwe,mkboa,atop","kamwe","v","5","html-keyboard-response","1147","v","kamwe","true","",""
"1666.3999999761581","","","","","5","html-slider-response","1148","","","","5",""
"5019","eel","ishara,kunywa,msumari,kabuang","msumari","j","5","html-keyboard-response","1149","j","msumari","true","",""
"1952.1000000238419","","","","","5","html-slider-response","1150","","","","4",""
"3046","woman","bandari,pagtabon,bituin,kovuli","pagtabon","v","5","html-keyboard-response","1151","v","pagtabon","true","",""
"1534.199999988079","","","","","5","html-slider-response","1152","","","","5",""
"3933","magazine","gundi,kiti,mchawi,bahandi","kiti","v","5","html-keyboard-response","1153","v","kiti","true","",""
"1893.2999999523163","","","","","5","html-slider-response","1154","","","","4",""
"3185","pudding","abug,mpishi,iring,aibu","aibu","n","5","html-keyboard-response","1155","n","aibu","true","",""
"2140.5","","","","","5","html-slider-response","1156","","","","5",""
"6015","lamp","afya,daub,bilaska,mbolea","afya","f","5","html-keyboard-response","1157","f","afya","true","",""
"1956.3999999761581","","","","","5","html-slider-response","1158","","","","3",""
"2206","cave","kesho,ganti,maisha,nyundo","kesho","f","5","html-keyboard-response","1159","f","kesho","true","",""
"1253.8999999761581","","","","","5","html-slider-response","1160","","","","5",""
"4524","shoulder","kelele,ndaniya,guruwe,mkuu","mkuu","n","5","html-keyboard-response","1161","n","mkuu","true","",""
"1831.4000000357628","","","","","5","html-slider-response","1162","","","","4",""
"2981","stone","wingi,ulimwengu,mkasi,asili","wingi","f","5","html-keyboard-response","1163","f","wingi","true","",""
"1440.300000011921","","","","","5","html-slider-response","1164","","","","1",""
"3324","column","pundok,dila,pala,ufagio","ufagio","n","5","html-keyboard-response","1165","n","ufagio","true","",""
"1891.800000011921","","","","","5","html-slider-response","1166","","","","4",""
"5719","page","wakala,ishiri,skina,wimbo","wimbo","n","5","html-keyboard-response","1167","n","wimbo","true","",""
"1502","","","","","5","html-slider-response","1168","","","","2",""
"3890","shoe","nyeusi,hatua,uyoga,kama","uyoga","j","5","html-keyboard-response","1169","j","uyoga","true","",""
"2254.399999976158","","","","","5","html-slider-response","1170","","","","4",""
"3513","clock","kartasi,abang,mbwa,osha","mbwa","j","5","html-keyboard-response","1171","j","mbwa","true","",""
"1478.300000011921","","","","","5","html-slider-response","1172","","","","5",""
"4153","towel","tembo,funzi,pito,pagpalit","pagpalit","n","5","html-keyboard-response","1173","n","pagpalit","true","",""
"2175.600000023842","","","","","5","html-slider-response","1174","","","","3",""
"3028","tomato","chupi,chupa,takatak,mvua","mvua","n","5","html-keyboard-response","1175","n","mvua","true","",""
"1424","","","","","5","html-slider-response","1176","","","","5",""
"3776","bucket","kiatu,baga,ijayo,init","kiatu","f","5","html-keyboard-response","1177","f","kiatu","true","",""
"1656.0999999642372","","","","","5","html-slider-response","1178","","","","4",""
"3125","finger","moyo,simu,sufuria,lima","moyo","f","5","html-keyboard-response","1179","f","moyo","true","",""
"2338.899999976158","","","","","5","html-slider-response","1180","","","","4",""
"1779","mother","kahawa,babaye,mbuzi,jokofu","babaye","v","5","html-keyboard-response","1181","v","babaye","true","",""
"1425","","","","","5","html-slider-response","1182","","","","2",""
"2422","human","tinapay,bado,kikapu,punguza","tinapay","f","5","html-keyboard-response","1183","f","tinapay","true","",""
"1373.9000000357628","","","","","5","html-slider-response","1184","","","","5",""
"2938","sun","bendi,basi,luha,uongo","basi","v","5","html-keyboard-response","1185","v","basi","true","",""
"1332","","","","","5","html-slider-response","1186","","","","5",""
"5782","fork","baboy,paghago,mgonjwa,gorisi","mgonjwa","j","5","html-keyboard-response","1187","j","mgonjwa","true","",""
"1896.7999999523163","","","","","5","html-slider-response","1188","","","","4",""
"1877","donkey","elfu,bloke,lalake,rombus","elfu","f","5","html-keyboard-response","1189","f","elfu","true","",""
"2049.399999976158","","","","","5","html-slider-response","1190","","","","4",""
"1756","wolf","lugha,kaburi,ndizi,mchuzi","lugha","f","5","html-keyboard-response","1191","f","lugha","true","",""
"1941.6000000238419","","","","","5","html-slider-response","1192","","","","5",""
"3524","cigar","ndugu,kuta,mlango,adhabu","adhabu","n","5","html-keyboard-response","1193","n","adhabu","true","",""
"1636.4000000357628","","","","","5","html-slider-response","1194","","","","5",""
"2827","olive","jiwe,bata,siagi,welder","jiwe","f","5","html-keyboard-response","1195","f","jiwe","true","",""
"1429.300000011921","","","","","5","html-slider-response","1196","","","","4",""
"8473","key","miaka,chombo,goma,ahos","chombo","v","5","html-keyboard-response","1197","j","goma","false","",""
"1986.6000000238419","","","","","5","html-slider-response","1198","","","","1",""
"5298","door","tena,soko,nyota,surali","surali","n","5","html-keyboard-response","1199","n","surali","true","",""
"1338.300000011921","","","","","5","html-slider-response","1200","","","","2",""
"2953","wheel","punda,tawo,baadaye,bafuni","bafuni","n","5","html-keyboard-response","1201","n","bafuni","true","",""
"1396.8999999761581","","","","","5","html-slider-response","1202","","","","5",""
"4980","basket","kumbuka,kumba,utepe,hasira","kumba","v","5","html-keyboard-response","1203","v","kumba","true","",""
"1142.1000000238419","","","","","5","html-slider-response","1204","","","","4",""
"3194","elephant","petye,pagduol,kito,suka","kito","j","5","html-keyboard-response","1205","j","kito","true","",""
"1557.6000000238419","","","","","5","html-slider-response","1206","","","","5",""
"4734","office","leso,hazini,yatima,kuna","leso","f","5","html-keyboard-response","1207","f","leso","true","",""
"2172.899999976158","","","","","5","html-slider-response","1208","","","","3",""
"4950","music","baiski,mraba,mageho,tumbo","baiski","f","5","html-keyboard-response","1209","f","baiski","true","",""
"2046.1000000238419","","","","","5","html-slider-response","1210","","","","5",""
"6104","tissue","lamigas,kisiwa,katika,ugomvi","ugomvi","n","5","html-keyboard-response","1211","n","ugomvi","true","",""
"1557.5999999642372","","","","","5","html-slider-response","1212","","","","4",""
"4026","curtain","lisud,bulwawan,chubani,mchanga","mchanga","n","5","html-keyboard-response","1213","f","lisud","false","",""
"1326","","","","","5","html-slider-response","1214","","","","2",""
"4951","flag","ndege,mkate,kawa,trekta","trekta","n","5","html-keyboard-response","1215","v","mkate","false","",""
"2100.5","","","","","5","html-slider-response","1216","","","","1",""
"2466","dog","bahari,lubi,washia,kalamu","bahari","f","5","html-keyboard-response","1217","f","bahari","true","",""
"1412.199999988079","","","","","5","html-slider-response","1218","","","","4",""
"3881","cup","matumai,dagat,shimoni,jeraha","matumai","f","5","html-keyboard-response","1219","f","matumai","true","",""
"1969.5","","","","","5","html-slider-response","1220","","","","5",""
"3873","sheet","juuya,watu,bililhon,kamantis","bililhon","j","5","html-keyboard-response","1221","j","bililhon","true","",""
"1734.699999988079","","","","","5","html-slider-response","1222","","","","5",""
"4066","spoon","pagsulod,betri,nzuri,ngazi","pagsulod","f","5","html-keyboard-response","1223","f","pagsulod","true","",""
"1583.3999999761581","","","","","5","html-slider-response","1224","","","","4",""
"5200","flower","tamasha,lobo,bega,usiku","bega","j","5","html-keyboard-response","1225","j","bega","true","",""
"1508.2999999523163","","","","","5","html-slider-response","1226","","","","4",""
"3313","picture","silya,chaki,asin,kubwa","kubwa","n","5","html-keyboard-response","1227","n","kubwa","true","",""
"1876.8999999761581","","","","","5","html-slider-response","1228","","","","5",""
"3782","puppet","napulo,lamok,mazishi,godoro","mazishi","j","5","html-keyboard-response","1229","j","mazishi","true","",""
"1337.800000011921","","","","","5","html-slider-response","1230","","","","4",""
"1767","banana","kazi,kasamok,hagdan,twai","kazi","f","5","html-keyboard-response","1231","f","kazi","true","",""
"1621.4000000357628","","","","","5","html-slider-response","1232","","","","4",""
"2280","book","kuhesa,picha,mali,mara","mali","j","5","html-keyboard-response","1233","j","mali","true","",""
"1417.9000000357628","","","","","5","html-slider-response","1234","","","","4",""
"2983","triangle","kihozi,kasadpan,bentaha,liog","kasadpan","v","5","html-keyboard-response","1235","v","kasadpan","true","",""
"1663","","","","","5","html-slider-response","1236","","","","5",""
"5313","poster","madungog,nchi,fedha,kasuko","madungog","f","5","html-keyboard-response","1237","f","madungog","true","",""
"1323.4000000357628","","","","","5","html-slider-response","1238","","","","1",""
"2183","box","kuacha,rafiki,kitande,adui","adui","n","5","html-keyboard-response","1239","n","adui","true","",""
"1309.199999988079","","","","","5","html-slider-response","1240","","","","4",""
"3059","mosquito","isda,martilyo,taras,gutom","martilyo","v","5","html-keyboard-response","1241","v","martilyo","true","",""
"1432.699999988079","","","","","5","html-slider-response","1242","","","","5",""
"4717","shelf","pamahaw,bungtod,kadaot,awit","pamahaw","f","5","html-keyboard-response","1243","v","bungtod","false","",""
"1716.8999999761581","","","","","5","html-slider-response","1244","","","","1",""
"3204","scissors","tanuri,duga,mtawa,suga","tanuri","f","5","html-keyboard-response","1245","f","tanuri","true","",""
"1313.3999999761581","","","","","5","html-slider-response","1246","","","","5",""
"2201","hammer","mekno,kitovu,layag,napakyas","napakyas","n","5","html-keyboard-response","1247","n","napakyas","true","",""
"1443.4000000357628","","","","","5","html-slider-response","1248","","","","5",""
