"rt","en_word","options","swa_word","correct_answer","phase","trial_type","trial_index","input_answer","input_word","accuracy","certainty","amt_choices"
"4408","bonfire","mwezi,mfuko,goti,kusanya","goti","j","2","html-keyboard-response","106","j","goti","true","",""
"2102.699999809265","","","","","2","html-slider-response","107","","","","4",""
"3606","flower","tamasha,lobo,bega,usiku","bega","j","2","html-keyboard-response","108","f","tamasha","false","",""
"1774.8999996185303","","","","","2","html-slider-response","109","","","","2",""
"4144","column","pundok,dila,ufagio,pala","ufagio","j","2","html-keyboard-response","110","n","pala","false","",""
"2195.9000005722046","","","","","2","html-slider-response","111","","","","1",""
"4887","music","mraba,mageho,baiski,tumbo","baiski","j","2","html-keyboard-response","112","j","baiski","true","",""
"5790.599999427795","","","","","2","html-slider-response","113","","","","3",""
"3296","spider","bunyag,mkboa,kamwe,atop","kamwe","j","2","html-keyboard-response","114","v","mkboa","false","",""
"1995.5999994277954","","","","","2","html-slider-response","115","","","","1",""
"4096","fork","baboy,paghago,mgonjwa,gorisi","mgonjwa","j","2","html-keyboard-response","116","j","mgonjwa","true","",""
"2179.5999994277954","","","","","2","html-slider-response","117","","","","4",""
"4120","mosquito","isda,taras,gutom,martilyo","martilyo","n","2","html-keyboard-response","118","n","martilyo","true","",""
"2220.1000003814697","","","","","2","html-slider-response","119","","","","4",""
"20015","banana","kasamok,kazi,hagdan,twai","kazi","v","2","html-keyboard-response","120","n","twai","false","",""
"2555.9000005722046","","","","","2","html-slider-response","121","","","","2",""
"2206","cup","dagat,shimoni,matumai,jeraha","matumai","j","2","html-keyboard-response","122","n","jeraha","false","",""
"1962.6000003814697","","","","","2","html-slider-response","123","","","","1",""
"4064","shop","nopya,kerida,samaki,ndezu","samaki","j","2","html-keyboard-response","124","n","ndezu","false","",""
"2091.800000190735","","","","","2","html-slider-response","125","","","","1",""
"3168","elephant","petye,pagduol,kito,suka","kito","j","2","html-keyboard-response","126","j","kito","true","",""
"2939.800000190735","","","","","2","html-slider-response","127","","","","2",""
"3632","bucket","kiatu,baga,ijayo,init","kiatu","f","2","html-keyboard-response","128","v","baga","false","",""
"1971.5999994277954","","","","","2","html-slider-response","129","","","","1",""
"3992","book","kuhesa,mali,picha,mara","mali","v","2","html-keyboard-response","130","f","kuhesa","false","",""
"1555.8999996185303","","","","","2","html-slider-response","131","","","","1",""
"3960","mirror","rangi,kanding,sulagma,furaha","sulagma","j","2","html-keyboard-response","132","f","rangi","false","",""
"2203.0999994277954","","","","","2","html-slider-response","133","","","","1",""
"2208","office","hazini,yatima,kuna,leso","leso","n","2","html-keyboard-response","134","n","leso","true","",""
"2124.199999809265","","","","","2","html-slider-response","135","","","","5",""
"5359","body","nyundu,jibini,kununa,tindashan","tindashan","n","2","html-keyboard-response","136","n","tindashan","true","",""
"1765.6999998092651","","","","","2","html-slider-response","137","","","","2",""
"4728","perfume","bino,sungura,katuyoan,ndogo","katuyoan","j","2","html-keyboard-response","138","v","sungura","false","",""
"1866.8999996185303","","","","","2","html-slider-response","139","","","","1",""
"5360","olive","bata,jiwe,siagi,welder","jiwe","v","2","html-keyboard-response","140","j","siagi","false","",""
"2067.5","","","","","2","html-slider-response","141","","","","1",""
"2680","magazine","kiti,gundi,mchawi,bahandi","kiti","f","2","html-keyboard-response","142","j","mchawi","false","",""
"2843.800000190735","","","","","2","html-slider-response","143","","","","3",""
"2608","bread","kaili,dizeli,bugas,dari","dari","n","2","html-keyboard-response","144","n","dari","true","",""
"1844.5","","","","","2","html-slider-response","145","","","","1",""
"4376","cave","ganti,kesho,maisha,nyundo","kesho","v","2","html-keyboard-response","146","f","ganti","false","",""
"1580.2000007629395","","","","","2","html-slider-response","147","","","","2",""
"3632","ladder","mashua,mwanga,kamba,pangalan","pangalan","n","2","html-keyboard-response","148","j","kamba","false","",""
"2108.199999809265","","","","","2","html-slider-response","149","","","","1",""
"2400","human","bado,tinapay,kikapu,punguza","tinapay","v","2","html-keyboard-response","150","n","punguza","false","",""
"1684.6999998092651","","","","","2","html-slider-response","151","","","","2",""
"2919","clock","mbwa,kartasi,abang,osha","mbwa","f","2","html-keyboard-response","152","n","osha","false","",""
"1748.1000003814697","","","","","2","html-slider-response","153","","","","2",""
"3672","shelf","pamahaw,bungtod,kadaot,awit","pamahaw","f","2","html-keyboard-response","154","f","pamahaw","true","",""
"1508.3999996185303","","","","","2","html-slider-response","155","","","","2",""
"3895","salmon","mzungu,seri,sensilyo,baharia","sensilyo","j","2","html-keyboard-response","156","n","baharia","false","",""
"1844.3999996185303","","","","","2","html-slider-response","157","","","","2",""
"3176","coffin","kioo,barua,tubag,hulma","kioo","f","2","html-keyboard-response","158","j","tubag","false","",""
"2220.199999809265","","","","","2","html-slider-response","159","","","","1",""
"6399","notebook","msitu,kemia,kila,mdudu","kemia","v","2","html-keyboard-response","160","j","kila","false","",""
"2446.7000007629395","","","","","2","html-slider-response","161","","","","1",""
"4032","shoulder","kelele,ndaniya,guruwe,mkuu","mkuu","n","2","html-keyboard-response","162","v","ndaniya","false","",""
"2267.5","","","","","2","html-slider-response","163","","","","1",""
"5408","park","tambok,pwani,ihalas,bunifu","bunifu","n","2","html-keyboard-response","164","v","pwani","false","",""
"2147.800000190735","","","","","2","html-slider-response","165","","","","1",""
"3864","number","shule,mundamo,kengele,choori","mundamo","v","2","html-keyboard-response","166","v","mundamo","true","",""
"1659.6999998092651","","","","","2","html-slider-response","167","","","","3",""
"2640","apple","ukame,estante,kisu,edad","kisu","j","2","html-keyboard-response","168","n","edad","false","",""
"2083.9000005722046","","","","","2","html-slider-response","169","","","","1",""
"5720","letter","filimbi,kifua,chuma,uhuru","kifua","v","2","html-keyboard-response","170","f","filimbi","false","",""
"1691.4000005722046","","","","","2","html-slider-response","171","","","","1",""
"4513","eel","ishara,kunywa,kabuang,msumari","msumari","n","2","html-keyboard-response","172","v","kunywa","false","",""
"1811.3999996185303","","","","","2","html-slider-response","173","","","","3",""
"4248","cop","mechezo,bustani,jikoni,bakus","mechezo","f","2","html-keyboard-response","174","n","bakus","false","",""
"1842.6999998092651","","","","","2","html-slider-response","175","","","","1",""
"3288","wolf","kaburi,ndizi,mchuzi,lugha","lugha","n","2","html-keyboard-response","176","f","kaburi","false","",""
"1795.4000005722046","","","","","2","html-slider-response","177","","","","1",""
"4360","squirrel","hofu,mahugaw,ukweli,kichwa","hofu","f","2","html-keyboard-response","178","n","kichwa","false","",""
"1779.4000005722046","","","","","2","html-slider-response","179","","","","2",""
"3576","nose","sehemu,gubat,kopa,kidole","sehemu","f","2","html-keyboard-response","180","j","kopa","false","",""
"1563","","","","","2","html-slider-response","181","","","","2",""
"3935","sock","ndoora,kimysa,mtirka,mamba","mamba","n","2","html-keyboard-response","182","n","mamba","true","",""
"1958.8000001907349","","","","","2","html-slider-response","183","","","","1",""
"3895","bank","kudhibi,tualya,silingan,ofisi","silingan","j","2","html-keyboard-response","184","n","ofisi","false","",""
"1636.0999994277954","","","","","2","html-slider-response","185","","","","2",""
"3974","donkey","bloke,elfu,lalake,rombus","elfu","v","2","html-keyboard-response","186","n","rombus","false","",""
"5382.799999237061","","","","","2","html-slider-response","187","","","","3",""
"3177","poster","madungog,nchi,fedha,kasuko","madungog","f","2","html-keyboard-response","188","j","fedha","false","",""
"1876.4000005722046","","","","","2","html-slider-response","189","","","","1",""
"7432","puppet","napulo,lamok,godoro,mazishi","mazishi","n","2","html-keyboard-response","190","j","godoro","false","",""
"2308","","","","","2","html-slider-response","191","","","","1",""
"4343","hill","matumbo,kushoto,kukimba,sweta","matumbo","f","2","html-keyboard-response","192","n","sweta","false","",""
"1988.3000001907349","","","","","2","html-slider-response","193","","","","1",""
"4199","tooth","kijiko,uadui,pahiyum,kabalaka","kabalaka","n","2","html-keyboard-response","194","v","uadui","false","",""
"1726.4000005722046","","","","","2","html-slider-response","195","","","","1",""
"6398","woman","bandari,bituin,kovuli,pagtabon","pagtabon","n","2","html-keyboard-response","196","v","bituin","false","",""
"2351.4000005722046","","","","","2","html-slider-response","197","","","","1",""
"2544","wheel","punda,bafuni,tawo,baadaye","bafuni","v","2","html-keyboard-response","198","j","tawo","false","",""
"1612.5999994277954","","","","","2","html-slider-response","199","","","","1",""
"3504","mother","babaye,kahawa,mbuzi,jokofu","babaye","f","2","html-keyboard-response","200","f","babaye","true","",""
"1867.6999998092651","","","","","2","html-slider-response","201","","","","2",""
"3296","bed","kalipay,haraka,starehe,mapintas","mapintas","n","2","html-keyboard-response","202","v","haraka","false","",""
"1691.3000001907349","","","","","2","html-slider-response","203","","","","1",""
"3936","key","chombo,miaka,goma,ahos","chombo","f","2","html-keyboard-response","204","n","ahos","false","",""
"1700","","","","","2","html-slider-response","205","","","","1",""
"9288","page","wimbo,wakala,ishiri,skina","wimbo","f","2","html-keyboard-response","206","j","ishiri","false","",""
"2187.5","","","","","2","html-slider-response","207","","","","1",""
"3616","pants","pintal,haki,chuki,hari","haki","v","2","html-keyboard-response","208","v","haki","true","",""
"2364.2999992370605","","","","","2","html-slider-response","209","","","","3",""
"3232","sun","basi,bendi,luha,uongo","basi","f","2","html-keyboard-response","210","f","basi","true","",""
"1860.2999992370605","","","","","2","html-slider-response","211","","","","3",""
"2391","finger","simu,sufuria,moyo,lima","moyo","j","2","html-keyboard-response","212","n","lima","false","",""
"1908.1999998092651","","","","","2","html-slider-response","213","","","","2",""
"3448","shoe","nyeusi,hatua,uyoga,kama","uyoga","j","2","html-keyboard-response","214","v","hatua","false","",""
"1635.3000001907349","","","","","2","html-slider-response","215","","","","2",""
"3978","giraffe","daraja,jumatu,mahitabo,hangyo","mahitabo","j","2","html-keyboard-response","216","n","hangyo","false","",""
"1737.5","","","","","2","html-slider-response","217","","","","2",""
"3488","dog","lubi,bahari,washia,kalamu","bahari","v","2","html-keyboard-response","218","j","washia","false","",""
"2762.699999809265","","","","","2","html-slider-response","219","","","","3",""
"2079","box","kuacha,rafiki,adui,kitande","adui","j","2","html-keyboard-response","220","v","rafiki","false","",""
"2262.6000003814697","","","","","2","html-slider-response","221","","","","3",""
"3512","scissors","duga,mtawa,tanuri,suga","tanuri","j","2","html-keyboard-response","222","v","mtawa","false","",""
"1589.1000003814697","","","","","2","html-slider-response","223","","","","1",""
"3415","cat","paghukom,neyemba,baki,akili","paghukom","f","2","html-keyboard-response","224","n","akili","false","",""
"1539.6999998092651","","","","","2","html-slider-response","225","","","","2",""
"3608","basket","kumba,kumbuka,utepe,hasira","kumba","f","2","html-keyboard-response","226","v","kumbuka","false","",""
"1939.1000003814697","","","","","2","html-slider-response","227","","","","1",""
"5176","snake","jansa,karon,mvringo,pagtukod","pagtukod","n","2","html-keyboard-response","228","v","karon","false","",""
"1291","","","","","2","html-slider-response","229","","","","1",""
"3168","gift","baba,nyange,baso,pagtawag","pagtawag","n","2","html-keyboard-response","230","n","pagtawag","true","",""
"1771.1000003814697","","","","","2","html-slider-response","231","","","","2",""
"4271","train","itik,dakika,mungu,sayari","sayari","n","2","html-keyboard-response","232","n","sayari","true","",""
"2110.3999996185303","","","","","2","html-slider-response","233","","","","1",""
"3517","pudding","aibu,abug,mpishi,iring","aibu","f","2","html-keyboard-response","234","v","abug","false","",""
"1627.1999998092651","","","","","2","html-slider-response","235","","","","1",""
"4432","tomato","mvua,chupi,chupa,takatak","mvua","f","2","html-keyboard-response","236","f","mvua","true","",""
"1603","","","","","2","html-slider-response","237","","","","2",""
"5448","stone","ulimwengu,wingi,mkasi,asili","wingi","v","2","html-keyboard-response","238","v","wingi","true","",""
"2427.5","","","","","2","html-slider-response","239","","","","1",""
"3424","hammer","mekno,kitovu,layag,napakyas","napakyas","n","2","html-keyboard-response","240","j","layag","false","",""
"2027.3999996185303","","","","","2","html-slider-response","241","","","","1",""
"3393","knee","mvuke,kubale,bili,duka","duka","n","2","html-keyboard-response","242","n","duka","true","",""
"1635.8000001907349","","","","","2","html-slider-response","243","","","","1",""
"2119","ceiling","kugita,kawaida,maua,rayna","maua","j","2","html-keyboard-response","244","n","rayna","false","",""
"2124.1000003814697","","","","","2","html-slider-response","245","","","","1",""
"4081","spoon","betri,nzuri,pagsulod,ngazi","pagsulod","j","2","html-keyboard-response","246","v","nzuri","false","",""
"2131.800000190735","","","","","2","html-slider-response","247","","","","1",""
"5128","marker","maji,mapafu,salita,atay","maji","f","2","html-keyboard-response","248","v","mapafu","false","",""
"1995.5","","","","","2","html-slider-response","249","","","","1",""
"2096","candle","gabi,farasi,geza,kupanda","geza","j","2","html-keyboard-response","250","j","geza","true","",""
"1611.8999996185303","","","","","2","html-slider-response","251","","","","1",""
"2576","tissue","ugomvi,lamigas,kisiwa,katika","ugomvi","f","2","html-keyboard-response","252","j","kisiwa","false","",""
"1594.6999998092651","","","","","2","html-slider-response","253","","","","2",""
"2961","bridge","daima,ngono,panya,sahani","sahani","n","2","html-keyboard-response","254","n","sahani","true","",""
"2019.4000005722046","","","","","2","html-slider-response","255","","","","1",""
"4664","berry","kofia,abogado,nogozi,kinywa","kofia","f","2","html-keyboard-response","256","v","abogado","false","",""
"1955.5","","","","","2","html-slider-response","257","","","","2",""
"3608","triangle","kihozi,bentaha,kasadpan,liog","kasadpan","j","2","html-keyboard-response","258","j","kasadpan","true","",""
"1939.6999998092651","","","","","2","html-slider-response","259","","","","1",""
"3496","door","tena,surali,soko,nyota","surali","v","2","html-keyboard-response","260","j","soko","false","",""
"1827.6000003814697","","","","","2","html-slider-response","261","","","","1",""
"3128","fish","buli,bala,baho,imani","buli","f","2","html-keyboard-response","262","v","bala","false","",""
"2715.8999996185303","","","","","2","html-slider-response","263","","","","3",""
"5184","curtain","lisud,mchanga,bulwawan,chubani","mchanga","v","2","html-keyboard-response","264","j","bulwawan","false","",""
"1779.6000003814697","","","","","2","html-slider-response","265","","","","1",""
"1943","flag","trekta,ndege,mkate,kawa","trekta","f","2","html-keyboard-response","266","n","kawa","false","",""
"1638","","","","","2","html-slider-response","267","","","","2",""
"5128","boat","hamsi,pombe,kitanda,agalon","agalon","n","2","html-keyboard-response","268","v","pombe","false","",""
"1356.4000005722046","","","","","2","html-slider-response","269","","","","2",""
"3024","rose","singizi,paghalad,mwanake,amani","paghalad","v","2","html-keyboard-response","270","n","amani","false","",""
"1555.3999996185303","","","","","2","html-slider-response","271","","","","1",""
"3321","lamp","afya,daub,bilaska,mbolea","afya","f","2","html-keyboard-response","272","v","daub","false","",""
"3011.699999809265","","","","","2","html-slider-response","273","","","","1",""
"4744","cigar","ndugu,kuta,mlango,adhabu","adhabu","n","2","html-keyboard-response","274","v","kuta","false","",""
"1675.8000001907349","","","","","2","html-slider-response","275","","","","2",""
"2641","list","wingu,alizeti,kuzama,kaso","wingu","f","2","html-keyboard-response","276","n","kaso","false","",""
"1963.3999996185303","","","","","2","html-slider-response","277","","","","1",""
"3584","sheet","juuya,watu,bililhon,kamantis","bililhon","j","2","html-keyboard-response","278","j","bililhon","true","",""
"1796.0999994277954","","","","","2","html-slider-response","279","","","","2",""
"4088","picture","silya,chaki,asin,kubwa","kubwa","n","2","html-keyboard-response","280","v","chaki","false","",""
"1339.1000003814697","","","","","2","html-slider-response","281","","","","2",""
"3040","towel","pagpalit,tembo,funzi,pito","pagpalit","f","2","html-keyboard-response","282","j","funzi","false","",""
"1819","","","","","2","html-slider-response","283","","","","1",""
"2576","window","nanga,kweli,kujenga,umaga","kweli","v","2","html-keyboard-response","284","n","umaga","false","",""
"1676.0999994277954","","","","","2","html-slider-response","285","","","","1",""
"3161","box","kuacha,rafiki,kitande,adui","adui","n","3","html-keyboard-response","293","v","rafiki","false","","4"
"2283.5","","","","","3","html-slider-response","294","","","","1",""
"2222","","","","","3","html-keyboard-response","295","","","","",""
"2240","pants","pintal,haki,chuki,hari","haki","v","3","html-keyboard-response","296","n","hari","false","","4"
"2084.0999994277954","","","","","3","html-slider-response","297","","","","1",""
"6119","","","","","3","html-keyboard-response","298","","","","",""
"2639","cup","dagat,shimoni,jeraha,matumai","matumai","n","3","html-keyboard-response","299","v","shimoni","false","","4"
"2077.199999809265","","","","","3","html-slider-response","300","","","","1",""
"1983","","","","","3","html-keyboard-response","301","","","","",""
"3071","triangle","kihozi,bentaha,kasadpan,liog","kasadpan","j","3","html-keyboard-response","302","j","kasadpan","true","","4"
"2211.5","","","","","3","html-slider-response","303","","","","1",""
"2646","","","","","3","html-keyboard-response","304","","","","",""
"3535","curtain","lisud,bulwawan,mchanga,chubani","mchanga","j","3","html-keyboard-response","305","v","bulwawan","false","","4"
"2502.5","","","","","3","html-slider-response","306","","","","1",""
"2136","","","","","3","html-keyboard-response","307","","","","",""
"1759","clock","kartasi,abang,osha,mbwa","mbwa","n","3","html-keyboard-response","308","j","osha","false","","4"
"2820.300000190735","","","","","3","html-slider-response","309","","","","1",""
"2007","","","","","3","html-keyboard-response","310","","","","",""
"3152","mirror","rangi,kanding,sulagma,furaha","sulagma","j","3","html-keyboard-response","311","n","furaha","false","","4"
"2100.2999992370605","","","","","3","html-slider-response","312","","","","1",""
"69000","","","","","3","html-keyboard-response","313","","","","",""
"2671","coffin","kioo,barua,tubag,hulma","kioo","f","3","html-keyboard-response","314","f","kioo","true","","1"
"2356.8999996185303","","","","","3","html-slider-response","315","","","","5",""
"1448","","","","","3","html-keyboard-response","316","","","","",""
"2447","magazine","gundi,mchawi,kiti,bahandi","kiti","j","3","html-keyboard-response","317","v","mchawi","false","","4"
"2060.4000005722046","","","","","3","html-slider-response","318","","","","2",""
"1710","","","","","3","html-keyboard-response","319","","","","",""
"1616","column","pundok,dila,ufagio,pala","ufagio","j","3","html-keyboard-response","320","j","ufagio","true","","1"
"1916.8999996185303","","","","","3","html-slider-response","321","","","","5",""
"1759","","","","","3","html-keyboard-response","322","","","","",""
"2399","number","shule,kengele,choori,mundamo","mundamo","n","3","html-keyboard-response","323","n","mundamo","true","","4"
"1972.8999996185303","","","","","3","html-slider-response","324","","","","2",""
"2554","","","","","3","html-keyboard-response","325","","","","",""
"2829","rose","singizi,paghalad,mwanake,amani","paghalad","v","3","html-keyboard-response","326","n","amani","false","","4"
"2252.5999994277954","","","","","3","html-slider-response","327","","","","1",""
"1599","","","","","3","html-keyboard-response","328","","","","",""
"4800","eel","ishara,msumari,kunywa,kabuang","msumari","v","3","html-keyboard-response","329","n","kabuang","false","","4"
"2131.3999996185303","","","","","3","html-slider-response","330","","","","1",""
"3816","","","","","3","html-keyboard-response","331","","","","",""
"2911","gift","baba,nyange,pagtawag,baso","pagtawag","j","3","html-keyboard-response","332","n","baso","false","","4"
"2236.5","","","","","3","html-slider-response","333","","","","1",""
"3775","","","","","3","html-keyboard-response","334","","","","",""
"1968","apple","ukame,estante,kisu,edad","kisu","j","3","html-keyboard-response","335","j","kisu","true","","1"
"2395.3999996185303","","","","","3","html-slider-response","336","","","","5",""
"1216","","","","","3","html-keyboard-response","337","","","","",""
"1741","wheel","punda,bafuni,tawo,baadaye","bafuni","v","3","html-keyboard-response","338","v","bafuni","true","","1"
"2054.7999992370605","","","","","3","html-slider-response","339","","","","5",""
"1943","","","","","3","html-keyboard-response","340","","","","",""
"2848","knee","duka,mvuke,kubale,bili","duka","f","3","html-keyboard-response","341","f","duka","true","","4"
"2091.699999809265","","","","","3","html-slider-response","342","","","","1",""
"2591","","","","","3","html-keyboard-response","343","","","","",""
"2175","basket","kumbuka,kumba,utepe,hasira","kumba","v","3","html-keyboard-response","344","v","kumba","true","","1"
"1510.3000001907349","","","","","3","html-slider-response","345","","","","5",""
"840","","","","","3","html-keyboard-response","346","","","","",""
"2590","park","tambok,pwani,bunifu,ihalas","bunifu","j","3","html-keyboard-response","347","v","pwani","false","","4"
"2007","","","","","3","html-slider-response","348","","","","2",""
"1863","","","","","3","html-keyboard-response","349","","","","",""
"2513","finger","moyo,simu,sufuria,lima","moyo","f","3","html-keyboard-response","350","n","lima","false","","4"
"1979","","","","","3","html-slider-response","351","","","","2",""
"1806","","","","","3","html-keyboard-response","352","","","","",""
"3313","boat","agalon,hamsi,pombe,kitanda","agalon","f","3","html-keyboard-response","353","f","agalon","true","","4"
"2740.4000005722046","","","","","3","html-slider-response","354","","","","2",""
"4119","","","","","3","html-keyboard-response","355","","","","",""
"3151","hill","matumbo,kushoto,kukimba,sweta","matumbo","f","3","html-keyboard-response","356","n","sweta","false","","4"
"2019.3999996185303","","","","","3","html-slider-response","357","","","","2",""
"1672","","","","","3","html-keyboard-response","358","","","","",""
"2799","train","itik,dakika,mungu,sayari","sayari","n","3","html-keyboard-response","359","n","sayari","true","","4"
"2723.800000190735","","","","","3","html-slider-response","360","","","","2",""
"1751","","","","","3","html-keyboard-response","361","","","","",""
"5103","wolf","kaburi,ndizi,lugha,mchuzi","lugha","j","3","html-keyboard-response","362","j","lugha","true","","4"
"2852.199999809265","","","","","3","html-slider-response","363","","","","2",""
"1240","","","","","3","html-keyboard-response","364","","","","",""
"4127","snake","jansa,karon,pagtukod,mvringo","pagtukod","j","3","html-keyboard-response","365","j","pagtukod","true","","4"
"2179.800000190735","","","","","3","html-slider-response","366","","","","2",""
"1159","","","","","3","html-keyboard-response","367","","","","",""
"3167","tooth","kijiko,uadui,pahiyum,kabalaka","kabalaka","n","3","html-keyboard-response","368","f","kijiko","false","","4"
"1892.5","","","","","3","html-slider-response","369","","","","2",""
"1877","","","","","3","html-keyboard-response","370","","","","",""
"5024","notebook","msitu,kemia,kila,mdudu","kemia","v","3","html-keyboard-response","371","j","kila","false","","4"
"2011.0999994277954","","","","","3","html-slider-response","372","","","","2",""
"1424","","","","","3","html-keyboard-response","373","","","","",""
"2367","flag","trekta,ndege,mkate,kawa","trekta","f","3","html-keyboard-response","374","n","kawa","false","","4"
"1573.3000001907349","","","","","3","html-slider-response","375","","","","2",""
"1366","","","","","3","html-keyboard-response","376","","","","",""
"3439","squirrel","mahugaw,ukweli,kichwa,hofu","hofu","n","3","html-keyboard-response","377","v","ukweli","false","","4"
"2134.8999996185303","","","","","3","html-slider-response","378","","","","1",""
"1239","","","","","3","html-keyboard-response","379","","","","",""
"1759","door","tena,surali,soko,nyota","surali","v","3","html-keyboard-response","380","j","soko","false","","4"
"3108.0999994277954","","","","","3","html-slider-response","381","","","","2",""
"1031","","","","","3","html-keyboard-response","382","","","","",""
"4448","salmon","mzungu,sensilyo,seri,baharia","sensilyo","v","3","html-keyboard-response","383","n","baharia","false","","4"
"1972","","","","","3","html-slider-response","384","","","","1",""
"1208","","","","","3","html-keyboard-response","385","","","","",""
"5102","shoulder","kelele,ndaniya,guruwe,mkuu","mkuu","n","3","html-keyboard-response","386","j","guruwe","false","","4"
"2343.7999992370605","","","","","3","html-slider-response","387","","","","2",""
"998","","","","","3","html-keyboard-response","388","","","","",""
"2352","lamp","daub,bilaska,mbolea,afya","afya","n","3","html-keyboard-response","389","f","daub","false","","4"
"2099.7999992370605","","","","","3","html-slider-response","390","","","","1",""
"1160","","","","","3","html-keyboard-response","391","","","","",""
"2848","shelf","bungtod,pamahaw,kadaot,awit","pamahaw","v","3","html-keyboard-response","392","v","pamahaw","true","","1"
"1611.8000001907349","","","","","3","html-slider-response","393","","","","5",""
"1056","","","","","3","html-keyboard-response","394","","","","",""
"2719","human","tinapay,bado,kikapu,punguza","tinapay","f","3","html-keyboard-response","395","v","bado","false","","4"
"2788.5","","","","","3","html-slider-response","396","","","","1",""
"1063","","","","","3","html-keyboard-response","397","","","","",""
"2064","towel","tembo,funzi,pito,pagpalit","pagpalit","n","3","html-keyboard-response","398","f","tembo","false","","4"
"1643.8000001907349","","","","","3","html-slider-response","399","","","","1",""
"1440","","","","","3","html-keyboard-response","400","","","","",""
"2895","cat","neyemba,baki,akili,paghukom","paghukom","n","3","html-keyboard-response","401","j","akili","false","","4"
"1788.3000001907349","","","","","3","html-slider-response","402","","","","2",""
"1055","","","","","3","html-keyboard-response","403","","","","",""
"3087","spider","kamwe,bunyag,mkboa,atop","kamwe","f","3","html-keyboard-response","404","v","bunyag","false","","4"
"2124.300000190735","","","","","3","html-slider-response","405","","","","2",""
"989","","","","","3","html-keyboard-response","406","","","","",""
"3089","window","kweli,nanga,kujenga,umaga","kweli","f","3","html-keyboard-response","407","n","umaga","false","","4"
"1924","","","","","3","html-slider-response","408","","","","2",""
"1175","","","","","3","html-keyboard-response","409","","","","",""
"3264","woman","bandari,pagtabon,bituin,kovuli","pagtabon","v","3","html-keyboard-response","410","v","pagtabon","true","","1"
"2172.3999996185303","","","","","3","html-slider-response","411","","","","5",""
"879","","","","","3","html-keyboard-response","412","","","","",""
"4224","giraffe","mahitabo,daraja,jumatu,hangyo","mahitabo","f","3","html-keyboard-response","413","f","mahitabo","true","","4"
"1666.0999994277954","","","","","3","html-slider-response","414","","","","1",""
"1767","","","","","3","html-keyboard-response","415","","","","",""
"2432","elephant","petye,pagduol,suka,kito","kito","n","3","html-keyboard-response","416","v","pagduol","false","","4"
"1684.0999994277954","","","","","3","html-slider-response","417","","","","2",""
"998","","","","","3","html-keyboard-response","418","","","","",""
"3424","cave","ganti,kesho,maisha,nyundo","kesho","v","3","html-keyboard-response","419","f","ganti","false","","4"
"1380","","","","","3","html-slider-response","420","","","","1",""
"1399","","","","","3","html-keyboard-response","421","","","","",""
"3311","bread","kaili,dizeli,bugas,dari","dari","n","3","html-keyboard-response","422","n","dari","true","","4"
"1516.6000003814697","","","","","3","html-slider-response","423","","","","1",""
"1791","","","","","3","html-keyboard-response","424","","","","",""
"3839","stone","ulimwengu,wingi,mkasi,asili","wingi","v","3","html-keyboard-response","425","j","mkasi","false","","4"
"2475.0999994277954","","","","","3","html-slider-response","426","","","","2",""
"1120","","","","","3","html-keyboard-response","427","","","","",""
"5263","donkey","elfu,bloke,lalake,rombus","elfu","f","3","html-keyboard-response","428","n","rombus","false","","4"
"1771.8000001907349","","","","","3","html-slider-response","429","","","","2",""
"1150","","","","","3","html-keyboard-response","430","","","","",""
"4591","bridge","daima,ngono,sahani,panya","sahani","j","3","html-keyboard-response","431","n","panya","false","","4"
"3299.300000190735","","","","","3","html-slider-response","432","","","","1",""
"1159","","","","","3","html-keyboard-response","433","","","","",""
"2448","bonfire","goti,mwezi,mfuko,kusanya","goti","f","3","html-keyboard-response","434","f","goti","true","","4"
"1435.5999994277954","","","","","3","html-slider-response","435","","","","5",""
"1087","","","","","3","html-keyboard-response","436","","","","",""
"3504","book","kuhesa,mali,picha,mara","mali","v","3","html-keyboard-response","437","j","picha","false","","4"
"1979.5","","","","","3","html-slider-response","438","","","","1",""
"1086","","","","","3","html-keyboard-response","439","","","","",""
"3520","fish","bala,buli,baho,imani","buli","v","3","html-keyboard-response","440","f","bala","false","","4"
"1827.1000003814697","","","","","3","html-slider-response","441","","","","1",""
"1175","","","","","3","html-keyboard-response","442","","","","",""
"3953","spoon","betri,nzuri,ngazi,pagsulod","pagsulod","n","3","html-keyboard-response","443","n","pagsulod","true","","4"
"1858.1999998092651","","","","","3","html-slider-response","444","","","","2",""
"1350","","","","","3","html-keyboard-response","445","","","","",""
"3200","scissors","duga,mtawa,suga,tanuri","tanuri","n","3","html-keyboard-response","446","v","mtawa","false","","4"
"1779","","","","","3","html-slider-response","447","","","","2",""
"1080","","","","","3","html-keyboard-response","448","","","","",""
"2640","page","wakala,ishiri,skina,wimbo","wimbo","n","3","html-keyboard-response","449","v","ishiri","false","","4"
"1996","","","","","3","html-slider-response","450","","","","2",""
"927","","","","","3","html-keyboard-response","451","","","","",""
"2209","nose","gubat,kopa,sehemu,kidole","sehemu","j","3","html-keyboard-response","452","j","sehemu","true","","1"
"1788.8000001907349","","","","","3","html-slider-response","453","","","","5",""
"943","","","","","3","html-keyboard-response","454","","","","",""
"2016","ceiling","kugita,maua,kawaida,rayna","maua","v","3","html-keyboard-response","455","n","rayna","false","","4"
"1860.4000005722046","","","","","3","html-slider-response","456","","","","1",""
"935","","","","","3","html-keyboard-response","457","","","","",""
"3280","bucket","baga,kiatu,ijayo,init","kiatu","v","3","html-keyboard-response","458","f","baga","false","","4"
"1668.1999998092651","","","","","3","html-slider-response","459","","","","1",""
"984","","","","","3","html-keyboard-response","460","","","","",""
"1998","berry","abogado,nogozi,kinywa,kofia","kofia","n","3","html-keyboard-response","461","n","kofia","true","","1"
"1804.3999996185303","","","","","3","html-slider-response","462","","","","5",""
"736","","","","","3","html-keyboard-response","463","","","","",""
"3055","mother","kahawa,mbuzi,babaye,jokofu","babaye","j","3","html-keyboard-response","464","j","babaye","true","","1"
"1756.8000001907349","","","","","3","html-slider-response","465","","","","5",""
"1008","","","","","3","html-keyboard-response","466","","","","",""
"2095","mosquito","isda,taras,martilyo,gutom","martilyo","j","3","html-keyboard-response","467","j","martilyo","true","","4"
"1604.5","","","","","3","html-slider-response","468","","","","4",""
"1192","","","","","3","html-keyboard-response","469","","","","",""
"3454","perfume","bino,katuyoan,sungura,ndogo","katuyoan","v","3","html-keyboard-response","470","j","sungura","false","","4"
"1702.8999996185303","","","","","3","html-slider-response","471","","","","1",""
"823","","","","","3","html-keyboard-response","472","","","","",""
"3265","sheet","juuya,watu,kamantis,bililhon","bililhon","n","3","html-keyboard-response","473","n","bililhon","true","","4"
"1683.6999998092651","","","","","3","html-slider-response","474","","","","2",""
"1048","","","","","3","html-keyboard-response","475","","","","",""
"1631","puppet","mazishi,napulo,lamok,godoro","mazishi","f","3","html-keyboard-response","476","f","mazishi","true","","1"
"1861","","","","","3","html-slider-response","477","","","","5",""
"1015","","","","","3","html-keyboard-response","478","","","","",""
"3086","poster","madungog,nchi,fedha,kasuko","madungog","f","3","html-keyboard-response","479","n","kasuko","false","","4"
"1950.1999998092651","","","","","3","html-slider-response","480","","","","2",""
"912","","","","","3","html-keyboard-response","481","","","","",""
"4976","music","baiski,mraba,mageho,tumbo","baiski","f","3","html-keyboard-response","482","n","tumbo","false","","4"
"1948.1000003814697","","","","","3","html-slider-response","483","","","","2",""
"991","","","","","3","html-keyboard-response","484","","","","",""
"3678","key","miaka,chombo,goma,ahos","chombo","v","3","html-keyboard-response","485","n","ahos","false","","4"
"1927.5","","","","","3","html-slider-response","486","","","","1",""
"935","","","","","3","html-keyboard-response","487","","","","",""
"2240","sock","ndoora,kimysa,mtirka,mamba","mamba","n","3","html-keyboard-response","488","n","mamba","true","","4"
"1907.8000001907349","","","","","3","html-slider-response","489","","","","2",""
"2055","","","","","3","html-keyboard-response","490","","","","",""
"3552","marker","maji,mapafu,salita,atay","maji","f","3","html-keyboard-response","491","v","mapafu","false","","4"
"2724.300000190735","","","","","3","html-slider-response","492","","","","2",""
"966","","","","","3","html-keyboard-response","493","","","","",""
"1825","office","hazini,leso,yatima,kuna","leso","v","3","html-keyboard-response","494","v","leso","true","","4"
"1547.5999994277954","","","","","3","html-slider-response","495","","","","5",""
"895","","","","","3","html-keyboard-response","496","","","","",""
"4543","shoe","uyoga,nyeusi,hatua,kama","uyoga","f","3","html-keyboard-response","497","n","kama","false","","4"
"2403.7000007629395","","","","","3","html-slider-response","498","","","","1",""
"823","","","","","3","html-keyboard-response","499","","","","",""
"2224","cop","bustani,jikoni,mechezo,bakus","mechezo","j","3","html-keyboard-response","500","n","bakus","false","","4"
"2236.300000190735","","","","","3","html-slider-response","501","","","","1",""
"1247","","","","","3","html-keyboard-response","502","","","","",""
"4496","bank","kudhibi,tualya,ofisi,silingan","silingan","n","3","html-keyboard-response","503","n","silingan","true","","4"
"1578.8000001907349","","","","","3","html-slider-response","504","","","","2",""
"1551","","","","","3","html-keyboard-response","505","","","","",""
"2176","letter","filimbi,chuma,uhuru,kifua","kifua","n","3","html-keyboard-response","506","n","kifua","true","","1"
"1451.4000005722046","","","","","3","html-slider-response","507","","","","5",""
"927","","","","","3","html-keyboard-response","508","","","","",""
"2111","dog","lubi,washia,kalamu,bahari","bahari","n","3","html-keyboard-response","509","n","bahari","true","","1"
"1532.1000003814697","","","","","3","html-slider-response","510","","","","5",""
"1007","","","","","3","html-keyboard-response","511","","","","",""
"3951","shop","samaki,nopya,kerida,ndezu","samaki","f","3","html-keyboard-response","512","n","ndezu","false","","4"
"2355.3999996185303","","","","","3","html-slider-response","513","","","","1",""
"1175","","","","","3","html-keyboard-response","514","","","","",""
"4240","flower","tamasha,lobo,usiku,bega","bega","n","3","html-keyboard-response","515","f","tamasha","false","","4"
"2139.9000005722046","","","","","3","html-slider-response","516","","","","3",""
"783","","","","","3","html-keyboard-response","517","","","","",""
"1856","cigar","adhabu,ndugu,kuta,mlango","adhabu","f","3","html-keyboard-response","518","f","adhabu","true","","1"
"1467.6000003814697","","","","","3","html-slider-response","519","","","","5",""
"735","","","","","3","html-keyboard-response","520","","","","",""
"3472","hammer","mekno,kitovu,napakyas,layag","napakyas","j","3","html-keyboard-response","521","n","layag","false","","4"
"1723.0999994277954","","","","","3","html-slider-response","522","","","","1",""
"1247","","","","","3","html-keyboard-response","523","","","","",""
"4047","fork","baboy,paghago,mgonjwa,gorisi","mgonjwa","j","3","html-keyboard-response","524","j","mgonjwa","true","","4"
"2132.2999992370605","","","","","3","html-slider-response","525","","","","5",""
"951","","","","","3","html-keyboard-response","526","","","","",""
"1535","sun","basi,bendi,luha,uongo","basi","f","3","html-keyboard-response","527","f","basi","true","","1"
"1388.5","","","","","3","html-slider-response","528","","","","5",""
"734","","","","","3","html-keyboard-response","529","","","","",""
"5279","ladder","mashua,pangalan,mwanga,kamba","pangalan","v","3","html-keyboard-response","530","v","pangalan","true","","4"
"2003.1000003814697","","","","","3","html-slider-response","531","","","","2",""
"1240","","","","","3","html-keyboard-response","532","","","","",""
"1614","banana","kasamok,kazi,hagdan,twai","kazi","v","3","html-keyboard-response","533","v","kazi","true","","1"
"2375","","","","","3","html-slider-response","534","","","","5",""
"840","","","","","3","html-keyboard-response","535","","","","",""
"3103","pudding","abug,mpishi,aibu,iring","aibu","j","3","html-keyboard-response","536","n","iring","false","","4"
"1203.4000005722046","","","","","3","html-slider-response","537","","","","2",""
"984","","","","","3","html-keyboard-response","538","","","","",""
"4304","body","nyundu,tindashan,jibini,kununa","tindashan","v","3","html-keyboard-response","539","n","kununa","false","","4"
"1228.5999994277954","","","","","3","html-slider-response","540","","","","2",""
"1200","","","","","3","html-keyboard-response","541","","","","",""
"6367","bed","kalipay,haraka,starehe,mapintas","mapintas","n","3","html-keyboard-response","542","v","haraka","false","","4"
"1499.5999994277954","","","","","3","html-slider-response","543","","","","1",""
"783","","","","","3","html-keyboard-response","544","","","","",""
"2256","tissue","lamigas,kisiwa,ugomvi,katika","ugomvi","j","3","html-keyboard-response","545","f","lamigas","false","","4"
"1612.1000003814697","","","","","3","html-slider-response","546","","","","1",""
"863","","","","","3","html-keyboard-response","547","","","","",""
"2656","candle","geza,gabi,farasi,kupanda","geza","f","3","html-keyboard-response","548","v","gabi","false","","4"
"1236.6999998092651","","","","","3","html-slider-response","549","","","","2",""
"1095","","","","","3","html-keyboard-response","550","","","","",""
"1280","tomato","mvua,chupi,chupa,takatak","mvua","f","3","html-keyboard-response","551","f","mvua","true","","1"
"1347.8999996185303","","","","","3","html-slider-response","552","","","","5",""
"616","","","","","3","html-keyboard-response","553","","","","",""
"2271","list","wingu,alizeti,kuzama,kaso","wingu","f","3","html-keyboard-response","554","n","kaso","false","","4"
"1700.5","","","","","3","html-slider-response","555","","","","1",""
"983","","","","","3","html-keyboard-response","556","","","","",""
"2976","olive","bata,jiwe,siagi,welder","jiwe","v","3","html-keyboard-response","557","j","siagi","false","","4"
"1852.1999998092651","","","","","3","html-slider-response","558","","","","1",""
"1055","","","","","3","html-keyboard-response","559","","","","",""
"2175","picture","silya,chaki,kubwa,asin","kubwa","j","3","html-keyboard-response","560","j","kubwa","true","","1"
"1907.6999998092651","","","","","3","html-slider-response","561","","","","5",""
"743","","","","","3","html-keyboard-response","562","","","","",""
"5193","page","wimbo,wakala,ishiri,skina","wimbo","f","4","html-keyboard-response","888","j","ishiri","false","",""
"2179.5","","","","","4","html-slider-response","889","","","","1",""
"2328","sheet","bililhon,juuya,watu,kamantis","bililhon","f","4","html-keyboard-response","890","n","kamantis","false","",""
"2076.300000190735","","","","","4","html-slider-response","891","","","","1",""
"2927","ladder","mashua,pangalan,mwanga,kamba","pangalan","v","4","html-keyboard-response","892","n","kamba","false","",""
"1843.6000003814697","","","","","4","html-slider-response","893","","","","1",""
"3399","door","tena,surali,soko,nyota","surali","v","4","html-keyboard-response","894","f","tena","false","",""
"1695.2000007629395","","","","","4","html-slider-response","895","","","","1",""
"3391","spider","bunyag,mkboa,atop,kamwe","kamwe","n","4","html-keyboard-response","896","f","bunyag","false","",""
"2371.699999809265","","","","","4","html-slider-response","897","","","","3",""
"3608","picture","silya,kubwa,chaki,asin","kubwa","v","4","html-keyboard-response","898","f","silya","false","",""
"2628.0999994277954","","","","","4","html-slider-response","899","","","","1",""
"2534","boat","agalon,hamsi,pombe,kitanda","agalon","f","4","html-keyboard-response","900","f","agalon","true","",""
"1638.8000001907349","","","","","4","html-slider-response","901","","","","5",""
"3031","donkey","bloke,lalake,elfu,rombus","elfu","j","4","html-keyboard-response","902","j","elfu","true","",""
"2764.300000190735","","","","","4","html-slider-response","903","","","","5",""
"4080","book","kuhesa,mali,picha,mara","mali","v","4","html-keyboard-response","904","n","mara","false","",""
"1723.6999998092651","","","","","4","html-slider-response","905","","","","2",""
"3472","cup","matumai,dagat,shimoni,jeraha","matumai","f","4","html-keyboard-response","906","n","jeraha","false","",""
"1531.5","","","","","4","html-slider-response","907","","","","1",""
"3743","sun","bendi,luha,uongo,basi","basi","n","4","html-keyboard-response","908","n","basi","true","",""
"1826.8000001907349","","","","","4","html-slider-response","909","","","","5",""
"3402","pudding","aibu,abug,mpishi,iring","aibu","f","4","html-keyboard-response","910","f","aibu","true","",""
"1371.6000003814697","","","","","4","html-slider-response","911","","","","2",""
"7503","human","bado,tinapay,kikapu,punguza","tinapay","v","4","html-keyboard-response","912","n","punguza","false","",""
"1995","","","","","4","html-slider-response","913","","","","4",""
"4528","squirrel","hofu,mahugaw,ukweli,kichwa","hofu","f","4","html-keyboard-response","914","j","ukweli","false","",""
"2195.699999809265","","","","","4","html-slider-response","915","","","","4",""
"5880","park","bunifu,tambok,pwani,ihalas","bunifu","f","4","html-keyboard-response","916","v","tambok","false","",""
"1907.8000001907349","","","","","4","html-slider-response","917","","","","1",""
"4439","poster","madungog,nchi,fedha,kasuko","madungog","f","4","html-keyboard-response","918","n","kasuko","false","",""
"1675.3999996185303","","","","","4","html-slider-response","919","","","","1",""
"8880","wolf","kaburi,lugha,ndizi,mchuzi","lugha","v","4","html-keyboard-response","920","v","lugha","true","",""
"3505.3999996185303","","","","","4","html-slider-response","921","","","","1",""
"10233","cat","neyemba,paghukom,baki,akili","paghukom","v","4","html-keyboard-response","922","v","paghukom","true","",""
"1530.3000001907349","","","","","4","html-slider-response","923","","","","4",""
"3647","fish","buli,bala,baho,imani","buli","f","4","html-keyboard-response","924","f","buli","true","",""
"1323.3999996185303","","","","","4","html-slider-response","925","","","","4",""
"1695","tooth","kijiko,uadui,pahiyum,kabalaka","kabalaka","n","4","html-keyboard-response","926","f","kijiko","false","",""
"1523.8000001907349","","","","","4","html-slider-response","927","","","","2",""
"2294","cave","kesho,ganti,maisha,nyundo","kesho","f","4","html-keyboard-response","928","v","ganti","false","",""
"1703.8999996185303","","","","","4","html-slider-response","929","","","","2",""
"3031","lamp","daub,afya,bilaska,mbolea","afya","v","4","html-keyboard-response","930","f","daub","false","",""
"2483.5","","","","","4","html-slider-response","931","","","","3",""
"2039","banana","kasamok,hagdan,twai,kazi","kazi","n","4","html-keyboard-response","932","n","kazi","true","",""
"1283.1999998092651","","","","","4","html-slider-response","933","","","","2",""
"1623","bonfire","mwezi,mfuko,kusanya,goti","goti","n","4","html-keyboard-response","934","n","goti","true","",""
"1902.7999992370605","","","","","4","html-slider-response","935","","","","5",""
"6127","cop","bustani,jikoni,mechezo,bakus","mechezo","j","4","html-keyboard-response","936","j","mechezo","true","",""
"1459.3999996185303","","","","","4","html-slider-response","937","","","","2",""
"3305","marker","mapafu,salita,maji,atay","maji","j","4","html-keyboard-response","938","j","maji","true","",""
"1058.8999996185303","","","","","4","html-slider-response","939","","","","4",""
"2488","window","kweli,nanga,kujenga,umaga","kweli","f","4","html-keyboard-response","940","v","nanga","false","",""
"1220.1000003814697","","","","","4","html-slider-response","941","","","","2",""
"6230","body","nyundu,tindashan,jibini,kununa","tindashan","v","4","html-keyboard-response","942","n","kununa","false","",""
"2287.300000190735","","","","","4","html-slider-response","943","","","","2",""
"2429","apple","ukame,estante,kisu,edad","kisu","j","4","html-keyboard-response","944","n","edad","false","",""
"1271.6999998092651","","","","","4","html-slider-response","945","","","","2",""
"6232","salmon","sensilyo,mzungu,seri,baharia","sensilyo","f","4","html-keyboard-response","946","v","mzungu","false","",""
"1227.6000003814697","","","","","4","html-slider-response","947","","","","2",""
"3200","bed","mapintas,kalipay,haraka,starehe","mapintas","f","4","html-keyboard-response","948","v","kalipay","false","",""
"1267.6000003814697","","","","","4","html-slider-response","949","","","","2",""
"2968","berry","abogado,nogozi,kofia,kinywa","kofia","j","4","html-keyboard-response","950","j","kofia","true","",""
"1131.3000001907349","","","","","4","html-slider-response","951","","","","4",""
"7216","mirror","rangi,kanding,sulagma,furaha","sulagma","j","4","html-keyboard-response","952","n","furaha","false","",""
"1219.7000007629395","","","","","4","html-slider-response","953","","","","2",""
"2185","flag","trekta,ndege,mkate,kawa","trekta","f","4","html-keyboard-response","954","n","kawa","false","",""
"1073.6000003814697","","","","","4","html-slider-response","955","","","","2",""
"2311","shoulder","kelele,ndaniya,mkuu,guruwe","mkuu","j","4","html-keyboard-response","956","n","guruwe","false","",""
"1070.8000001907349","","","","","4","html-slider-response","957","","","","2",""
"4592","tissue","ugomvi,lamigas,kisiwa,katika","ugomvi","f","4","html-keyboard-response","958","n","katika","false","",""
"1530.7999992370605","","","","","4","html-slider-response","959","","","","2",""
"2656","notebook","msitu,kila,kemia,mdudu","kemia","j","4","html-keyboard-response","960","j","kemia","true","",""
"1746.6000003814697","","","","","4","html-slider-response","961","","","","3",""
"4888","snake","jansa,pagtukod,karon,mvringo","pagtukod","v","4","html-keyboard-response","962","n","mvringo","false","",""
"1116","","","","","4","html-slider-response","963","","","","2",""
"4753","finger","simu,moyo,sufuria,lima","moyo","v","4","html-keyboard-response","964","v","moyo","true","",""
"2321","","","","","4","html-slider-response","965","","","","5",""
"2232","basket","kumba,kumbuka,utepe,hasira","kumba","f","4","html-keyboard-response","966","f","kumba","true","",""
"1147.8000001907349","","","","","4","html-slider-response","967","","","","2",""
"1902","curtain","lisud,mchanga,bulwawan,chubani","mchanga","v","4","html-keyboard-response","968","v","mchanga","true","",""
"1479","","","","","4","html-slider-response","969","","","","2",""
"2295","perfume","bino,sungura,ndogo,katuyoan","katuyoan","n","4","html-keyboard-response","970","v","sungura","false","",""
"1364.1999998092651","","","","","4","html-slider-response","971","","","","2",""
"1863","key","miaka,goma,chombo,ahos","chombo","j","4","html-keyboard-response","972","n","ahos","false","",""
"1540.3000001907349","","","","","4","html-slider-response","973","","","","2",""
"4055","olive","bata,jiwe,siagi,welder","jiwe","v","4","html-keyboard-response","974","j","siagi","false","",""
"1923.1999998092651","","","","","4","html-slider-response","975","","","","3",""
"4264","rose","singizi,paghalad,mwanake,amani","paghalad","v","4","html-keyboard-response","976","j","mwanake","false","",""
"1075","","","","","4","html-slider-response","977","","","","4",""
"5286","bridge","daima,ngono,sahani,panya","sahani","j","4","html-keyboard-response","978","j","sahani","true","",""
"1183.5999994277954","","","","","4","html-slider-response","979","","","","4",""
"3136","hill","kushoto,kukimba,sweta,matumbo","matumbo","n","4","html-keyboard-response","980","j","sweta","false","",""
"1067.2000007629395","","","","","4","html-slider-response","981","","","","2",""
"3648","letter","filimbi,kifua,chuma,uhuru","kifua","v","4","html-keyboard-response","982","j","chuma","false","",""
"1483","","","","","4","html-slider-response","983","","","","2",""
"2255","sock","ndoora,mamba,kimysa,mtirka","mamba","v","4","html-keyboard-response","984","v","mamba","true","",""
"1661.6999998092651","","","","","4","html-slider-response","985","","","","5",""
"3423","fork","baboy,paghago,gorisi,mgonjwa","mgonjwa","n","4","html-keyboard-response","986","n","mgonjwa","true","",""
"1092.3999996185303","","","","","4","html-slider-response","987","","","","5",""
"1992","box","kuacha,rafiki,kitande,adui","adui","n","4","html-keyboard-response","988","v","rafiki","false","",""
"1923.8000001907349","","","","","4","html-slider-response","989","","","","3",""
"4552","gift","baba,pagtawag,nyange,baso","pagtawag","v","4","html-keyboard-response","990","v","pagtawag","true","",""
"1390.9000005722046","","","","","4","html-slider-response","991","","","","4",""
"2848","bucket","baga,ijayo,kiatu,init","kiatu","j","4","html-keyboard-response","992","v","ijayo","false","",""
"1061","","","","","4","html-slider-response","993","","","","2",""
"4263","shop","nopya,kerida,ndezu,samaki","samaki","n","4","html-keyboard-response","994","n","samaki","true","",""
"1380.3000001907349","","","","","4","html-slider-response","995","","","","4",""
"3238","puppet","napulo,lamok,godoro,mazishi","mazishi","n","4","html-keyboard-response","996","n","mazishi","true","",""
"1079.3999996185303","","","","","4","html-slider-response","997","","","","4",""
"2201","nose","sehemu,gubat,kopa,kidole","sehemu","f","4","html-keyboard-response","998","j","kopa","false","",""
"1331.3999996185303","","","","","4","html-slider-response","999","","","","1",""
"4568","music","baiski,mraba,mageho,tumbo","baiski","f","4","html-keyboard-response","1000","f","baiski","true","",""
"1338.8999996185303","","","","","4","html-slider-response","1001","","","","4",""
"4625","dog","lubi,washia,bahari,kalamu","bahari","j","4","html-keyboard-response","1002","j","bahari","true","",""
"1075.7999992370605","","","","","4","html-slider-response","1003","","","","4",""
"8055","eel","ishara,msumari,kunywa,kabuang","msumari","v","4","html-keyboard-response","1004","v","msumari","true","",""
"2235.8999996185303","","","","","4","html-slider-response","1005","","","","3",""
"2015","number","shule,kengele,choori,mundamo","mundamo","n","4","html-keyboard-response","1006","n","mundamo","true","",""
"1324.0999994277954","","","","","4","html-slider-response","1007","","","","5",""
"2304","tomato","chupi,chupa,takatak,mvua","mvua","n","4","html-keyboard-response","1008","n","mvua","true","",""
"1148.3000001907349","","","","","4","html-slider-response","1009","","","","2",""
"3759","coffin","barua,tubag,kioo,hulma","kioo","j","4","html-keyboard-response","1010","v","tubag","false","",""
"1931.3000001907349","","","","","4","html-slider-response","1011","","","","2",""
"4512","knee","mvuke,kubale,bili,duka","duka","n","4","html-keyboard-response","1012","n","duka","true","",""
"1051.1000003814697","","","","","4","html-slider-response","1013","","","","1",""
"2144","woman","bandari,pagtabon,bituin,kovuli","pagtabon","v","4","html-keyboard-response","1014","v","pagtabon","true","",""
"1435.6999998092651","","","","","4","html-slider-response","1015","","","","5",""
"2959","stone","ulimwengu,wingi,mkasi,asili","wingi","v","4","html-keyboard-response","1016","n","asili","false","",""
"1332.1999998092651","","","","","4","html-slider-response","1017","","","","2",""
"2485","bread","kaili,dari,dizeli,bugas","dari","v","4","html-keyboard-response","1018","v","dari","true","",""
"1080","","","","","4","html-slider-response","1019","","","","1",""
"2903","triangle","kihozi,bentaha,liog,kasadpan","kasadpan","n","4","html-keyboard-response","1020","n","kasadpan","true","",""
"1747.1999998092651","","","","","4","html-slider-response","1021","","","","2",""
"2807","scissors","tanuri,duga,mtawa,suga","tanuri","f","4","html-keyboard-response","1022","j","mtawa","false","",""
"2203.5","","","","","4","html-slider-response","1023","","","","1",""
"4351","giraffe","mahitabo,daraja,jumatu,hangyo","mahitabo","f","4","html-keyboard-response","1024","f","mahitabo","true","",""
"1274.6000003814697","","","","","4","html-slider-response","1025","","","","5",""
"5216","flower","bega,tamasha,lobo,usiku","bega","f","4","html-keyboard-response","1026","v","tamasha","false","",""
"1186.8000001907349","","","","","4","html-slider-response","1027","","","","4",""
"1575","candle","gabi,geza,farasi,kupanda","geza","v","4","html-keyboard-response","1028","f","gabi","false","",""
"1486.1000003814697","","","","","4","html-slider-response","1029","","","","1",""
"2400","mother","kahawa,babaye,mbuzi,jokofu","babaye","v","4","html-keyboard-response","1030","v","babaye","true","",""
"1419.5999994277954","","","","","4","html-slider-response","1031","","","","5",""
"3071","towel","tembo,funzi,pito,pagpalit","pagpalit","n","4","html-keyboard-response","1032","j","pito","false","",""
"1283.2000007629395","","","","","4","html-slider-response","1033","","","","2",""
"5112","elephant","petye,pagduol,suka,kito","kito","n","4","html-keyboard-response","1034","n","kito","true","",""
"1131.5","","","","","4","html-slider-response","1035","","","","4",""
"2240","shelf","bungtod,pamahaw,kadaot,awit","pamahaw","v","4","html-keyboard-response","1036","v","pamahaw","true","",""
"1380.5","","","","","4","html-slider-response","1037","","","","5",""
"1752","mosquito","isda,martilyo,taras,gutom","martilyo","v","4","html-keyboard-response","1038","v","martilyo","true","",""
"1060.5","","","","","4","html-slider-response","1039","","","","2",""
"2456","column","pundok,dila,pala,ufagio","ufagio","n","4","html-keyboard-response","1040","f","pundok","false","",""
"2195.8999996185303","","","","","4","html-slider-response","1041","","","","4",""
"2040","pants","pintal,haki,chuki,hari","haki","v","4","html-keyboard-response","1042","n","hari","false","",""
"2020.5","","","","","4","html-slider-response","1043","","","","1",""
"2504","list","alizeti,wingu,kuzama,kaso","wingu","v","4","html-keyboard-response","1044","n","kaso","false","",""
"1564.5","","","","","4","html-slider-response","1045","","","","4",""
"3472","bank","silingan,kudhibi,tualya,ofisi","silingan","f","4","html-keyboard-response","1046","f","silingan","true","",""
"1508.4000005722046","","","","","4","html-slider-response","1047","","","","1",""
"4473","clock","kartasi,mbwa,abang,osha","mbwa","v","4","html-keyboard-response","1048","v","mbwa","true","",""
"1588.3999996185303","","","","","4","html-slider-response","1049","","","","4",""
"2920","ceiling","kugita,kawaida,rayna,maua","maua","n","4","html-keyboard-response","1050","n","maua","true","",""
"1587.1999998092651","","","","","4","html-slider-response","1051","","","","1",""
"3817","train","itik,sayari,dakika,mungu","sayari","v","4","html-keyboard-response","1052","v","sayari","true","",""
"1426.8000001907349","","","","","4","html-slider-response","1053","","","","1",""
"4007","magazine","gundi,mchawi,bahandi,kiti","kiti","n","4","html-keyboard-response","1054","v","mchawi","false","",""
"2372.4000005722046","","","","","4","html-slider-response","1055","","","","1",""
"2406","office","hazini,yatima,leso,kuna","leso","j","4","html-keyboard-response","1056","j","leso","true","",""
"1886.6000003814697","","","","","4","html-slider-response","1057","","","","5",""
"2431","wheel","punda,bafuni,tawo,baadaye","bafuni","v","4","html-keyboard-response","1058","f","punda","false","",""
"1380.1000003814697","","","","","4","html-slider-response","1059","","","","1",""
"5544","spoon","pagsulod,betri,nzuri,ngazi","pagsulod","f","4","html-keyboard-response","1060","f","pagsulod","true","",""
"1330.6000003814697","","","","","4","html-slider-response","1061","","","","2",""
"1960","hammer","mekno,napakyas,kitovu,layag","napakyas","v","4","html-keyboard-response","1062","v","napakyas","true","",""
"1307.7000007629395","","","","","4","html-slider-response","1063","","","","1",""
"2960","cigar","ndugu,kuta,adhabu,mlango","adhabu","j","4","html-keyboard-response","1064","j","adhabu","true","",""
"1283","","","","","4","html-slider-response","1065","","","","5",""
"2584","shoe","nyeusi,hatua,kama,uyoga","uyoga","n","4","html-keyboard-response","1066","j","kama","false","",""
"1522.8999996185303","","","","","4","html-slider-response","1067","","","","1",""
"2795","list","alizeti,wingu,kuzama,kaso","wingu","v","5","html-keyboard-response","1069","n","kaso","false","",""
"2858.3999996185303","","","","","5","html-slider-response","1070","","","","4",""
"2816","number","mundamo,shule,kengele,choori","mundamo","f","5","html-keyboard-response","1071","f","mundamo","true","",""
"1283.4000005722046","","","","","5","html-slider-response","1072","","","","5",""
"2552","apple","kisu,ukame,estante,edad","kisu","f","5","html-keyboard-response","1073","f","kisu","true","",""
"1515.6000003814697","","","","","5","html-slider-response","1074","","","","1",""
"3904","knee","mvuke,duka,kubale,bili","duka","v","5","html-keyboard-response","1075","v","duka","true","",""
"1323.1000003814697","","","","","5","html-slider-response","1076","","","","1",""
"2798","tooth","kabalaka,kijiko,uadui,pahiyum","kabalaka","f","5","html-keyboard-response","1077","v","kijiko","false","",""
"2839.300000190735","","","","","5","html-slider-response","1078","","","","2",""
"6344","berry","abogado,kofia,nogozi,kinywa","kofia","v","5","html-keyboard-response","1079","v","kofia","true","",""
"1346.7000007629395","","","","","5","html-slider-response","1080","","","","3",""
"2888","bridge","daima,sahani,ngono,panya","sahani","v","5","html-keyboard-response","1081","n","panya","false","",""
"3228.300000190735","","","","","5","html-slider-response","1082","","","","3",""
"1582","perfume","bino,katuyoan,sungura,ndogo","katuyoan","v","5","html-keyboard-response","1083","v","katuyoan","true","",""
"1111.3000001907349","","","","","5","html-slider-response","1084","","","","2",""
"3511","ladder","mashua,mwanga,pangalan,kamba","pangalan","j","5","html-keyboard-response","1085","v","mwanga","false","",""
"1044","","","","","5","html-slider-response","1086","","","","2",""
"1895","pants","pintal,chuki,hari,haki","haki","n","5","html-keyboard-response","1087","n","haki","true","",""
"1468.6999998092651","","","","","5","html-slider-response","1088","","","","1",""
"7328","salmon","mzungu,seri,baharia,sensilyo","sensilyo","n","5","html-keyboard-response","1089","n","sensilyo","true","",""
"1436.1999998092651","","","","","5","html-slider-response","1090","","","","1",""
"3487","coffin","barua,tubag,hulma,kioo","kioo","n","5","html-keyboard-response","1091","v","tubag","false","",""
"1852.0999994277954","","","","","5","html-slider-response","1092","","","","1",""
"3824","park","tambok,pwani,ihalas,bunifu","bunifu","n","5","html-keyboard-response","1093","v","pwani","false","",""
"2179.300000190735","","","","","5","html-slider-response","1094","","","","1",""
"4328","giraffe","daraja,jumatu,hangyo,mahitabo","mahitabo","n","5","html-keyboard-response","1095","n","mahitabo","true","",""
"1131.9000005722046","","","","","5","html-slider-response","1096","","","","5",""
"3998","mirror","rangi,sulagma,kanding,furaha","sulagma","v","5","html-keyboard-response","1097","n","furaha","false","",""
"1110.5999994277954","","","","","5","html-slider-response","1098","","","","4",""
"2536","ceiling","kugita,kawaida,rayna,maua","maua","n","5","html-keyboard-response","1099","j","rayna","false","",""
"2636","","","","","5","html-slider-response","1100","","","","3",""
"4304","marker","mapafu,maji,salita,atay","maji","v","5","html-keyboard-response","1101","v","maji","true","",""
"1178.2000007629395","","","","","5","html-slider-response","1102","","","","4",""
"2129","sock","mamba,ndoora,kimysa,mtirka","mamba","f","5","html-keyboard-response","1103","f","mamba","true","",""
"1210.2999992370605","","","","","5","html-slider-response","1104","","","","5",""
"6960","cop","bustani,jikoni,mechezo,bakus","mechezo","j","5","html-keyboard-response","1105","f","bustani","false","",""
"2521.7000007629395","","","","","5","html-slider-response","1106","","","","1",""
"4465","gift","baba,nyange,baso,pagtawag","pagtawag","n","5","html-keyboard-response","1107","n","pagtawag","true","",""
"2065.5","","","","","5","html-slider-response","1108","","","","3",""
"2152","notebook","msitu,kemia,kila,mdudu","kemia","v","5","html-keyboard-response","1109","j","kila","false","",""
"1442.3999996185303","","","","","5","html-slider-response","1110","","","","1",""
"2072","bank","kudhibi,tualya,silingan,ofisi","silingan","j","5","html-keyboard-response","1111","j","silingan","true","",""
"1330.8999996185303","","","","","5","html-slider-response","1112","","","","1",""
"2888","letter","filimbi,chuma,kifua,uhuru","kifua","j","5","html-keyboard-response","1113","v","chuma","false","",""
"1090.5","","","","","5","html-slider-response","1114","","","","2",""
"1783","candle","gabi,farasi,kupanda,geza","geza","n","5","html-keyboard-response","1115","n","geza","true","",""
"1560.7999992370605","","","","","5","html-slider-response","1116","","","","1",""
"3040","bread","kaili,dizeli,dari,bugas","dari","j","5","html-keyboard-response","1117","j","dari","true","",""
"1922.3000001907349","","","","","5","html-slider-response","1118","","","","1",""
"4793","snake","jansa,karon,mvringo,pagtukod","pagtukod","n","5","html-keyboard-response","1119","n","pagtukod","true","",""
"1161.7999992370605","","","","","5","html-slider-response","1120","","","","2",""
"3888","rose","paghalad,singizi,mwanake,amani","paghalad","f","5","html-keyboard-response","1121","f","paghalad","true","",""
"1117.0999994277954","","","","","5","html-slider-response","1122","","","","4",""
"1711","hill","kushoto,kukimba,matumbo,sweta","matumbo","j","5","html-keyboard-response","1123","n","sweta","false","",""
"1138.5","","","","","5","html-slider-response","1124","","","","1",""
"3032","train","itik,dakika,mungu,sayari","sayari","n","5","html-keyboard-response","1125","v","dakika","false","",""
"1314.5","","","","","5","html-slider-response","1126","","","","1",""
"3462","shop","nopya,kerida,samaki,ndezu","samaki","j","5","html-keyboard-response","1127","j","samaki","true","",""
"1070.3999996185303","","","","","5","html-slider-response","1128","","","","4",""
"3121","nose","gubat,sehemu,kopa,kidole","sehemu","v","5","html-keyboard-response","1129","j","kopa","false","",""
"1426.0999994277954","","","","","5","html-slider-response","1130","","","","1",""
"2199","boat","hamsi,agalon,pombe,kitanda","agalon","v","5","html-keyboard-response","1131","v","agalon","true","",""
"2394.800000190735","","","","","5","html-slider-response","1132","","","","5",""
"4193","body","nyundu,jibini,tindashan,kununa","tindashan","j","5","html-keyboard-response","1133","f","nyundu","false","",""
"1306.8999996185303","","","","","5","html-slider-response","1134","","","","2",""
"2304","bed","kalipay,mapintas,haraka,starehe","mapintas","v","5","html-keyboard-response","1135","v","mapintas","true","",""
"1530.4000005722046","","","","","5","html-slider-response","1136","","","","1",""
"4864","squirrel","mahugaw,ukweli,hofu,kichwa","hofu","j","5","html-keyboard-response","1137","v","ukweli","false","",""
"2068","","","","","5","html-slider-response","1138","","","","3",""
"86873","window","nanga,kweli,kujenga,umaga","kweli","v","5","html-keyboard-response","1139","n","umaga","false","",""
"1881.5","","","","","5","html-slider-response","1140","","","","1",""
"6031","bonfire","mwezi,mfuko,kusanya,goti","goti","n","5","html-keyboard-response","1141","n","goti","true","",""
"1199.1000003814697","","","","","5","html-slider-response","1142","","","","5",""
"4719","fish","bala,baho,buli,imani","buli","j","5","html-keyboard-response","1143","j","buli","true","",""
"1606.1000003814697","","","","","5","html-slider-response","1144","","","","5",""
"2119","cat","neyemba,baki,akili,paghukom","paghukom","n","5","html-keyboard-response","1145","n","paghukom","true","",""
"1574","","","","","5","html-slider-response","1146","","","","4",""
"2330","spider","bunyag,mkboa,kamwe,atop","kamwe","j","5","html-keyboard-response","1147","f","bunyag","false","",""
"1794.7000007629395","","","","","5","html-slider-response","1148","","","","2",""
"7401","eel","ishara,kunywa,msumari,kabuang","msumari","j","5","html-keyboard-response","1149","j","msumari","true","",""
"1300.9000005722046","","","","","5","html-slider-response","1150","","","","4",""
"1894","woman","bandari,pagtabon,bituin,kovuli","pagtabon","v","5","html-keyboard-response","1151","v","pagtabon","true","",""
"1207.1000003814697","","","","","5","html-slider-response","1152","","","","5",""
"3048","magazine","kiti,gundi,mchawi,bahandi","kiti","f","5","html-keyboard-response","1153","j","mchawi","false","",""
"1315.3999996185303","","","","","5","html-slider-response","1154","","","","1",""
"1575","pudding","abug,aibu,mpishi,iring","aibu","v","5","html-keyboard-response","1155","v","aibu","true","",""
"1539.6999998092651","","","","","5","html-slider-response","1156","","","","1",""
"2199","lamp","daub,afya,bilaska,mbolea","afya","v","5","html-keyboard-response","1157","f","daub","false","",""
"1306.0999994277954","","","","","5","html-slider-response","1158","","","","2",""
"3568","cave","kesho,ganti,maisha,nyundo","kesho","f","5","html-keyboard-response","1159","f","kesho","true","",""
"1186.1000003814697","","","","","5","html-slider-response","1160","","","","1",""
"3177","shoulder","kelele,ndaniya,mkuu,guruwe","mkuu","j","5","html-keyboard-response","1161","n","guruwe","false","",""
"1688.3999996185303","","","","","5","html-slider-response","1162","","","","1",""
"2417","stone","ulimwengu,mkasi,asili,wingi","wingi","n","5","html-keyboard-response","1163","v","mkasi","false","",""
"1353.8000001907349","","","","","5","html-slider-response","1164","","","","1",""
"4703","column","pundok,dila,ufagio,pala","ufagio","j","5","html-keyboard-response","1165","j","ufagio","true","",""
"2458.300000190735","","","","","5","html-slider-response","1166","","","","2",""
"2736","page","wakala,ishiri,wimbo,skina","wimbo","j","5","html-keyboard-response","1167","v","ishiri","false","",""
"2410.800000190735","","","","","5","html-slider-response","1168","","","","1",""
"4494","shoe","nyeusi,hatua,kama,uyoga","uyoga","n","5","html-keyboard-response","1169","f","nyeusi","false","",""
"1846.8000001907349","","","","","5","html-slider-response","1170","","","","1",""
"3720","clock","kartasi,abang,osha,mbwa","mbwa","n","5","html-keyboard-response","1171","n","mbwa","true","",""
"2034.3999996185303","","","","","5","html-slider-response","1172","","","","5",""
"3815","towel","tembo,pagpalit,funzi,pito","pagpalit","v","5","html-keyboard-response","1173","f","tembo","false","",""
"2058.4000005722046","","","","","5","html-slider-response","1174","","","","1",""
"4624","tomato","mvua,chupi,chupa,takatak","mvua","f","5","html-keyboard-response","1175","f","mvua","true","",""
"2510.5","","","","","5","html-slider-response","1176","","","","3",""
"1374","bucket","baga,ijayo,init,kiatu","kiatu","n","5","html-keyboard-response","1177","f","baga","false","",""
"1295","","","","","5","html-slider-response","1178","","","","1",""
"4878","finger","simu,sufuria,lima,moyo","moyo","n","5","html-keyboard-response","1179","n","moyo","true","",""
"1918.6999998092651","","","","","5","html-slider-response","1180","","","","5",""
"1440","mother","babaye,kahawa,mbuzi,jokofu","babaye","f","5","html-keyboard-response","1181","f","babaye","true","",""
"1291.8000001907349","","","","","5","html-slider-response","1182","","","","5",""
"3232","human","bado,tinapay,kikapu,punguza","tinapay","v","5","html-keyboard-response","1183","n","punguza","false","",""
"1066.4000005722046","","","","","5","html-slider-response","1184","","","","4",""
"2529","sun","bendi,luha,uongo,basi","basi","n","5","html-keyboard-response","1185","n","basi","true","",""
"1139.7000007629395","","","","","5","html-slider-response","1186","","","","5",""
"2313","fork","baboy,paghago,mgonjwa,gorisi","mgonjwa","j","5","html-keyboard-response","1187","j","mgonjwa","true","",""
"1187","","","","","5","html-slider-response","1188","","","","5",""
"2648","donkey","bloke,lalake,rombus,elfu","elfu","n","5","html-keyboard-response","1189","n","elfu","true","",""
"1659.6999998092651","","","","","5","html-slider-response","1190","","","","5",""
"2032","wolf","kaburi,lugha,ndizi,mchuzi","lugha","v","5","html-keyboard-response","1191","v","lugha","true","",""
"1211.7000007629395","","","","","5","html-slider-response","1192","","","","1",""
"1760","cigar","adhabu,ndugu,kuta,mlango","adhabu","f","5","html-keyboard-response","1193","f","adhabu","true","",""
"1354.3999996185303","","","","","5","html-slider-response","1194","","","","5",""
"2401","olive","bata,siagi,jiwe,welder","jiwe","j","5","html-keyboard-response","1195","j","jiwe","true","",""
"1483.4000005722046","","","","","5","html-slider-response","1196","","","","2",""
"1744","key","chombo,miaka,goma,ahos","chombo","f","5","html-keyboard-response","1197","n","ahos","false","",""
"1505.6999998092651","","","","","5","html-slider-response","1198","","","","1",""
"3944","door","surali,tena,soko,nyota","surali","f","5","html-keyboard-response","1199","v","tena","false","",""
"2025.7999992370605","","","","","5","html-slider-response","1200","","","","1",""
"2337","wheel","punda,tawo,baadaye,bafuni","bafuni","n","5","html-keyboard-response","1201","v","tawo","false","",""
"1307.4000005722046","","","","","5","html-slider-response","1202","","","","1",""
"2143","basket","kumbuka,utepe,hasira,kumba","kumba","n","5","html-keyboard-response","1203","n","kumba","true","",""
"1445.8999996185303","","","","","5","html-slider-response","1204","","","","1",""
"2887","elephant","petye,pagduol,suka,kito","kito","n","5","html-keyboard-response","1205","n","kito","true","",""
"1386.3000001907349","","","","","5","html-slider-response","1206","","","","4",""
"2159","office","hazini,yatima,leso,kuna","leso","j","5","html-keyboard-response","1207","j","leso","true","",""
"1279.1000003814697","","","","","5","html-slider-response","1208","","","","5",""
"3166","music","baiski,mraba,mageho,tumbo","baiski","f","5","html-keyboard-response","1209","f","baiski","true","",""
"1294.8000001907349","","","","","5","html-slider-response","1210","","","","4",""
"1952","tissue","lamigas,kisiwa,katika,ugomvi","ugomvi","n","5","html-keyboard-response","1211","v","kisiwa","false","",""
"1258.2000007629395","","","","","5","html-slider-response","1212","","","","1",""
"3313","curtain","lisud,bulwawan,mchanga,chubani","mchanga","j","5","html-keyboard-response","1213","n","chubani","false","",""
"1339.3000001907349","","","","","5","html-slider-response","1214","","","","1",""
"1680","flag","ndege,trekta,mkate,kawa","trekta","v","5","html-keyboard-response","1215","n","kawa","false","",""
"1610.7999992370605","","","","","5","html-slider-response","1216","","","","1",""
"2992","dog","lubi,bahari,washia,kalamu","bahari","v","5","html-keyboard-response","1217","j","washia","false","",""
"3098.3999996185303","","","","","5","html-slider-response","1218","","","","3",""
"2047","cup","dagat,matumai,shimoni,jeraha","matumai","v","5","html-keyboard-response","1219","n","jeraha","false","",""
"1227","","","","","5","html-slider-response","1220","","","","1",""
"1870","sheet","bililhon,juuya,watu,kamantis","bililhon","f","5","html-keyboard-response","1221","f","bililhon","true","",""
"1095","","","","","5","html-slider-response","1222","","","","2",""
"3500","spoon","betri,pagsulod,nzuri,ngazi","pagsulod","v","5","html-keyboard-response","1223","v","pagsulod","true","",""
"1105.1999998092651","","","","","5","html-slider-response","1224","","","","4",""
"4520","flower","tamasha,lobo,usiku,bega","bega","n","5","html-keyboard-response","1225","f","tamasha","false","",""
"1513","","","","","5","html-slider-response","1226","","","","3",""
"3120","picture","kubwa,silya,chaki,asin","kubwa","f","5","html-keyboard-response","1227","v","silya","false","",""
"2402.2000007629395","","","","","5","html-slider-response","1228","","","","1",""
"3928","puppet","napulo,lamok,godoro,mazishi","mazishi","n","5","html-keyboard-response","1229","n","mazishi","true","",""
"1201.2000007629395","","","","","5","html-slider-response","1230","","","","4",""
"1896","banana","kasamok,kazi,hagdan,twai","kazi","v","5","html-keyboard-response","1231","v","kazi","true","",""
"2394.699999809265","","","","","5","html-slider-response","1232","","","","2",""
"3969","book","mali,kuhesa,picha,mara","mali","f","5","html-keyboard-response","1233","j","picha","false","",""
"2226.5999994277954","","","","","5","html-slider-response","1234","","","","1",""
"2728","triangle","kihozi,kasadpan,bentaha,liog","kasadpan","v","5","html-keyboard-response","1235","v","kasadpan","true","",""
"2531.1000003814697","","","","","5","html-slider-response","1236","","","","4",""
"1944","poster","nchi,madungog,fedha,kasuko","madungog","v","5","html-keyboard-response","1237","v","madungog","true","",""
"1491.2999992370605","","","","","5","html-slider-response","1238","","","","1",""
"2312","box","adui,kuacha,rafiki,kitande","adui","f","5","html-keyboard-response","1239","j","rafiki","false","",""
"1139.3000001907349","","","","","5","html-slider-response","1240","","","","2",""
"2713","mosquito","isda,taras,martilyo,gutom","martilyo","j","5","html-keyboard-response","1241","j","martilyo","true","",""
"1025.2999992370605","","","","","5","html-slider-response","1242","","","","2",""
"1850","shelf","bungtod,kadaot,awit,pamahaw","pamahaw","n","5","html-keyboard-response","1243","n","pamahaw","true","",""
"1139.3000001907349","","","","","5","html-slider-response","1244","","","","5",""
"2999","scissors","duga,mtawa,tanuri,suga","tanuri","j","5","html-keyboard-response","1245","v","mtawa","false","",""
"1276","","","","","5","html-slider-response","1246","","","","1",""
"1884","hammer","mekno,kitovu,layag,napakyas","napakyas","n","5","html-keyboard-response","1247","v","kitovu","false","",""
"1243.3999996185303","","","","","5","html-slider-response","1248","","","","1",""
