"rt","en_word","options","swa_word","correct_answer","phase","trial_type","trial_index","input_answer","input_word","accuracy","certainty","amt_choices"
"6367","bonfire","mwezi,mfuko,goti,kusanya","goti","j","2","html-keyboard-response","106","n","kusanya","false","",""
"5046.79999999702","","","","","2","html-slider-response","107","","","","3",""
"4717","flower","bega,tamasha,lobo,usiku","bega","f","2","html-keyboard-response","108","f","bega","true","",""
"2686.89999999851","","","","","2","html-slider-response","109","","","","2",""
"5967","column","ufagio,pundok,dila,pala","ufagio","f","2","html-keyboard-response","110","f","ufagio","true","",""
"3783.60000000149","","","","","2","html-slider-response","111","","","","3",""
"13012","music","mraba,mageho,tumbo,baiski","baiski","n","2","html-keyboard-response","112","n","baiski","true","",""
"5187.5","","","","","2","html-slider-response","113","","","","3",""
"3441","spider","bunyag,mkboa,kamwe,atop","kamwe","j","2","html-keyboard-response","114","n","atop","false","",""
"2267","","","","","2","html-slider-response","115","","","","2",""
"5163","fork","baboy,mgonjwa,paghago,gorisi","mgonjwa","v","2","html-keyboard-response","116","j","paghago","false","",""
"1978","","","","","2","html-slider-response","117","","","","4",""
"4518","mosquito","isda,taras,martilyo,gutom","martilyo","j","2","html-keyboard-response","118","f","isda","false","",""
"2094.7999999970198","","","","","2","html-slider-response","119","","","","2",""
"5515","banana","kazi,kasamok,hagdan,twai","kazi","f","2","html-keyboard-response","120","j","hagdan","false","",""
"2098.7000000029802","","","","","2","html-slider-response","121","","","","2",""
"4279","cup","matumai,dagat,shimoni,jeraha","matumai","f","2","html-keyboard-response","122","v","dagat","false","",""
"4086.39999999851","","","","","2","html-slider-response","123","","","","3",""
"4399","shop","nopya,kerida,samaki,ndezu","samaki","j","2","html-keyboard-response","124","j","samaki","true","",""
"2917.2000000029802","","","","","2","html-slider-response","125","","","","2",""
"7849","elephant","petye,kito,pagduol,suka","kito","v","2","html-keyboard-response","126","j","pagduol","false","",""
"3786.7000000029802","","","","","2","html-slider-response","127","","","","3",""
"5774","bucket","baga,kiatu,ijayo,init","kiatu","v","2","html-keyboard-response","128","v","kiatu","true","",""
"3476.2000000029802","","","","","2","html-slider-response","129","","","","3",""
"2634","book","mali,kuhesa,picha,mara","mali","f","2","html-keyboard-response","130","f","mali","true","",""
"2574.5","","","","","2","html-slider-response","131","","","","5",""
"6082","mirror","sulagma,rangi,kanding,furaha","sulagma","f","2","html-keyboard-response","132","f","sulagma","true","",""
"2446.39999999851","","","","","2","html-slider-response","133","","","","4",""
"1961","office","hazini,yatima,kuna,leso","leso","n","2","html-keyboard-response","134","n","leso","true","",""
"2465.2999999970198","","","","","2","html-slider-response","135","","","","5",""
"4301","body","nyundu,jibini,kununa,tindashan","tindashan","n","2","html-keyboard-response","136","f","nyundu","false","",""
"3022.3000000044703","","","","","2","html-slider-response","137","","","","4",""
"5131","perfume","katuyoan,bino,sungura,ndogo","katuyoan","f","2","html-keyboard-response","138","f","katuyoan","true","",""
"2117.89999999851","","","","","2","html-slider-response","139","","","","2",""
"2029","olive","bata,siagi,jiwe,welder","jiwe","j","2","html-keyboard-response","140","j","jiwe","true","",""
"2417","","","","","2","html-slider-response","141","","","","5",""
"3782","magazine","gundi,mchawi,kiti,bahandi","kiti","j","2","html-keyboard-response","142","j","kiti","true","",""
"4141.5999999940395","","","","","2","html-slider-response","143","","","","2",""
"2531","bread","kaili,dizeli,bugas,dari","dari","n","2","html-keyboard-response","144","n","dari","true","",""
"2619.6999999955297","","","","","2","html-slider-response","145","","","","4",""
"3094","cave","ganti,maisha,kesho,nyundo","kesho","j","2","html-keyboard-response","146","j","kesho","true","",""
"2235.2999999970198","","","","","2","html-slider-response","147","","","","4",""
"5711","ladder","pangalan,mashua,mwanga,kamba","pangalan","f","2","html-keyboard-response","148","f","pangalan","true","",""
"2142.2999999970198","","","","","2","html-slider-response","149","","","","2",""
"2504","human","bado,kikapu,tinapay,punguza","tinapay","j","2","html-keyboard-response","150","j","tinapay","true","",""
"2147.5999999940395","","","","","2","html-slider-response","151","","","","2",""
"4278","clock","kartasi,mbwa,abang,osha","mbwa","v","2","html-keyboard-response","152","v","mbwa","true","",""
"2368.7000000029802","","","","","2","html-slider-response","153","","","","2",""
"6559","shelf","bungtod,pamahaw,kadaot,awit","pamahaw","v","2","html-keyboard-response","154","v","pamahaw","true","",""
"2946.8000000044703","","","","","2","html-slider-response","155","","","","3",""
"2774","salmon","mzungu,sensilyo,seri,baharia","sensilyo","v","2","html-keyboard-response","156","j","seri","false","",""
"2477.6999999955297","","","","","2","html-slider-response","157","","","","2",""
"3132","coffin","barua,kioo,tubag,hulma","kioo","v","2","html-keyboard-response","158","n","hulma","false","",""
"2645.0999999940395","","","","","2","html-slider-response","159","","","","2",""
"4608","notebook","msitu,kila,mdudu,kemia","kemia","n","2","html-keyboard-response","160","v","kila","false","",""
"2140.2000000029802","","","","","2","html-slider-response","161","","","","2",""
"3265","shoulder","mkuu,kelele,ndaniya,guruwe","mkuu","f","2","html-keyboard-response","162","v","kelele","false","",""
"1966.7000000029802","","","","","2","html-slider-response","163","","","","2",""
"2295","park","tambok,bunifu,pwani,ihalas","bunifu","v","2","html-keyboard-response","164","j","pwani","false","",""
"1934.8999999985099","","","","","2","html-slider-response","165","","","","2",""
"3718","number","shule,kengele,choori,mundamo","mundamo","n","2","html-keyboard-response","166","n","mundamo","true","",""
"3266.7999999970198","","","","","2","html-slider-response","167","","","","3",""
"2864","apple","ukame,estante,kisu,edad","kisu","j","2","html-keyboard-response","168","j","kisu","true","",""
"2239.5","","","","","2","html-slider-response","169","","","","5",""
"3705","letter","filimbi,chuma,uhuru,kifua","kifua","n","2","html-keyboard-response","170","v","chuma","false","",""
"1954.6000000014901","","","","","2","html-slider-response","171","","","","2",""
"6650","eel","ishara,msumari,kunywa,kabuang","msumari","v","2","html-keyboard-response","172","n","kabuang","false","",""
"2375","","","","","2","html-slider-response","173","","","","2",""
"4562","cop","mechezo,bustani,jikoni,bakus","mechezo","f","2","html-keyboard-response","174","f","mechezo","true","",""
"2656.60000000149","","","","","2","html-slider-response","175","","","","2",""
"3760","wolf","kaburi,lugha,ndizi,mchuzi","lugha","v","2","html-keyboard-response","176","v","lugha","true","",""
"3772.60000000149","","","","","2","html-slider-response","177","","","","3",""
"2722","squirrel","hofu,mahugaw,ukweli,kichwa","hofu","f","2","html-keyboard-response","178","v","mahugaw","false","",""
"1941.3999999985099","","","","","2","html-slider-response","179","","","","2",""
"2555","nose","gubat,kopa,kidole,sehemu","sehemu","n","2","html-keyboard-response","180","v","kopa","false","",""
"2772","","","","","2","html-slider-response","181","","","","2",""
"2977","sock","mamba,ndoora,kimysa,mtirka","mamba","f","2","html-keyboard-response","182","n","mtirka","false","",""
"1868.2000000029802","","","","","2","html-slider-response","183","","","","2",""
"3092","bank","kudhibi,tualya,ofisi,silingan","silingan","n","2","html-keyboard-response","184","j","ofisi","false","",""
"2520.7999999970198","","","","","2","html-slider-response","185","","","","2",""
"3163","donkey","bloke,lalake,elfu,rombus","elfu","j","2","html-keyboard-response","186","j","elfu","true","",""
"1973.2000000029802","","","","","2","html-slider-response","187","","","","5",""
"3598","poster","nchi,fedha,kasuko,madungog","madungog","n","2","html-keyboard-response","188","v","fedha","false","",""
"2041.1000000014901","","","","","2","html-slider-response","189","","","","2",""
"6908","puppet","mazishi,napulo,lamok,godoro","mazishi","f","2","html-keyboard-response","190","j","lamok","false","",""
"1918.2999999970198","","","","","2","html-slider-response","191","","","","2",""
"3087","hill","kushoto,kukimba,sweta,matumbo","matumbo","n","2","html-keyboard-response","192","n","matumbo","true","",""
"2154.6999999955297","","","","","2","html-slider-response","193","","","","2",""
"4686","tooth","kijiko,kabalaka,uadui,pahiyum","kabalaka","v","2","html-keyboard-response","194","v","kabalaka","true","",""
"2435","","","","","2","html-slider-response","195","","","","1",""
"4459","woman","bandari,pagtabon,bituin,kovuli","pagtabon","v","2","html-keyboard-response","196","v","pagtabon","true","",""
"2186.1999999955297","","","","","2","html-slider-response","197","","","","2",""
"3149","wheel","punda,tawo,bafuni,baadaye","bafuni","j","2","html-keyboard-response","198","f","punda","false","",""
"2064.8000000044703","","","","","2","html-slider-response","199","","","","2",""
"4770","mother","babaye,kahawa,mbuzi,jokofu","babaye","f","2","html-keyboard-response","200","f","babaye","true","",""
"2581.1999999955297","","","","","2","html-slider-response","201","","","","2",""
"3640","bed","kalipay,haraka,starehe,mapintas","mapintas","n","2","html-keyboard-response","202","n","mapintas","true","",""
"2176.89999999851","","","","","2","html-slider-response","203","","","","2",""
"3163","key","miaka,goma,ahos,chombo","chombo","n","2","html-keyboard-response","204","n","chombo","true","",""
"2380.2000000029802","","","","","2","html-slider-response","205","","","","2",""
"3866","page","wakala,wimbo,ishiri,skina","wimbo","v","2","html-keyboard-response","206","v","wimbo","true","",""
"3182.1999999955297","","","","","2","html-slider-response","207","","","","3",""
"3624","pants","pintal,chuki,haki,hari","haki","j","2","html-keyboard-response","208","f","pintal","false","",""
"2488.89999999851","","","","","2","html-slider-response","209","","","","1",""
"4565","sun","bendi,luha,uongo,basi","basi","n","2","html-keyboard-response","210","f","bendi","false","",""
"2070","","","","","2","html-slider-response","211","","","","1",""
"3867","finger","simu,moyo,sufuria,lima","moyo","v","2","html-keyboard-response","212","n","lima","false","",""
"1856.7999999970198","","","","","2","html-slider-response","213","","","","2",""
"3024","shoe","nyeusi,hatua,uyoga,kama","uyoga","j","2","html-keyboard-response","214","f","nyeusi","false","",""
"3074.7999999970198","","","","","2","html-slider-response","215","","","","1",""
"5130","giraffe","mahitabo,daraja,jumatu,hangyo","mahitabo","f","2","html-keyboard-response","216","f","mahitabo","true","",""
"2738.89999999851","","","","","2","html-slider-response","217","","","","1",""
"3376","dog","bahari,lubi,washia,kalamu","bahari","f","2","html-keyboard-response","218","n","kalamu","false","",""
"2750","","","","","2","html-slider-response","219","","","","1",""
"4563","box","adui,kuacha,rafiki,kitande","adui","f","2","html-keyboard-response","220","j","rafiki","false","",""
"2048.2000000029802","","","","","2","html-slider-response","221","","","","2",""
"3979","scissors","duga,mtawa,tanuri,suga","tanuri","j","2","html-keyboard-response","222","v","mtawa","false","",""
"1901.5","","","","","2","html-slider-response","223","","","","1",""
"4745","cat","paghukom,neyemba,baki,akili","paghukom","f","2","html-keyboard-response","224","n","akili","false","",""
"2673.3000000044703","","","","","2","html-slider-response","225","","","","2",""
"4106","basket","kumbuka,kumba,utepe,hasira","kumba","v","2","html-keyboard-response","226","n","hasira","false","",""
"2280.3000000044703","","","","","2","html-slider-response","227","","","","1",""
"2999","snake","jansa,karon,mvringo,pagtukod","pagtukod","n","2","html-keyboard-response","228","v","karon","false","",""
"3571","","","","","2","html-slider-response","229","","","","1",""
"2809","gift","baba,nyange,pagtawag,baso","pagtawag","j","2","html-keyboard-response","230","j","pagtawag","true","",""
"2600.9000000059605","","","","","2","html-slider-response","231","","","","5",""
"3231","train","itik,dakika,sayari,mungu","sayari","j","2","html-keyboard-response","232","j","sayari","true","",""
"2881.60000000149","","","","","2","html-slider-response","233","","","","2",""
"4748","pudding","abug,aibu,mpishi,iring","aibu","v","2","html-keyboard-response","234","n","iring","false","",""
"3664.89999999851","","","","","2","html-slider-response","235","","","","3",""
"6398","tomato","mvua,chupi,chupa,takatak","mvua","f","2","html-keyboard-response","236","f","mvua","true","",""
"3112.5999999940395","","","","","2","html-slider-response","237","","","","3",""
"12252","stone","ulimwengu,wingi,mkasi,asili","wingi","v","2","html-keyboard-response","238","f","ulimwengu","false","",""
"2990.7000000029802","","","","","2","html-slider-response","239","","","","2",""
"4188","hammer","mekno,napakyas,kitovu,layag","napakyas","v","2","html-keyboard-response","240","j","kitovu","false","",""
"3257.5","","","","","2","html-slider-response","241","","","","2",""
"3915","knee","mvuke,kubale,bili,duka","duka","n","2","html-keyboard-response","242","n","duka","true","",""
"2650.60000000149","","","","","2","html-slider-response","243","","","","4",""
"4927","ceiling","maua,kugita,kawaida,rayna","maua","f","2","html-keyboard-response","244","f","maua","true","",""
"2148.6999999955297","","","","","2","html-slider-response","245","","","","4",""
"3328","spoon","betri,nzuri,pagsulod,ngazi","pagsulod","j","2","html-keyboard-response","246","j","pagsulod","true","",""
"2408.5","","","","","2","html-slider-response","247","","","","5",""
"1971","marker","mapafu,salita,maji,atay","maji","j","2","html-keyboard-response","248","j","maji","true","",""
"2445.5999999940395","","","","","2","html-slider-response","249","","","","5",""
"2740","candle","gabi,geza,farasi,kupanda","geza","v","2","html-keyboard-response","250","n","kupanda","false","",""
"2715.2000000029802","","","","","2","html-slider-response","251","","","","4",""
"2500","tissue","lamigas,kisiwa,ugomvi,katika","ugomvi","j","2","html-keyboard-response","252","v","kisiwa","false","",""
"1985.7999999970198","","","","","2","html-slider-response","253","","","","2",""
"3412","bridge","daima,ngono,sahani,panya","sahani","j","2","html-keyboard-response","254","f","daima","false","",""
"2260.5","","","","","2","html-slider-response","255","","","","2",""
"2134","berry","kofia,abogado,nogozi,kinywa","kofia","f","2","html-keyboard-response","256","j","nogozi","false","",""
"2366","","","","","2","html-slider-response","257","","","","2",""
"3251","triangle","kasadpan,kihozi,bentaha,liog","kasadpan","f","2","html-keyboard-response","258","j","bentaha","false","",""
"2009.7999999970198","","","","","2","html-slider-response","259","","","","2",""
"3270","door","tena,surali,soko,nyota","surali","v","2","html-keyboard-response","260","v","surali","true","",""
"2422.7000000029802","","","","","2","html-slider-response","261","","","","1",""
"3894","fish","bala,baho,buli,imani","buli","j","2","html-keyboard-response","262","j","buli","true","",""
"2495.2999999970198","","","","","2","html-slider-response","263","","","","1",""
"7568","curtain","lisud,bulwawan,chubani,mchanga","mchanga","n","2","html-keyboard-response","264","v","bulwawan","false","",""
"2285.9000000059605","","","","","2","html-slider-response","265","","","","1",""
"2753","flag","trekta,ndege,mkate,kawa","trekta","f","2","html-keyboard-response","266","n","kawa","false","",""
"2298.6999999955297","","","","","2","html-slider-response","267","","","","1",""
"3675","boat","hamsi,pombe,agalon,kitanda","agalon","j","2","html-keyboard-response","268","n","kitanda","false","",""
"2344.6999999955297","","","","","2","html-slider-response","269","","","","1",""
"5050","rose","singizi,paghalad,mwanake,amani","paghalad","v","2","html-keyboard-response","270","n","amani","false","",""
"2161.6999999955297","","","","","2","html-slider-response","271","","","","2",""
"2804","lamp","daub,bilaska,afya,mbolea","afya","j","2","html-keyboard-response","272","v","bilaska","false","",""
"2188.2000000029802","","","","","2","html-slider-response","273","","","","2",""
"2896","cigar","ndugu,kuta,adhabu,mlango","adhabu","j","2","html-keyboard-response","274","j","adhabu","true","",""
"2118.7000000029802","","","","","2","html-slider-response","275","","","","1",""
"3415","list","alizeti,wingu,kuzama,kaso","wingu","v","2","html-keyboard-response","276","v","wingu","true","",""
"2032","","","","","2","html-slider-response","277","","","","2",""
"3471","sheet","bililhon,juuya,watu,kamantis","bililhon","f","2","html-keyboard-response","278","n","kamantis","false","",""
"2050.60000000149","","","","","2","html-slider-response","279","","","","2",""
"2755","picture","silya,kubwa,chaki,asin","kubwa","v","2","html-keyboard-response","280","n","asin","false","",""
"1924.7000000029802","","","","","2","html-slider-response","281","","","","2",""
"4270","towel","tembo,pagpalit,funzi,pito","pagpalit","v","2","html-keyboard-response","282","f","tembo","false","",""
"2502.89999999851","","","","","2","html-slider-response","283","","","","2",""
"2448","window","nanga,kweli,kujenga,umaga","kweli","v","2","html-keyboard-response","284","j","kujenga","false","",""
"3203.5","","","","","2","html-slider-response","285","","","","1",""
"7188","box","kuacha,adui,rafiki,kitande","adui","v","3","html-keyboard-response","293","v","adui","true","","4"
"6156.80000000447","","","","","3","html-slider-response","294","","","","1",""
"13819","","","","","3","html-keyboard-response","295","","","","",""
"3685","pants","pintal,chuki,hari,haki","haki","n","3","html-keyboard-response","296","f","pintal","false","","4"
"2651","","","","","3","html-slider-response","297","","","","2",""
"17002","","","","","3","html-keyboard-response","298","","","","",""
"3576","cup","matumai,dagat,shimoni,jeraha","matumai","f","3","html-keyboard-response","299","v","dagat","false","","4"
"2532.5999999940395","","","","","3","html-slider-response","300","","","","1",""
"36399","","","","","3","html-keyboard-response","301","","","","",""
"5130","triangle","kasadpan,kihozi,bentaha,liog","kasadpan","f","3","html-keyboard-response","302","f","kasadpan","true","","4"
"3489","","","","","3","html-slider-response","303","","","","1",""
"8864","","","","","3","html-keyboard-response","304","","","","",""
"6572","curtain","lisud,mchanga,bulwawan,chubani","mchanga","v","3","html-keyboard-response","305","v","mchanga","true","","4"
"3381.7000000029802","","","","","3","html-slider-response","306","","","","1",""
"10545","","","","","3","html-keyboard-response","307","","","","",""
"6328","clock","kartasi,abang,mbwa,osha","mbwa","j","3","html-keyboard-response","308","v","abang","false","","4"
"3532.2999999970198","","","","","3","html-slider-response","309","","","","1",""
"12864","","","","","3","html-keyboard-response","310","","","","",""
"5098","mirror","rangi,sulagma,kanding,furaha","sulagma","v","3","html-keyboard-response","311","v","sulagma","true","","4"
"2482.10000000149","","","","","3","html-slider-response","312","","","","1",""
"11230","","","","","3","html-keyboard-response","313","","","","",""
"3286","coffin","kioo,barua,tubag,hulma","kioo","f","3","html-keyboard-response","314","f","kioo","true","","1"
"4169.5","","","","","3","html-slider-response","315","","","","5",""
"11684","","","","","3","html-keyboard-response","316","","","","",""
"4399","magazine","gundi,kiti,mchawi,bahandi","kiti","v","3","html-keyboard-response","317","v","kiti","true","","4"
"5420.39999999851","","","","","3","html-slider-response","318","","","","3",""
"17945","","","","","3","html-keyboard-response","319","","","","",""
"2002","column","pundok,ufagio,dila,pala","ufagio","v","3","html-keyboard-response","320","v","ufagio","true","","1"
"2466.6999999955297","","","","","3","html-slider-response","321","","","","5",""
"6605","","","","","3","html-keyboard-response","322","","","","",""
"3118","number","shule,mundamo,kengele,choori","mundamo","v","3","html-keyboard-response","323","n","choori","false","","4"
"2089.2999999970198","","","","","3","html-slider-response","324","","","","2",""
"12564","","","","","3","html-keyboard-response","325","","","","",""
"6301","rose","singizi,paghalad,mwanake,amani","paghalad","v","3","html-keyboard-response","326","n","amani","false","","4"
"3243.7000000029802","","","","","3","html-slider-response","327","","","","2",""
"8298","","","","","3","html-keyboard-response","328","","","","",""
"4151","eel","ishara,kunywa,msumari,kabuang","msumari","j","3","html-keyboard-response","329","j","msumari","true","","4"
"2922.6999999955297","","","","","3","html-slider-response","330","","","","2",""
"4983","","","","","3","html-keyboard-response","331","","","","",""
"4236","gift","baba,nyange,pagtawag,baso","pagtawag","j","3","html-keyboard-response","332","j","pagtawag","true","","4"
"3251","","","","","3","html-slider-response","333","","","","5",""
"2560","","","","","3","html-keyboard-response","334","","","","",""
"2291","apple","kisu,ukame,estante,edad","kisu","f","3","html-keyboard-response","335","f","kisu","true","","1"
"2714.6999999955297","","","","","3","html-slider-response","336","","","","5",""
"1538","","","","","3","html-keyboard-response","337","","","","",""
"3637","wheel","punda,tawo,bafuni,baadaye","bafuni","j","3","html-keyboard-response","338","j","bafuni","true","","1"
"3492.8000000044703","","","","","3","html-slider-response","339","","","","5",""
"4018","","","","","3","html-keyboard-response","340","","","","",""
"2044","knee","duka,mvuke,kubale,bili","duka","f","3","html-keyboard-response","341","f","duka","true","","4"
"2494.60000000149","","","","","3","html-slider-response","342","","","","5",""
"1343","","","","","3","html-keyboard-response","343","","","","",""
"1996","basket","kumba,kumbuka,utepe,hasira","kumba","f","3","html-keyboard-response","344","f","kumba","true","","1"
"2835.4000000059605","","","","","3","html-slider-response","345","","","","5",""
"1641","","","","","3","html-keyboard-response","346","","","","",""
"3146","park","tambok,pwani,bunifu,ihalas","bunifu","j","3","html-keyboard-response","347","v","pwani","false","","4"
"2844.89999999851","","","","","3","html-slider-response","348","","","","2",""
"9496","","","","","3","html-keyboard-response","349","","","","",""
"2697","finger","simu,moyo,sufuria,lima","moyo","v","3","html-keyboard-response","350","n","lima","false","","4"
"2491","","","","","3","html-slider-response","351","","","","2",""
"7253","","","","","3","html-keyboard-response","352","","","","",""
"5484","boat","agalon,hamsi,pombe,kitanda","agalon","f","3","html-keyboard-response","353","v","hamsi","false","","4"
"2299.10000000149","","","","","3","html-slider-response","354","","","","2",""
"5716","","","","","3","html-keyboard-response","355","","","","",""
"4303","hill","matumbo,kushoto,kukimba,sweta","matumbo","f","3","html-keyboard-response","356","f","matumbo","true","","4"
"2399.2999999970198","","","","","3","html-slider-response","357","","","","2",""
"6411","","","","","3","html-keyboard-response","358","","","","",""
"5449","train","sayari,itik,dakika,mungu","sayari","f","3","html-keyboard-response","359","j","dakika","false","","4"
"2458.6999999955297","","","","","3","html-slider-response","360","","","","2",""
"5736","","","","","3","html-keyboard-response","361","","","","",""
"4980","wolf","kaburi,ndizi,mchuzi,lugha","lugha","n","3","html-keyboard-response","362","n","lugha","true","","4"
"2329.8000000044703","","","","","3","html-slider-response","363","","","","5",""
"3385","","","","","3","html-keyboard-response","364","","","","",""
"4036","snake","jansa,karon,mvringo,pagtukod","pagtukod","n","3","html-keyboard-response","365","v","karon","false","","4"
"2530.7999999970198","","","","","3","html-slider-response","366","","","","2",""
"7657","","","","","3","html-keyboard-response","367","","","","",""
"5172","tooth","kijiko,uadui,kabalaka,pahiyum","kabalaka","j","3","html-keyboard-response","368","f","kijiko","false","","4"
"3035.5","","","","","3","html-slider-response","369","","","","2",""
"7498","","","","","3","html-keyboard-response","370","","","","",""
"5467","notebook","kemia,msitu,kila,mdudu","kemia","f","3","html-keyboard-response","371","n","mdudu","false","","4"
"2704.8000000044703","","","","","3","html-slider-response","372","","","","2",""
"7344","","","","","3","html-keyboard-response","373","","","","",""
"3261","flag","trekta,ndege,mkate,kawa","trekta","f","3","html-keyboard-response","374","f","trekta","true","","4"
"1847.7000000029802","","","","","3","html-slider-response","375","","","","2",""
"5474","","","","","3","html-keyboard-response","376","","","","",""
"4212","squirrel","hofu,mahugaw,ukweli,kichwa","hofu","f","3","html-keyboard-response","377","n","kichwa","false","","4"
"2432.10000000149","","","","","3","html-slider-response","378","","","","2",""
"5000","","","","","3","html-keyboard-response","379","","","","",""
"4272","door","surali,tena,soko,nyota","surali","f","3","html-keyboard-response","380","f","surali","true","","4"
"2178.10000000149","","","","","3","html-slider-response","381","","","","2",""
"3661","","","","","3","html-keyboard-response","382","","","","",""
"4535","salmon","sensilyo,mzungu,seri,baharia","sensilyo","f","3","html-keyboard-response","383","n","baharia","false","","4"
"2379.7000000029802","","","","","3","html-slider-response","384","","","","2",""
"7479","","","","","3","html-keyboard-response","385","","","","",""
"4851","shoulder","kelele,ndaniya,mkuu,guruwe","mkuu","j","3","html-keyboard-response","386","j","mkuu","true","","4"
"2951.39999999851","","","","","3","html-slider-response","387","","","","2",""
"3020","","","","","3","html-keyboard-response","388","","","","",""
"3190","lamp","daub,bilaska,mbolea,afya","afya","n","3","html-keyboard-response","389","n","afya","true","","4"
"1966.8000000044703","","","","","3","html-slider-response","390","","","","2",""
"6210","","","","","3","html-keyboard-response","391","","","","",""
"3507","shelf","bungtod,kadaot,awit,pamahaw","pamahaw","n","3","html-keyboard-response","392","n","pamahaw","true","","1"
"2385.7000000029802","","","","","3","html-slider-response","393","","","","5",""
"2864","","","","","3","html-keyboard-response","394","","","","",""
"3318","human","bado,tinapay,kikapu,punguza","tinapay","v","3","html-keyboard-response","395","v","tinapay","true","","4"
"2559.7000000029802","","","","","3","html-slider-response","396","","","","2",""
"3274","","","","","3","html-keyboard-response","397","","","","",""
"4408","towel","tembo,funzi,pito,pagpalit","pagpalit","n","3","html-keyboard-response","398","f","tembo","false","","4"
"2447.2999999970198","","","","","3","html-slider-response","399","","","","2",""
"7801","","","","","3","html-keyboard-response","400","","","","",""
"2420","cat","neyemba,paghukom,baki,akili","paghukom","v","3","html-keyboard-response","401","n","akili","false","","4"
"2330.7999999970198","","","","","3","html-slider-response","402","","","","2",""
"8388","","","","","3","html-keyboard-response","403","","","","",""
"5804","spider","bunyag,kamwe,mkboa,atop","kamwe","v","3","html-keyboard-response","404","v","kamwe","true","","4"
"2203.5","","","","","3","html-slider-response","405","","","","2",""
"3997","","","","","3","html-keyboard-response","406","","","","",""
"8585","window","kweli,nanga,kujenga,umaga","kweli","f","3","html-keyboard-response","407","j","kujenga","false","","4"
"2658","","","","","3","html-slider-response","408","","","","2",""
"4959","","","","","3","html-keyboard-response","409","","","","",""
"5583","woman","pagtabon,bandari,bituin,kovuli","pagtabon","f","3","html-keyboard-response","410","f","pagtabon","true","","1"
"2798.5999999940395","","","","","3","html-slider-response","411","","","","5",""
"4546","","","","","3","html-keyboard-response","412","","","","",""
"5927","giraffe","mahitabo,daraja,jumatu,hangyo","mahitabo","f","3","html-keyboard-response","413","n","hangyo","false","","4"
"3104.2000000029802","","","","","3","html-slider-response","414","","","","2",""
"7434","","","","","3","html-keyboard-response","415","","","","",""
"3905","elephant","petye,pagduol,kito,suka","kito","j","3","html-keyboard-response","416","v","pagduol","false","","4"
"2785.7000000029802","","","","","3","html-slider-response","417","","","","4",""
"8637","","","","","3","html-keyboard-response","418","","","","",""
"5417","cave","ganti,maisha,nyundo,kesho","kesho","n","3","html-keyboard-response","419","j","nyundo","false","","4"
"2133.5999999940395","","","","","3","html-slider-response","420","","","","2",""
"4791","","","","","3","html-keyboard-response","421","","","","",""
"3533","bread","kaili,dizeli,dari,bugas","dari","j","3","html-keyboard-response","422","j","dari","true","","4"
"2528","","","","","3","html-slider-response","423","","","","5",""
"1701","","","","","3","html-keyboard-response","424","","","","",""
"3477","stone","ulimwengu,mkasi,wingi,asili","wingi","j","3","html-keyboard-response","425","n","asili","false","","4"
"2688.5","","","","","3","html-slider-response","426","","","","4",""
"7561","","","","","3","html-keyboard-response","427","","","","",""
"2895","donkey","bloke,lalake,rombus,elfu","elfu","n","3","html-keyboard-response","428","n","elfu","true","","4"
"2249","","","","","3","html-slider-response","429","","","","5",""
"1426","","","","","3","html-keyboard-response","430","","","","",""
"2703","bridge","daima,ngono,sahani,panya","sahani","j","3","html-keyboard-response","431","f","daima","false","","4"
"2133.7999999970198","","","","","3","html-slider-response","432","","","","2",""
"5322","","","","","3","html-keyboard-response","433","","","","",""
"3399","bonfire","mwezi,mfuko,kusanya,goti","goti","n","3","html-keyboard-response","434","n","goti","true","","4"
"2314.1999999955297","","","","","3","html-slider-response","435","","","","5",""
"1301","","","","","3","html-keyboard-response","436","","","","",""
"1984","book","kuhesa,picha,mali,mara","mali","j","3","html-keyboard-response","437","j","mali","true","","4"
"2657.10000000149","","","","","3","html-slider-response","438","","","","5",""
"1187","","","","","3","html-keyboard-response","439","","","","",""
"5534","fish","bala,baho,imani,buli","buli","n","3","html-keyboard-response","440","v","baho","false","","4"
"1978.8999999985099","","","","","3","html-slider-response","441","","","","2",""
"3276","","","","","3","html-keyboard-response","442","","","","",""
"3814","spoon","pagsulod,betri,nzuri,ngazi","pagsulod","f","3","html-keyboard-response","443","f","pagsulod","true","","4"
"2524.7999999970198","","","","","3","html-slider-response","444","","","","5",""
"3636","","","","","3","html-keyboard-response","445","","","","",""
"4387","scissors","tanuri,duga,mtawa,suga","tanuri","f","3","html-keyboard-response","446","f","tanuri","true","","4"
"2601.4000000059605","","","","","3","html-slider-response","447","","","","2",""
"4250","","","","","3","html-keyboard-response","448","","","","",""
"4615","page","wakala,ishiri,wimbo,skina","wimbo","j","3","html-keyboard-response","449","j","wimbo","true","","4"
"2341","","","","","3","html-slider-response","450","","","","2",""
"4377","","","","","3","html-keyboard-response","451","","","","",""
"3704","nose","gubat,kopa,sehemu,kidole","sehemu","j","3","html-keyboard-response","452","j","sehemu","true","","1"
"2790.2999999970198","","","","","3","html-slider-response","453","","","","5",""
"2633","","","","","3","html-keyboard-response","454","","","","",""
"3984","ceiling","maua,kugita,kawaida,rayna","maua","f","3","html-keyboard-response","455","v","kugita","false","","4"
"2012.8000000044703","","","","","3","html-slider-response","456","","","","2",""
"3628","","","","","3","html-keyboard-response","457","","","","",""
"4874","bucket","baga,ijayo,init,kiatu","kiatu","n","3","html-keyboard-response","458","n","kiatu","true","","4"
"2689.10000000149","","","","","3","html-slider-response","459","","","","2",""
"3539","","","","","3","html-keyboard-response","460","","","","",""
"3728","berry","kofia,abogado,nogozi,kinywa","kofia","f","3","html-keyboard-response","461","f","kofia","true","","1"
"2748.5","","","","","3","html-slider-response","462","","","","5",""
"1412","","","","","3","html-keyboard-response","463","","","","",""
"3746","mother","kahawa,mbuzi,babaye,jokofu","babaye","j","3","html-keyboard-response","464","j","babaye","true","","1"
"3042.2999999970198","","","","","3","html-slider-response","465","","","","5",""
"1466","","","","","3","html-keyboard-response","466","","","","",""
"5083","mosquito","isda,taras,gutom,martilyo","martilyo","n","3","html-keyboard-response","467","f","isda","false","","4"
"2159.5","","","","","3","html-slider-response","468","","","","2",""
"7935","","","","","3","html-keyboard-response","469","","","","",""
"4547","perfume","bino,katuyoan,sungura,ndogo","katuyoan","v","3","html-keyboard-response","470","v","katuyoan","true","","4"
"2850.8000000044703","","","","","3","html-slider-response","471","","","","2",""
"2603","","","","","3","html-keyboard-response","472","","","","",""
"2787","sheet","bililhon,juuya,watu,kamantis","bililhon","f","3","html-keyboard-response","473","j","watu","false","","4"
"1996.6999999955297","","","","","3","html-slider-response","474","","","","2",""
"5918","","","","","3","html-keyboard-response","475","","","","",""
"4926","puppet","mazishi,napulo,lamok,godoro","mazishi","f","3","html-keyboard-response","476","f","mazishi","true","","1"
"2775.4000000059605","","","","","3","html-slider-response","477","","","","5",""
"1812","","","","","3","html-keyboard-response","478","","","","",""
"2275","poster","nchi,fedha,madungog,kasuko","madungog","j","3","html-keyboard-response","479","j","madungog","true","","4"
"2165.7999999970198","","","","","3","html-slider-response","480","","","","2",""
"5584","","","","","3","html-keyboard-response","481","","","","",""
"4412","music","mraba,baiski,mageho,tumbo","baiski","v","3","html-keyboard-response","482","v","baiski","true","","4"
"2452.89999999851","","","","","3","html-slider-response","483","","","","2",""
"3437","","","","","3","html-keyboard-response","484","","","","",""
"4100","key","miaka,chombo,goma,ahos","chombo","v","3","html-keyboard-response","485","v","chombo","true","","4"
"1993.3999999985099","","","","","3","html-slider-response","486","","","","2",""
"5599","","","","","3","html-keyboard-response","487","","","","",""
"4143","sock","mamba,ndoora,kimysa,mtirka","mamba","f","3","html-keyboard-response","488","v","ndoora","false","","4"
"2098.2000000029802","","","","","3","html-slider-response","489","","","","2",""
"5028","","","","","3","html-keyboard-response","490","","","","",""
"2142","marker","maji,mapafu,salita,atay","maji","f","3","html-keyboard-response","491","f","maji","true","","4"
"2278.5","","","","","3","html-slider-response","492","","","","5",""
"1269","","","","","3","html-keyboard-response","493","","","","",""
"1749","office","hazini,leso,yatima,kuna","leso","v","3","html-keyboard-response","494","v","leso","true","","4"
"2025.2999999970198","","","","","3","html-slider-response","495","","","","5",""
"996","","","","","3","html-keyboard-response","496","","","","",""
"4211","shoe","nyeusi,hatua,kama,uyoga","uyoga","n","3","html-keyboard-response","497","j","kama","false","","4"
"2923.8000000044703","","","","","3","html-slider-response","498","","","","2",""
"3839","","","","","3","html-keyboard-response","499","","","","",""
"3008","cop","bustani,jikoni,mechezo,bakus","mechezo","j","3","html-keyboard-response","500","f","bustani","false","","4"
"2903","","","","","3","html-slider-response","501","","","","2",""
"6307","","","","","3","html-keyboard-response","502","","","","",""
"17502","bank","kudhibi,tualya,silingan,ofisi","silingan","j","3","html-keyboard-response","503","v","tualya","false","","4"
"3441.6999999955297","","","","","3","html-slider-response","504","","","","1",""
"5340","","","","","3","html-keyboard-response","505","","","","",""
"3478","letter","filimbi,chuma,kifua,uhuru","kifua","j","3","html-keyboard-response","506","j","kifua","true","","1"
"3444.2999999970198","","","","","3","html-slider-response","507","","","","5",""
"1552","","","","","3","html-keyboard-response","508","","","","",""
"2834","dog","lubi,washia,bahari,kalamu","bahari","j","3","html-keyboard-response","509","j","bahari","true","","1"
"3023.5999999940395","","","","","3","html-slider-response","510","","","","5",""
"1644","","","","","3","html-keyboard-response","511","","","","",""
"3512","shop","nopya,kerida,samaki,ndezu","samaki","j","3","html-keyboard-response","512","v","kerida","false","","4"
"1883.5","","","","","3","html-slider-response","513","","","","2",""
"3944","","","","","3","html-keyboard-response","514","","","","",""
"4342","flower","tamasha,lobo,usiku,bega","bega","n","3","html-keyboard-response","515","v","lobo","false","","4"
"2148.39999999851","","","","","3","html-slider-response","516","","","","2",""
"4391","","","","","3","html-keyboard-response","517","","","","",""
"4941","cigar","ndugu,kuta,adhabu,mlango","adhabu","j","3","html-keyboard-response","518","j","adhabu","true","","1"
"2560.5","","","","","3","html-slider-response","519","","","","5",""
"5881","","","","","3","html-keyboard-response","520","","","","",""
"2907","hammer","napakyas,mekno,kitovu,layag","napakyas","f","3","html-keyboard-response","521","j","kitovu","false","","4"
"1901.1999999955297","","","","","3","html-slider-response","522","","","","2",""
"6425","","","","","3","html-keyboard-response","523","","","","",""
"4761","fork","mgonjwa,baboy,paghago,gorisi","mgonjwa","f","3","html-keyboard-response","524","j","paghago","false","","4"
"3209.5999999940395","","","","","3","html-slider-response","525","","","","2",""
"6099","","","","","3","html-keyboard-response","526","","","","",""
"3705","sun","bendi,luha,uongo,basi","basi","n","3","html-keyboard-response","527","n","basi","true","","1"
"4573.5999999940395","","","","","3","html-slider-response","528","","","","5",""
"1105","","","","","3","html-keyboard-response","529","","","","",""
"4539","ladder","mashua,mwanga,kamba,pangalan","pangalan","n","3","html-keyboard-response","530","n","pangalan","true","","4"
"2263.2999999970198","","","","","3","html-slider-response","531","","","","2",""
"4292","","","","","3","html-keyboard-response","532","","","","",""
"3365","banana","kazi,kasamok,hagdan,twai","kazi","f","3","html-keyboard-response","533","f","kazi","true","","1"
"3215","","","","","3","html-slider-response","534","","","","5",""
"1298","","","","","3","html-keyboard-response","535","","","","",""
"3832","pudding","aibu,abug,mpishi,iring","aibu","f","3","html-keyboard-response","536","f","aibu","true","","4"
"4143.5","","","","","3","html-slider-response","537","","","","2",""
"3457","","","","","3","html-keyboard-response","538","","","","",""
"3945","body","tindashan,nyundu,jibini,kununa","tindashan","f","3","html-keyboard-response","539","v","nyundu","false","","4"
"3121.5","","","","","3","html-slider-response","540","","","","2",""
"4925","","","","","3","html-keyboard-response","541","","","","",""
"3550","bed","mapintas,kalipay,haraka,starehe","mapintas","f","3","html-keyboard-response","542","f","mapintas","true","","4"
"2201.2000000029802","","","","","3","html-slider-response","543","","","","2",""
"6284","","","","","3","html-keyboard-response","544","","","","",""
"4125","tissue","lamigas,ugomvi,kisiwa,katika","ugomvi","v","3","html-keyboard-response","545","j","kisiwa","false","","4"
"4910.89999999851","","","","","3","html-slider-response","546","","","","2",""
"8376","","","","","3","html-keyboard-response","547","","","","",""
"2659","candle","gabi,geza,farasi,kupanda","geza","v","3","html-keyboard-response","548","f","gabi","false","","4"
"3114","","","","","3","html-slider-response","549","","","","2",""
"3785","","","","","3","html-keyboard-response","550","","","","",""
"6027","tomato","mvua,chupi,chupa,takatak","mvua","f","3","html-keyboard-response","551","f","mvua","true","","1"
"4203.89999999851","","","","","3","html-slider-response","552","","","","5",""
"1451","","","","","3","html-keyboard-response","553","","","","",""
"2216","list","wingu,alizeti,kuzama,kaso","wingu","f","3","html-keyboard-response","554","n","kaso","false","","4"
"2762.1999999955297","","","","","3","html-slider-response","555","","","","2",""
"6628","","","","","3","html-keyboard-response","556","","","","",""
"3406","olive","jiwe,bata,siagi,welder","jiwe","f","3","html-keyboard-response","557","f","jiwe","true","","4"
"2922.3000000044703","","","","","3","html-slider-response","558","","","","5",""
"1532","","","","","3","html-keyboard-response","559","","","","",""
"5551","picture","kubwa,silya,chaki,asin","kubwa","f","3","html-keyboard-response","560","f","kubwa","true","","1"
"2954.89999999851","","","","","3","html-slider-response","561","","","","5",""
"929","","","","","3","html-keyboard-response","562","","","","",""
"2296","page","wimbo,wakala,ishiri,skina","wimbo","f","4","html-keyboard-response","888","f","wimbo","true","",""
"2567.9000000059605","","","","","4","html-slider-response","889","","","","5",""
"4992","sheet","juuya,bililhon,watu,kamantis","bililhon","v","4","html-keyboard-response","890","v","bililhon","true","",""
"2599.5","","","","","4","html-slider-response","891","","","","5",""
"6834","ladder","pangalan,mashua,mwanga,kamba","pangalan","f","4","html-keyboard-response","892","f","pangalan","true","",""
"2582.5","","","","","4","html-slider-response","893","","","","4",""
"7623","door","tena,soko,surali,nyota","surali","j","4","html-keyboard-response","894","j","surali","true","",""
"4657.20000000298","","","","","4","html-slider-response","895","","","","3",""
"2233","spider","bunyag,mkboa,kamwe,atop","kamwe","j","4","html-keyboard-response","896","j","kamwe","true","",""
"2360.3999999910593","","","","","4","html-slider-response","897","","","","5",""
"5033","picture","silya,chaki,kubwa,asin","kubwa","j","4","html-keyboard-response","898","j","kubwa","true","",""
"2018.4000000059605","","","","","4","html-slider-response","899","","","","4",""
"4202","boat","hamsi,pombe,agalon,kitanda","agalon","j","4","html-keyboard-response","900","f","hamsi","false","",""
"2966.7999999970198","","","","","4","html-slider-response","901","","","","3",""
"1879","donkey","bloke,elfu,lalake,rombus","elfu","v","4","html-keyboard-response","902","v","elfu","true","",""
"2246.5","","","","","4","html-slider-response","903","","","","5",""
"1610","book","kuhesa,mali,picha,mara","mali","v","4","html-keyboard-response","904","v","mali","true","",""
"2221","","","","","4","html-slider-response","905","","","","5",""
"5160","cup","dagat,shimoni,jeraha,matumai","matumai","n","4","html-keyboard-response","906","n","matumai","true","",""
"2726.4000000059605","","","","","4","html-slider-response","907","","","","4",""
"2117","sun","bendi,basi,luha,uongo","basi","v","4","html-keyboard-response","908","v","basi","true","",""
"2462.699999988079","","","","","4","html-slider-response","909","","","","5",""
"2749","pudding","abug,mpishi,aibu,iring","aibu","j","4","html-keyboard-response","910","j","aibu","true","",""
"2550.6000000089407","","","","","4","html-slider-response","911","","","","4",""
"1848","human","bado,kikapu,tinapay,punguza","tinapay","j","4","html-keyboard-response","912","j","tinapay","true","",""
"2572","","","","","4","html-slider-response","913","","","","5",""
"4577","squirrel","mahugaw,hofu,ukweli,kichwa","hofu","v","4","html-keyboard-response","914","v","hofu","true","",""
"2549.1000000089407","","","","","4","html-slider-response","915","","","","5",""
"2483","park","tambok,pwani,bunifu,ihalas","bunifu","j","4","html-keyboard-response","916","j","bunifu","true","",""
"2485.8999999910593","","","","","4","html-slider-response","917","","","","5",""
"4287","poster","madungog,nchi,fedha,kasuko","madungog","f","4","html-keyboard-response","918","f","madungog","true","",""
"2079.3999999910593","","","","","4","html-slider-response","919","","","","4",""
"3018","wolf","kaburi,lugha,ndizi,mchuzi","lugha","v","4","html-keyboard-response","920","v","lugha","true","",""
"2471.7999999970198","","","","","4","html-slider-response","921","","","","5",""
"7221","cat","neyemba,paghukom,baki,akili","paghukom","v","4","html-keyboard-response","922","v","paghukom","true","",""
"2103","","","","","4","html-slider-response","923","","","","4",""
"2938","fish","buli,bala,baho,imani","buli","f","4","html-keyboard-response","924","f","buli","true","",""
"2772.7000000029802","","","","","4","html-slider-response","925","","","","5",""
"3514","tooth","kabalaka,kijiko,uadui,pahiyum","kabalaka","f","4","html-keyboard-response","926","f","kabalaka","true","",""
"2221.0999999940395","","","","","4","html-slider-response","927","","","","5",""
"2382","cave","ganti,maisha,kesho,nyundo","kesho","j","4","html-keyboard-response","928","j","kesho","true","",""
"3048.5999999940395","","","","","4","html-slider-response","929","","","","4",""
"5935","lamp","afya,daub,bilaska,mbolea","afya","f","4","html-keyboard-response","930","j","bilaska","false","",""
"1880.5999999940395","","","","","4","html-slider-response","931","","","","4",""
"2320","banana","kasamok,hagdan,twai,kazi","kazi","n","4","html-keyboard-response","932","n","kazi","true","",""
"2752.5999999940395","","","","","4","html-slider-response","933","","","","5",""
"1668","bonfire","mwezi,mfuko,kusanya,goti","goti","n","4","html-keyboard-response","934","n","goti","true","",""
"2611.8999999910593","","","","","4","html-slider-response","935","","","","5",""
"3658","cop","mechezo,bustani,jikoni,bakus","mechezo","f","4","html-keyboard-response","936","f","mechezo","true","",""
"2212.5","","","","","4","html-slider-response","937","","","","5",""
"1467","marker","mapafu,salita,maji,atay","maji","j","4","html-keyboard-response","938","j","maji","true","",""
"2429.2000000029802","","","","","4","html-slider-response","939","","","","5",""
"6024","window","kweli,nanga,kujenga,umaga","kweli","f","4","html-keyboard-response","940","f","kweli","true","",""
"3465.800000011921","","","","","4","html-slider-response","941","","","","3",""
"5222","body","tindashan,nyundu,jibini,kununa","tindashan","f","4","html-keyboard-response","942","f","tindashan","true","",""
"2125.5","","","","","4","html-slider-response","943","","","","4",""
"1508","apple","ukame,estante,kisu,edad","kisu","j","4","html-keyboard-response","944","j","kisu","true","",""
"2101.5999999940395","","","","","4","html-slider-response","945","","","","5",""
"4769","salmon","sensilyo,mzungu,seri,baharia","sensilyo","f","4","html-keyboard-response","946","f","sensilyo","true","",""
"2603.8999999910593","","","","","4","html-slider-response","947","","","","5",""
"4291","bed","kalipay,haraka,mapintas,starehe","mapintas","j","4","html-keyboard-response","948","j","mapintas","true","",""
"3145.5","","","","","4","html-slider-response","949","","","","4",""
"2677","berry","abogado,nogozi,kofia,kinywa","kofia","j","4","html-keyboard-response","950","j","kofia","true","",""
"2184","","","","","4","html-slider-response","951","","","","5",""
"4288","mirror","rangi,kanding,furaha,sulagma","sulagma","n","4","html-keyboard-response","952","n","sulagma","true","",""
"2637","","","","","4","html-slider-response","953","","","","5",""
"3661","flag","ndege,mkate,trekta,kawa","trekta","j","4","html-keyboard-response","954","j","trekta","true","",""
"2019.7999999970198","","","","","4","html-slider-response","955","","","","5",""
"4693","shoulder","kelele,ndaniya,mkuu,guruwe","mkuu","j","4","html-keyboard-response","956","j","mkuu","true","",""
"2542","","","","","4","html-slider-response","957","","","","5",""
"5456","tissue","lamigas,kisiwa,katika,ugomvi","ugomvi","n","4","html-keyboard-response","958","n","ugomvi","true","",""
"3096.2999999970198","","","","","4","html-slider-response","959","","","","3",""
"12064","notebook","msitu,kemia,kila,mdudu","kemia","v","4","html-keyboard-response","960","v","kemia","true","",""
"2491.699999988079","","","","","4","html-slider-response","961","","","","5",""
"5814","snake","jansa,pagtukod,karon,mvringo","pagtukod","v","4","html-keyboard-response","962","v","pagtukod","true","",""
"4366.29999999702","","","","","4","html-slider-response","963","","","","3",""
"2048","finger","simu,sufuria,moyo,lima","moyo","j","4","html-keyboard-response","964","j","moyo","true","",""
"1946.800000011921","","","","","4","html-slider-response","965","","","","5",""
"14772","basket","kumba,kumbuka,utepe,hasira","kumba","f","4","html-keyboard-response","966","f","kumba","true","",""
"3300.699999988079","","","","","4","html-slider-response","967","","","","4",""
"3118","curtain","lisud,bulwawan,mchanga,chubani","mchanga","j","4","html-keyboard-response","968","j","mchanga","true","",""
"2564","","","","","4","html-slider-response","969","","","","4",""
"2575","perfume","katuyoan,bino,sungura,ndogo","katuyoan","f","4","html-keyboard-response","970","f","katuyoan","true","",""
"2194.5","","","","","4","html-slider-response","971","","","","5",""
"2230","key","chombo,miaka,goma,ahos","chombo","f","4","html-keyboard-response","972","f","chombo","true","",""
"2578.800000011921","","","","","4","html-slider-response","973","","","","5",""
"1897","olive","jiwe,bata,siagi,welder","jiwe","f","4","html-keyboard-response","974","f","jiwe","true","",""
"2486.300000011921","","","","","4","html-slider-response","975","","","","5",""
"4275","rose","singizi,mwanake,paghalad,amani","paghalad","j","4","html-keyboard-response","976","j","paghalad","true","",""
"2330.4000000059605","","","","","4","html-slider-response","977","","","","5",""
"4047","bridge","daima,ngono,panya,sahani","sahani","n","4","html-keyboard-response","978","n","sahani","true","",""
"2232.4000000059605","","","","","4","html-slider-response","979","","","","4",""
"5220","hill","kushoto,matumbo,kukimba,sweta","matumbo","v","4","html-keyboard-response","980","v","matumbo","true","",""
"2365.7999999970198","","","","","4","html-slider-response","981","","","","5",""
"3124","letter","filimbi,chuma,uhuru,kifua","kifua","n","4","html-keyboard-response","982","n","kifua","true","",""
"2027.9000000059605","","","","","4","html-slider-response","983","","","","4",""
"2471","sock","mamba,ndoora,kimysa,mtirka","mamba","f","4","html-keyboard-response","984","f","mamba","true","",""
"2189","","","","","4","html-slider-response","985","","","","5",""
"4743","fork","baboy,mgonjwa,paghago,gorisi","mgonjwa","v","4","html-keyboard-response","986","v","mgonjwa","true","",""
"1932.2999999970198","","","","","4","html-slider-response","987","","","","5",""
"2305","box","adui,kuacha,rafiki,kitande","adui","f","4","html-keyboard-response","988","f","adui","true","",""
"2167.8999999910593","","","","","4","html-slider-response","989","","","","5",""
"2915","gift","baba,pagtawag,nyange,baso","pagtawag","v","4","html-keyboard-response","990","v","pagtawag","true","",""
"2121.199999988079","","","","","4","html-slider-response","991","","","","5",""
"3525","bucket","kiatu,baga,ijayo,init","kiatu","f","4","html-keyboard-response","992","f","kiatu","true","",""
"3747.699999988079","","","","","4","html-slider-response","993","","","","5",""
"2527","shop","samaki,nopya,kerida,ndezu","samaki","f","4","html-keyboard-response","994","f","samaki","true","",""
"2112.0999999940395","","","","","4","html-slider-response","995","","","","5",""
"4139","puppet","napulo,lamok,godoro,mazishi","mazishi","n","4","html-keyboard-response","996","n","mazishi","true","",""
"2408.800000011921","","","","","4","html-slider-response","997","","","","4",""
"4011","nose","sehemu,gubat,kopa,kidole","sehemu","f","4","html-keyboard-response","998","f","sehemu","true","",""
"2013.5999999940395","","","","","4","html-slider-response","999","","","","4",""
"2479","music","mraba,mageho,tumbo,baiski","baiski","n","4","html-keyboard-response","1000","n","baiski","true","",""
"2364.9000000059605","","","","","4","html-slider-response","1001","","","","5",""
"4477","dog","lubi,bahari,washia,kalamu","bahari","v","4","html-keyboard-response","1002","v","bahari","true","",""
"2202.3999999910593","","","","","4","html-slider-response","1003","","","","5",""
"5405","eel","msumari,ishara,kunywa,kabuang","msumari","f","4","html-keyboard-response","1004","f","msumari","true","",""
"2180.7999999970198","","","","","4","html-slider-response","1005","","","","4",""
"2160","number","mundamo,shule,kengele,choori","mundamo","f","4","html-keyboard-response","1006","f","mundamo","true","",""
"2142.699999988079","","","","","4","html-slider-response","1007","","","","5",""
"2677","tomato","chupi,chupa,mvua,takatak","mvua","j","4","html-keyboard-response","1008","j","mvua","true","",""
"2357.6000000089407","","","","","4","html-slider-response","1009","","","","5",""
"1793","coffin","barua,tubag,hulma,kioo","kioo","n","4","html-keyboard-response","1010","n","kioo","true","",""
"2777","","","","","4","html-slider-response","1011","","","","5",""
"2260","knee","mvuke,kubale,duka,bili","duka","j","4","html-keyboard-response","1012","j","duka","true","",""
"2000.5999999940395","","","","","4","html-slider-response","1013","","","","5",""
"4805","woman","bandari,pagtabon,bituin,kovuli","pagtabon","v","4","html-keyboard-response","1014","v","pagtabon","true","",""
"2622.7000000029802","","","","","4","html-slider-response","1015","","","","5",""
"4291","stone","ulimwengu,mkasi,asili,wingi","wingi","n","4","html-keyboard-response","1016","n","wingi","true","",""
"1947.5","","","","","4","html-slider-response","1017","","","","5",""
"2076","bread","kaili,dizeli,bugas,dari","dari","n","4","html-keyboard-response","1018","n","dari","true","",""
"2730.199999988079","","","","","4","html-slider-response","1019","","","","5",""
"5120","triangle","kihozi,bentaha,liog,kasadpan","kasadpan","n","4","html-keyboard-response","1020","n","kasadpan","true","",""
"2295.7000000029802","","","","","4","html-slider-response","1021","","","","4",""
"2721","scissors","duga,mtawa,suga,tanuri","tanuri","n","4","html-keyboard-response","1022","n","tanuri","true","",""
"2257.0999999940395","","","","","4","html-slider-response","1023","","","","5",""
"3872","giraffe","daraja,mahitabo,jumatu,hangyo","mahitabo","v","4","html-keyboard-response","1024","v","mahitabo","true","",""
"3167.2999999970198","","","","","4","html-slider-response","1025","","","","4",""
"3287","flower","tamasha,bega,lobo,usiku","bega","v","4","html-keyboard-response","1026","v","bega","true","",""
"2399.199999988079","","","","","4","html-slider-response","1027","","","","4",""
"1834","candle","gabi,farasi,geza,kupanda","geza","j","4","html-keyboard-response","1028","j","geza","true","",""
"3422.5","","","","","4","html-slider-response","1029","","","","5",""
"1670","mother","babaye,kahawa,mbuzi,jokofu","babaye","f","4","html-keyboard-response","1030","f","babaye","true","",""
"2270.5","","","","","4","html-slider-response","1031","","","","5",""
"2812","towel","tembo,funzi,pagpalit,pito","pagpalit","j","4","html-keyboard-response","1032","j","pagpalit","true","",""
"2066.2000000029802","","","","","4","html-slider-response","1033","","","","5",""
"3815","elephant","kito,petye,pagduol,suka","kito","f","4","html-keyboard-response","1034","f","kito","true","",""
"1907.1000000089407","","","","","4","html-slider-response","1035","","","","5",""
"4723","shelf","pamahaw,bungtod,kadaot,awit","pamahaw","f","4","html-keyboard-response","1036","f","pamahaw","true","",""
"3778.0999999940395","","","","","4","html-slider-response","1037","","","","3",""
"3171","mosquito","isda,martilyo,taras,gutom","martilyo","v","4","html-keyboard-response","1038","v","martilyo","true","",""
"1851.5","","","","","4","html-slider-response","1039","","","","5",""
"2874","column","pundok,dila,pala,ufagio","ufagio","n","4","html-keyboard-response","1040","n","ufagio","true","",""
"2164.4000000059605","","","","","4","html-slider-response","1041","","","","5",""
"3251","pants","pintal,chuki,haki,hari","haki","j","4","html-keyboard-response","1042","j","haki","true","",""
"3053.800000011921","","","","","4","html-slider-response","1043","","","","5",""
"2887","list","wingu,alizeti,kuzama,kaso","wingu","f","4","html-keyboard-response","1044","f","wingu","true","",""
"2565.1000000089407","","","","","4","html-slider-response","1045","","","","5",""
"4279","bank","kudhibi,tualya,silingan,ofisi","silingan","j","4","html-keyboard-response","1046","j","silingan","true","",""
"2517.5999999940395","","","","","4","html-slider-response","1047","","","","4",""
"5505","clock","kartasi,abang,osha,mbwa","mbwa","n","4","html-keyboard-response","1048","n","mbwa","true","",""
"2072.9000000059605","","","","","4","html-slider-response","1049","","","","5",""
"3142","ceiling","kugita,kawaida,rayna,maua","maua","n","4","html-keyboard-response","1050","n","maua","true","",""
"2279.1000000089407","","","","","4","html-slider-response","1051","","","","4",""
"2456","train","itik,dakika,sayari,mungu","sayari","j","4","html-keyboard-response","1052","j","sayari","true","",""
"2325.199999988079","","","","","4","html-slider-response","1053","","","","5",""
"6178","magazine","gundi,mchawi,kiti,bahandi","kiti","j","4","html-keyboard-response","1054","j","kiti","true","",""
"2053.0999999940395","","","","","4","html-slider-response","1055","","","","4",""
"1599","office","hazini,yatima,kuna,leso","leso","n","4","html-keyboard-response","1056","n","leso","true","",""
"2176.2999999970198","","","","","4","html-slider-response","1057","","","","5",""
"4334","wheel","punda,tawo,bafuni,baadaye","bafuni","j","4","html-keyboard-response","1058","j","bafuni","true","",""
"2282","","","","","4","html-slider-response","1059","","","","4",""
"3423","spoon","betri,nzuri,pagsulod,ngazi","pagsulod","j","4","html-keyboard-response","1060","j","pagsulod","true","",""
"2136.3999999910593","","","","","4","html-slider-response","1061","","","","5",""
"5598","hammer","mekno,napakyas,kitovu,layag","napakyas","v","4","html-keyboard-response","1062","v","napakyas","true","",""
"2639.1000000089407","","","","","4","html-slider-response","1063","","","","3",""
"4407","cigar","ndugu,kuta,adhabu,mlango","adhabu","j","4","html-keyboard-response","1064","j","adhabu","true","",""
"3561","","","","","4","html-slider-response","1065","","","","3",""
"6075","shoe","nyeusi,hatua,kama,uyoga","uyoga","n","4","html-keyboard-response","1066","n","uyoga","true","",""
"2733","","","","","4","html-slider-response","1067","","","","3",""
"3793","list","alizeti,kuzama,kaso,wingu","wingu","n","5","html-keyboard-response","1069","n","wingu","true","",""
"2688.7000000029802","","","","","5","html-slider-response","1070","","","","5",""
"1749","number","mundamo,shule,kengele,choori","mundamo","f","5","html-keyboard-response","1071","f","mundamo","true","",""
"1973.2000000029802","","","","","5","html-slider-response","1072","","","","5",""
"1543","apple","ukame,kisu,estante,edad","kisu","v","5","html-keyboard-response","1073","v","kisu","true","",""
"2390","","","","","5","html-slider-response","1074","","","","5",""
"1537","knee","mvuke,kubale,bili,duka","duka","n","5","html-keyboard-response","1075","n","duka","true","",""
"2345","","","","","5","html-slider-response","1076","","","","5",""
"3092","tooth","kijiko,kabalaka,uadui,pahiyum","kabalaka","v","5","html-keyboard-response","1077","v","kabalaka","true","",""
"2028.5","","","","","5","html-slider-response","1078","","","","5",""
"3389","berry","abogado,nogozi,kofia,kinywa","kofia","j","5","html-keyboard-response","1079","j","kofia","true","",""
"2219.8999999910593","","","","","5","html-slider-response","1080","","","","5",""
"3196","bridge","daima,ngono,sahani,panya","sahani","j","5","html-keyboard-response","1081","j","sahani","true","",""
"2667.2000000029802","","","","","5","html-slider-response","1082","","","","5",""
"2356","perfume","bino,sungura,ndogo,katuyoan","katuyoan","n","5","html-keyboard-response","1083","n","katuyoan","true","",""
"2879.2000000029802","","","","","5","html-slider-response","1084","","","","5",""
"7029","ladder","mashua,mwanga,kamba,pangalan","pangalan","n","5","html-keyboard-response","1085","v","mwanga","false","",""
"2796.5","","","","","5","html-slider-response","1086","","","","4",""
"1952","pants","haki,pintal,chuki,hari","haki","f","5","html-keyboard-response","1087","f","haki","true","",""
"2439.5999999940395","","","","","5","html-slider-response","1088","","","","5",""
"2076","salmon","sensilyo,mzungu,seri,baharia","sensilyo","f","5","html-keyboard-response","1089","f","sensilyo","true","",""
"2200.1000000089407","","","","","5","html-slider-response","1090","","","","5",""
"1689","coffin","kioo,barua,tubag,hulma","kioo","f","5","html-keyboard-response","1091","f","kioo","true","",""
"2311.0999999940395","","","","","5","html-slider-response","1092","","","","5",""
"3178","park","bunifu,tambok,pwani,ihalas","bunifu","f","5","html-keyboard-response","1093","f","bunifu","true","",""
"2845","","","","","5","html-slider-response","1094","","","","5",""
"5355","giraffe","daraja,jumatu,mahitabo,hangyo","mahitabo","j","5","html-keyboard-response","1095","j","mahitabo","true","",""
"2066.6000000089407","","","","","5","html-slider-response","1096","","","","4",""
"2054","mirror","sulagma,rangi,kanding,furaha","sulagma","f","5","html-keyboard-response","1097","f","sulagma","true","",""
"2715.5","","","","","5","html-slider-response","1098","","","","5",""
"1731","ceiling","kugita,kawaida,rayna,maua","maua","n","5","html-keyboard-response","1099","n","maua","true","",""
"2296.5999999940395","","","","","5","html-slider-response","1100","","","","5",""
"1627","marker","mapafu,salita,atay,maji","maji","n","5","html-keyboard-response","1101","n","maji","true","",""
"2600.4000000059605","","","","","5","html-slider-response","1102","","","","5",""
"1905","sock","mamba,ndoora,kimysa,mtirka","mamba","f","5","html-keyboard-response","1103","f","mamba","true","",""
"2355.699999988079","","","","","5","html-slider-response","1104","","","","5",""
"2038","cop","bustani,jikoni,mechezo,bakus","mechezo","j","5","html-keyboard-response","1105","j","mechezo","true","",""
"2361.8999999910593","","","","","5","html-slider-response","1106","","","","5",""
"3367","gift","baba,pagtawag,nyange,baso","pagtawag","v","5","html-keyboard-response","1107","v","pagtawag","true","",""
"2365.6000000089407","","","","","5","html-slider-response","1108","","","","5",""
"3875","notebook","msitu,kemia,kila,mdudu","kemia","v","5","html-keyboard-response","1109","v","kemia","true","",""
"2021.7999999970198","","","","","5","html-slider-response","1110","","","","5",""
"2153","bank","kudhibi,tualya,silingan,ofisi","silingan","j","5","html-keyboard-response","1111","j","silingan","true","",""
"1829.3999999910593","","","","","5","html-slider-response","1112","","","","5",""
"10151","letter","filimbi,kifua,chuma,uhuru","kifua","v","5","html-keyboard-response","1113","v","kifua","true","",""
"3532.300000011921","","","","","5","html-slider-response","1114","","","","2",""
"1996","candle","gabi,farasi,kupanda,geza","geza","n","5","html-keyboard-response","1115","n","geza","true","",""
"2721.4000000059605","","","","","5","html-slider-response","1116","","","","5",""
"1634","bread","kaili,dizeli,bugas,dari","dari","n","5","html-keyboard-response","1117","n","dari","true","",""
"2286.5","","","","","5","html-slider-response","1118","","","","5",""
"4969","snake","pagtukod,jansa,karon,mvringo","pagtukod","f","5","html-keyboard-response","1119","f","pagtukod","true","",""
"2574.9000000059605","","","","","5","html-slider-response","1120","","","","4",""
"2259","rose","singizi,mwanake,amani,paghalad","paghalad","n","5","html-keyboard-response","1121","n","paghalad","true","",""
"2755.8999999910593","","","","","5","html-slider-response","1122","","","","5",""
"2278","hill","kushoto,matumbo,kukimba,sweta","matumbo","v","5","html-keyboard-response","1123","v","matumbo","true","",""
"2551.2999999970198","","","","","5","html-slider-response","1124","","","","5",""
"1786","train","itik,dakika,sayari,mungu","sayari","j","5","html-keyboard-response","1125","j","sayari","true","",""
"2010.699999988079","","","","","5","html-slider-response","1126","","","","5",""
"2490","shop","nopya,samaki,kerida,ndezu","samaki","v","5","html-keyboard-response","1127","v","samaki","true","",""
"2307.2999999970198","","","","","5","html-slider-response","1128","","","","5",""
"2101","nose","gubat,kopa,sehemu,kidole","sehemu","j","5","html-keyboard-response","1129","j","sehemu","true","",""
"1829.5","","","","","5","html-slider-response","1130","","","","5",""
"3041","boat","hamsi,pombe,kitanda,agalon","agalon","n","5","html-keyboard-response","1131","f","hamsi","false","",""
"3760.7999999970198","","","","","5","html-slider-response","1132","","","","4",""
"2708","body","tindashan,nyundu,jibini,kununa","tindashan","f","5","html-keyboard-response","1133","f","tindashan","true","",""
"2494.2999999970198","","","","","5","html-slider-response","1134","","","","4",""
"2996","bed","kalipay,haraka,mapintas,starehe","mapintas","j","5","html-keyboard-response","1135","j","mapintas","true","",""
"2534.2000000029802","","","","","5","html-slider-response","1136","","","","5",""
"1467","squirrel","mahugaw,hofu,ukweli,kichwa","hofu","v","5","html-keyboard-response","1137","v","hofu","true","",""
"1853.8999999910593","","","","","5","html-slider-response","1138","","","","5",""
"4188","window","kweli,nanga,kujenga,umaga","kweli","f","5","html-keyboard-response","1139","f","kweli","true","",""
"2414.7000000029802","","","","","5","html-slider-response","1140","","","","4",""
"1445","bonfire","goti,mwezi,mfuko,kusanya","goti","f","5","html-keyboard-response","1141","f","goti","true","",""
"2590.2999999970198","","","","","5","html-slider-response","1142","","","","5",""
"1996","fish","bala,baho,imani,buli","buli","n","5","html-keyboard-response","1143","n","buli","true","",""
"2266.2000000029802","","","","","5","html-slider-response","1144","","","","5",""
"2454","cat","neyemba,baki,akili,paghukom","paghukom","n","5","html-keyboard-response","1145","n","paghukom","true","",""
"2702.800000011921","","","","","5","html-slider-response","1146","","","","5",""
"1732","spider","bunyag,mkboa,atop,kamwe","kamwe","n","5","html-keyboard-response","1147","n","kamwe","true","",""
"2029.5","","","","","5","html-slider-response","1148","","","","5",""
"6777","eel","ishara,msumari,kunywa,kabuang","msumari","v","5","html-keyboard-response","1149","v","msumari","true","",""
"2962.2000000029802","","","","","5","html-slider-response","1150","","","","4",""
"2316","woman","pagtabon,bandari,bituin,kovuli","pagtabon","f","5","html-keyboard-response","1151","f","pagtabon","true","",""
"3337.4000000059605","","","","","5","html-slider-response","1152","","","","4",""
"3362","magazine","gundi,kiti,mchawi,bahandi","kiti","v","5","html-keyboard-response","1153","v","kiti","true","",""
"3482.8999999910593","","","","","5","html-slider-response","1154","","","","3",""
"2620","pudding","abug,mpishi,iring,aibu","aibu","n","5","html-keyboard-response","1155","n","aibu","true","",""
"1949.5","","","","","5","html-slider-response","1156","","","","4",""
"7600","lamp","daub,bilaska,afya,mbolea","afya","j","5","html-keyboard-response","1157","v","bilaska","false","",""
"3294.6000000089407","","","","","5","html-slider-response","1158","","","","4",""
"2046","cave","ganti,maisha,kesho,nyundo","kesho","j","5","html-keyboard-response","1159","j","kesho","true","",""
"2131.9000000059605","","","","","5","html-slider-response","1160","","","","5",""
"1834","shoulder","kelele,ndaniya,mkuu,guruwe","mkuu","j","5","html-keyboard-response","1161","j","mkuu","true","",""
"2168.0999999940395","","","","","5","html-slider-response","1162","","","","5",""
"1802","stone","ulimwengu,mkasi,asili,wingi","wingi","n","5","html-keyboard-response","1163","n","wingi","true","",""
"2238.7999999970198","","","","","5","html-slider-response","1164","","","","5",""
"2366","column","pundok,ufagio,dila,pala","ufagio","v","5","html-keyboard-response","1165","v","ufagio","true","",""
"1841.5999999940395","","","","","5","html-slider-response","1166","","","","5",""
"2094","page","wimbo,wakala,ishiri,skina","wimbo","f","5","html-keyboard-response","1167","f","wimbo","true","",""
"2099.199999988079","","","","","5","html-slider-response","1168","","","","5",""
"2834","shoe","uyoga,nyeusi,hatua,kama","uyoga","f","5","html-keyboard-response","1169","f","uyoga","true","",""
"2930","","","","","5","html-slider-response","1170","","","","3",""
"2613","clock","kartasi,abang,osha,mbwa","mbwa","n","5","html-keyboard-response","1171","n","mbwa","true","",""
"2062.4000000059605","","","","","5","html-slider-response","1172","","","","5",""
"1788","towel","tembo,funzi,pito,pagpalit","pagpalit","n","5","html-keyboard-response","1173","n","pagpalit","true","",""
"1905.6000000089407","","","","","5","html-slider-response","1174","","","","5",""
"1566","tomato","chupi,chupa,takatak,mvua","mvua","n","5","html-keyboard-response","1175","n","mvua","true","",""
"2229.7999999970198","","","","","5","html-slider-response","1176","","","","5",""
"3610","bucket","kiatu,baga,ijayo,init","kiatu","f","5","html-keyboard-response","1177","f","kiatu","true","",""
"2004.1000000089407","","","","","5","html-slider-response","1178","","","","4",""
"1421","finger","simu,sufuria,moyo,lima","moyo","j","5","html-keyboard-response","1179","j","moyo","true","",""
"2208.7000000029802","","","","","5","html-slider-response","1180","","","","5",""
"2881","mother","babaye,kahawa,mbuzi,jokofu","babaye","f","5","html-keyboard-response","1181","f","babaye","true","",""
"2916.2999999970198","","","","","5","html-slider-response","1182","","","","5",""
"2503","human","bado,tinapay,kikapu,punguza","tinapay","v","5","html-keyboard-response","1183","v","tinapay","true","",""
"2531.5","","","","","5","html-slider-response","1184","","","","5",""
"1527","sun","bendi,luha,uongo,basi","basi","n","5","html-keyboard-response","1185","n","basi","true","",""
"2255.5999999940395","","","","","5","html-slider-response","1186","","","","5",""
"3975","fork","baboy,mgonjwa,paghago,gorisi","mgonjwa","v","5","html-keyboard-response","1187","v","mgonjwa","true","",""
"2083.8999999910593","","","","","5","html-slider-response","1188","","","","5",""
"1377","donkey","bloke,lalake,rombus,elfu","elfu","n","5","html-keyboard-response","1189","n","elfu","true","",""
"2297.7999999970198","","","","","5","html-slider-response","1190","","","","5",""
"2662","wolf","kaburi,ndizi,lugha,mchuzi","lugha","j","5","html-keyboard-response","1191","j","lugha","true","",""
"2430.699999988079","","","","","5","html-slider-response","1192","","","","5",""
"2665","cigar","ndugu,adhabu,kuta,mlango","adhabu","v","5","html-keyboard-response","1193","v","adhabu","true","",""
"1953.699999988079","","","","","5","html-slider-response","1194","","","","4",""
"1877","olive","jiwe,bata,siagi,welder","jiwe","f","5","html-keyboard-response","1195","f","jiwe","true","",""
"1956.7000000029802","","","","","5","html-slider-response","1196","","","","5",""
"1881","key","miaka,chombo,goma,ahos","chombo","v","5","html-keyboard-response","1197","v","chombo","true","",""
"2203.5","","","","","5","html-slider-response","1198","","","","5",""
"3363","door","tena,soko,nyota,surali","surali","n","5","html-keyboard-response","1199","n","surali","true","",""
"4043","","","","","5","html-slider-response","1200","","","","3",""
"1820","wheel","bafuni,punda,tawo,baadaye","bafuni","f","5","html-keyboard-response","1201","f","bafuni","true","",""
"2280.7999999970198","","","","","5","html-slider-response","1202","","","","5",""
"3000","basket","kumba,kumbuka,utepe,hasira","kumba","f","5","html-keyboard-response","1203","f","kumba","true","",""
"2319.4000000059605","","","","","5","html-slider-response","1204","","","","4",""
"1997","elephant","petye,pagduol,suka,kito","kito","n","5","html-keyboard-response","1205","n","kito","true","",""
"2672.0999999940395","","","","","5","html-slider-response","1206","","","","5",""
"1321","office","leso,hazini,yatima,kuna","leso","f","5","html-keyboard-response","1207","f","leso","true","",""
"2431.3999999910593","","","","","5","html-slider-response","1208","","","","5",""
"2254","music","mraba,mageho,tumbo,baiski","baiski","n","5","html-keyboard-response","1209","n","baiski","true","",""
"2286.2999999970198","","","","","5","html-slider-response","1210","","","","5",""
"3251","tissue","lamigas,ugomvi,kisiwa,katika","ugomvi","v","5","html-keyboard-response","1211","n","katika","false","",""
"2064.2999999970198","","","","","5","html-slider-response","1212","","","","2",""
"2833","curtain","lisud,bulwawan,chubani,mchanga","mchanga","n","5","html-keyboard-response","1213","n","mchanga","true","",""
"2597.8999999910593","","","","","5","html-slider-response","1214","","","","5",""
"1958","flag","ndege,mkate,trekta,kawa","trekta","j","5","html-keyboard-response","1215","j","trekta","true","",""
"2314.2999999970198","","","","","5","html-slider-response","1216","","","","5",""
"1990","dog","lubi,bahari,washia,kalamu","bahari","v","5","html-keyboard-response","1217","v","bahari","true","",""
"2631.2000000029802","","","","","5","html-slider-response","1218","","","","5",""
"2460","cup","dagat,shimoni,jeraha,matumai","matumai","n","5","html-keyboard-response","1219","n","matumai","true","",""
"2213.6000000089407","","","","","5","html-slider-response","1220","","","","5",""
"1832","sheet","juuya,watu,bililhon,kamantis","bililhon","j","5","html-keyboard-response","1221","j","bililhon","true","",""
"2293.2000000029802","","","","","5","html-slider-response","1222","","","","5",""
"1944","spoon","betri,nzuri,ngazi,pagsulod","pagsulod","n","5","html-keyboard-response","1223","n","pagsulod","true","",""
"2342.199999988079","","","","","5","html-slider-response","1224","","","","5",""
"2103","flower","bega,tamasha,lobo,usiku","bega","f","5","html-keyboard-response","1225","f","bega","true","",""
"2503.3999999910593","","","","","5","html-slider-response","1226","","","","4",""
"6032","picture","silya,kubwa,chaki,asin","kubwa","v","5","html-keyboard-response","1227","v","kubwa","true","",""
"2832.2999999970198","","","","","5","html-slider-response","1228","","","","4",""
"2858","puppet","napulo,lamok,mazishi,godoro","mazishi","j","5","html-keyboard-response","1229","j","mazishi","true","",""
"2286.5999999940395","","","","","5","html-slider-response","1230","","","","5",""
"1721","banana","kasamok,hagdan,twai,kazi","kazi","n","5","html-keyboard-response","1231","n","kazi","true","",""
"2711.4000000059605","","","","","5","html-slider-response","1232","","","","5",""
"1466","book","kuhesa,picha,mali,mara","mali","j","5","html-keyboard-response","1233","j","mali","true","",""
"2404.2999999970198","","","","","5","html-slider-response","1234","","","","5",""
"2654","triangle","kihozi,bentaha,liog,kasadpan","kasadpan","n","5","html-keyboard-response","1235","n","kasadpan","true","",""
"2840.2999999970198","","","","","5","html-slider-response","1236","","","","5",""
"2420","poster","madungog,nchi,fedha,kasuko","madungog","f","5","html-keyboard-response","1237","f","madungog","true","",""
"2327.5","","","","","5","html-slider-response","1238","","","","5",""
"2021","box","adui,kuacha,rafiki,kitande","adui","f","5","html-keyboard-response","1239","f","adui","true","",""
"2012.7999999970198","","","","","5","html-slider-response","1240","","","","5",""
"1743","mosquito","isda,taras,gutom,martilyo","martilyo","n","5","html-keyboard-response","1241","n","martilyo","true","",""
"2132.5","","","","","5","html-slider-response","1242","","","","5",""
"4311","shelf","bungtod,kadaot,awit,pamahaw","pamahaw","n","5","html-keyboard-response","1243","n","pamahaw","true","",""
"3169.7999999970198","","","","","5","html-slider-response","1244","","","","3",""
"1862","scissors","duga,mtawa,suga,tanuri","tanuri","n","5","html-keyboard-response","1245","n","tanuri","true","",""
"2311.5","","","","","5","html-slider-response","1246","","","","5",""
"2199","hammer","mekno,kitovu,napakyas,layag","napakyas","j","5","html-keyboard-response","1247","j","napakyas","true","",""
"2128.2999999970198","","","","","5","html-slider-response","1248","","","","4",""
