"rt","en_word","options","swa_word","correct_answer","phase","trial_type","trial_index","input_answer","input_word","accuracy","certainty","amt_choices"
"14479","bonfire","mwezi,goti,mfuko,kusanya","goti","v","2","html-keyboard-response","106","f","mwezi","false","",""
"3355.4000000003725","","","","","2","html-slider-response","107","","","","4",""
"30124","flower","tamasha,lobo,bega,usiku","bega","j","2","html-keyboard-response","108","n","usiku","false","",""
"3500.300000000745","","","","","2","html-slider-response","109","","","","2",""
"10498","column","pundok,dila,ufagio,pala","ufagio","j","2","html-keyboard-response","110","j","ufagio","true","",""
"2799.9000000003725","","","","","2","html-slider-response","111","","","","4",""
"115673","music","mraba,baiski,mageho,tumbo","baiski","v","2","html-keyboard-response","112","v","baiski","true","",""
"3638.5","","","","","2","html-slider-response","113","","","","2",""
"3041","spider","bunyag,mkboa,atop,kamwe","kamwe","n","2","html-keyboard-response","114","v","mkboa","false","",""
"2356.39999999851","","","","","2","html-slider-response","115","","","","4",""
"4765","fork","baboy,paghago,gorisi,mgonjwa","mgonjwa","n","2","html-keyboard-response","116","f","baboy","false","",""
"6180.5","","","","","2","html-slider-response","117","","","","3",""
"3388","mosquito","martilyo,isda,taras,gutom","martilyo","f","2","html-keyboard-response","118","f","martilyo","true","",""
"4159.5999999996275","","","","","2","html-slider-response","119","","","","4",""
"43522","banana","kasamok,hagdan,kazi,twai","kazi","j","2","html-keyboard-response","120","v","hagdan","false","",""
"2269.0999999996275","","","","","2","html-slider-response","121","","","","4",""
"2335","cup","dagat,shimoni,jeraha,matumai","matumai","n","2","html-keyboard-response","122","v","shimoni","false","",""
"2260.5999999996275","","","","","2","html-slider-response","123","","","","4",""
"11862","shop","nopya,kerida,samaki,ndezu","samaki","j","2","html-keyboard-response","124","f","nopya","false","",""
"2826.9000000003725","","","","","2","html-slider-response","125","","","","2",""
"5425","elephant","petye,kito,pagduol,suka","kito","v","2","html-keyboard-response","126","v","kito","true","",""
"3514.9000000003725","","","","","2","html-slider-response","127","","","","4",""
"3774","bucket","baga,kiatu,ijayo,init","kiatu","v","2","html-keyboard-response","128","j","ijayo","false","",""
"7483.5","","","","","2","html-slider-response","129","","","","5",""
"4176","book","kuhesa,picha,mali,mara","mali","j","2","html-keyboard-response","130","n","mara","false","",""
"2541.199999999255","","","","","2","html-slider-response","131","","","","4",""
"1721","mirror","rangi,kanding,furaha,sulagma","sulagma","n","2","html-keyboard-response","132","n","sulagma","true","",""
"3571","","","","","2","html-slider-response","133","","","","5",""
"30914","office","hazini,yatima,leso,kuna","leso","j","2","html-keyboard-response","134","v","yatima","false","",""
"2556.7999999988824","","","","","2","html-slider-response","135","","","","4",""
"4590","body","nyundu,jibini,kununa,tindashan","tindashan","n","2","html-keyboard-response","136","j","kununa","false","",""
"2734.9000000003725","","","","","2","html-slider-response","137","","","","4",""
"5361","perfume","katuyoan,bino,sungura,ndogo","katuyoan","f","2","html-keyboard-response","138","f","katuyoan","true","",""
"2412.300000000745","","","","","2","html-slider-response","139","","","","4",""
"8277","olive","bata,jiwe,siagi,welder","jiwe","v","2","html-keyboard-response","140","v","jiwe","true","",""
"3928.9000000003725","","","","","2","html-slider-response","141","","","","4",""
"4653","magazine","gundi,mchawi,bahandi,kiti","kiti","n","2","html-keyboard-response","142","v","mchawi","false","",""
"2824.0999999996275","","","","","2","html-slider-response","143","","","","5",""
"7325","bread","dari,kaili,dizeli,bugas","dari","f","2","html-keyboard-response","144","f","dari","true","",""
"2640.60000000149","","","","","2","html-slider-response","145","","","","5",""
"2802","cave","ganti,maisha,nyundo,kesho","kesho","n","2","html-keyboard-response","146","n","kesho","true","",""
"2385.300000000745","","","","","2","html-slider-response","147","","","","5",""
"2131","ladder","mashua,mwanga,kamba,pangalan","pangalan","n","2","html-keyboard-response","148","n","pangalan","true","",""
"3617.9000000003725","","","","","2","html-slider-response","149","","","","4",""
"3012","human","bado,kikapu,tinapay,punguza","tinapay","j","2","html-keyboard-response","150","v","kikapu","false","",""
"2347","","","","","2","html-slider-response","151","","","","4",""
"2120","clock","kartasi,abang,osha,mbwa","mbwa","n","2","html-keyboard-response","152","n","mbwa","true","",""
"2716.89999999851","","","","","2","html-slider-response","153","","","","5",""
"1475","shelf","pamahaw,bungtod,kadaot,awit","pamahaw","f","2","html-keyboard-response","154","j","kadaot","false","",""
"2495.2999999988824","","","","","2","html-slider-response","155","","","","4",""
"2115","salmon","sensilyo,mzungu,seri,baharia","sensilyo","f","2","html-keyboard-response","156","n","baharia","false","",""
"2401.800000000745","","","","","2","html-slider-response","157","","","","4",""
"3333","coffin","barua,tubag,kioo,hulma","kioo","j","2","html-keyboard-response","158","v","tubag","false","",""
"2295.800000000745","","","","","2","html-slider-response","159","","","","5",""
"4960","notebook","kemia,msitu,kila,mdudu","kemia","f","2","html-keyboard-response","160","f","kemia","true","",""
"2667.9000000003725","","","","","2","html-slider-response","161","","","","5",""
"4316","shoulder","kelele,mkuu,ndaniya,guruwe","mkuu","v","2","html-keyboard-response","162","j","ndaniya","false","",""
"2387.9000000003725","","","","","2","html-slider-response","163","","","","5",""
"5468","park","bunifu,tambok,pwani,ihalas","bunifu","f","2","html-keyboard-response","164","v","tambok","false","",""
"3129.199999999255","","","","","2","html-slider-response","165","","","","5",""
"2902","number","shule,kengele,mundamo,choori","mundamo","j","2","html-keyboard-response","166","j","mundamo","true","",""
"2360.199999999255","","","","","2","html-slider-response","167","","","","5",""
"3681","apple","ukame,estante,edad,kisu","kisu","n","2","html-keyboard-response","168","n","kisu","true","",""
"2580","","","","","2","html-slider-response","169","","","","5",""
"2045","letter","filimbi,chuma,uhuru,kifua","kifua","n","2","html-keyboard-response","170","f","filimbi","false","",""
"3096.5","","","","","2","html-slider-response","171","","","","5",""
"5076","eel","ishara,msumari,kunywa,kabuang","msumari","v","2","html-keyboard-response","172","v","msumari","true","",""
"3439","","","","","2","html-slider-response","173","","","","4",""
"3154","cop","bustani,mechezo,jikoni,bakus","mechezo","v","2","html-keyboard-response","174","n","bakus","false","",""
"2466.300000000745","","","","","2","html-slider-response","175","","","","4",""
"1614","wolf","kaburi,lugha,ndizi,mchuzi","lugha","v","2","html-keyboard-response","176","f","kaburi","false","",""
"2641.199999999255","","","","","2","html-slider-response","177","","","","4",""
"5037","squirrel","mahugaw,ukweli,hofu,kichwa","hofu","j","2","html-keyboard-response","178","n","kichwa","false","",""
"2677.39999999851","","","","","2","html-slider-response","179","","","","4",""
"2066","nose","gubat,sehemu,kopa,kidole","sehemu","v","2","html-keyboard-response","180","v","sehemu","true","",""
"2925.7999999970198","","","","","2","html-slider-response","181","","","","2",""
"3424","sock","mamba,ndoora,kimysa,mtirka","mamba","f","2","html-keyboard-response","182","v","ndoora","false","",""
"2538.89999999851","","","","","2","html-slider-response","183","","","","5",""
"2619","bank","kudhibi,silingan,tualya,ofisi","silingan","v","2","html-keyboard-response","184","v","silingan","true","",""
"2584.5","","","","","2","html-slider-response","185","","","","4",""
"4632","donkey","elfu,bloke,lalake,rombus","elfu","f","2","html-keyboard-response","186","j","lalake","false","",""
"4090.400000002235","","","","","2","html-slider-response","187","","","","4",""
"3614","poster","nchi,madungog,fedha,kasuko","madungog","v","2","html-keyboard-response","188","v","madungog","true","",""
"2641.89999999851","","","","","2","html-slider-response","189","","","","4",""
"3484","puppet","mazishi,napulo,lamok,godoro","mazishi","f","2","html-keyboard-response","190","v","napulo","false","",""
"3692.400000002235","","","","","2","html-slider-response","191","","","","4",""
"5497","hill","kushoto,matumbo,kukimba,sweta","matumbo","v","2","html-keyboard-response","192","n","sweta","false","",""
"6896.29999999702","","","","","2","html-slider-response","193","","","","3",""
"2033","tooth","kijiko,kabalaka,uadui,pahiyum","kabalaka","v","2","html-keyboard-response","194","v","kabalaka","true","",""
"2704","","","","","2","html-slider-response","195","","","","4",""
"9002","woman","bandari,bituin,kovuli,pagtabon","pagtabon","n","2","html-keyboard-response","196","f","bandari","false","",""
"2787.7999999970198","","","","","2","html-slider-response","197","","","","4",""
"3804","wheel","punda,tawo,baadaye,bafuni","bafuni","n","2","html-keyboard-response","198","f","punda","false","",""
"2289.900000002235","","","","","2","html-slider-response","199","","","","4",""
"3911","mother","kahawa,mbuzi,jokofu,babaye","babaye","n","2","html-keyboard-response","200","n","babaye","true","",""
"2402.60000000149","","","","","2","html-slider-response","201","","","","5",""
"49220","bed","kalipay,haraka,mapintas,starehe","mapintas","j","2","html-keyboard-response","202","f","kalipay","false","",""
"3428.60000000149","","","","","2","html-slider-response","203","","","","4",""
"1573","key","miaka,goma,chombo,ahos","chombo","j","2","html-keyboard-response","204","v","goma","false","",""
"2395.300000000745","","","","","2","html-slider-response","205","","","","5",""
"1526","page","wakala,wimbo,ishiri,skina","wimbo","v","2","html-keyboard-response","206","f","wakala","false","",""
"2455.800000000745","","","","","2","html-slider-response","207","","","","5",""
"2070","pants","pintal,chuki,haki,hari","haki","j","2","html-keyboard-response","208","f","pintal","false","",""
"2593.39999999851","","","","","2","html-slider-response","209","","","","4",""
"1923","sun","bendi,basi,luha,uongo","basi","v","2","html-keyboard-response","210","v","basi","true","",""
"2324.800000000745","","","","","2","html-slider-response","211","","","","4",""
"2765","finger","simu,moyo,sufuria,lima","moyo","v","2","html-keyboard-response","212","n","lima","false","",""
"2554.5","","","","","2","html-slider-response","213","","","","4",""
"3021","shoe","uyoga,nyeusi,hatua,kama","uyoga","f","2","html-keyboard-response","214","j","hatua","false","",""
"3184.5","","","","","2","html-slider-response","215","","","","4",""
"5449","giraffe","daraja,mahitabo,jumatu,hangyo","mahitabo","v","2","html-keyboard-response","216","v","mahitabo","true","",""
"10468.800000000745","","","","","2","html-slider-response","217","","","","2",""
"2544","dog","lubi,washia,bahari,kalamu","bahari","j","2","html-keyboard-response","218","n","kalamu","false","",""
"2538.5","","","","","2","html-slider-response","219","","","","1",""
"4901","box","kuacha,rafiki,adui,kitande","adui","j","2","html-keyboard-response","220","f","kuacha","false","",""
"2308.599999997765","","","","","2","html-slider-response","221","","","","4",""
"1920","scissors","tanuri,duga,mtawa,suga","tanuri","f","2","html-keyboard-response","222","v","duga","false","",""
"2311.60000000149","","","","","2","html-slider-response","223","","","","4",""
"3478","cat","neyemba,baki,akili,paghukom","paghukom","n","2","html-keyboard-response","224","v","baki","false","",""
"2857.300000000745","","","","","2","html-slider-response","225","","","","4",""
"2781","basket","kumba,kumbuka,utepe,hasira","kumba","f","2","html-keyboard-response","226","f","kumba","true","",""
"2677","","","","","2","html-slider-response","227","","","","4",""
"6956","snake","pagtukod,jansa,karon,mvringo","pagtukod","f","2","html-keyboard-response","228","j","karon","false","",""
"3241.2000000029802","","","","","2","html-slider-response","229","","","","4",""
"6337","gift","pagtawag,baba,nyange,baso","pagtawag","f","2","html-keyboard-response","230","f","pagtawag","true","",""
"2540.60000000149","","","","","2","html-slider-response","231","","","","5",""
"7406","train","itik,dakika,mungu,sayari","sayari","n","2","html-keyboard-response","232","j","mungu","false","",""
"2659.800000000745","","","","","2","html-slider-response","233","","","","4",""
"6958","pudding","abug,aibu,mpishi,iring","aibu","v","2","html-keyboard-response","234","j","mpishi","false","",""
"2395.300000000745","","","","","2","html-slider-response","235","","","","4",""
"3630","tomato","chupi,chupa,takatak,mvua","mvua","n","2","html-keyboard-response","236","v","chupa","false","",""
"2354.800000000745","","","","","2","html-slider-response","237","","","","4",""
"3584","stone","ulimwengu,wingi,mkasi,asili","wingi","v","2","html-keyboard-response","238","n","asili","false","",""
"2335.300000000745","","","","","2","html-slider-response","239","","","","4",""
"10792","hammer","mekno,kitovu,napakyas,layag","napakyas","j","2","html-keyboard-response","240","v","kitovu","false","",""
"3135.5","","","","","2","html-slider-response","241","","","","4",""
"3887","knee","duka,mvuke,kubale,bili","duka","f","2","html-keyboard-response","242","f","duka","true","",""
"2222.900000002235","","","","","2","html-slider-response","243","","","","4",""
"2750","ceiling","maua,kugita,kawaida,rayna","maua","f","2","html-keyboard-response","244","j","kawaida","false","",""
"2265.7000000029802","","","","","2","html-slider-response","245","","","","4",""
"2201","spoon","betri,pagsulod,nzuri,ngazi","pagsulod","v","2","html-keyboard-response","246","n","ngazi","false","",""
"2776.10000000149","","","","","2","html-slider-response","247","","","","4",""
"4565","marker","mapafu,salita,maji,atay","maji","j","2","html-keyboard-response","248","j","maji","true","",""
"2596.5","","","","","2","html-slider-response","249","","","","5",""
"30942","candle","gabi,farasi,kupanda,geza","geza","n","2","html-keyboard-response","250","f","gabi","false","",""
"2487.89999999851","","","","","2","html-slider-response","251","","","","4",""
"1657","tissue","lamigas,kisiwa,ugomvi,katika","ugomvi","j","2","html-keyboard-response","252","v","kisiwa","false","",""
"2154.400000002235","","","","","2","html-slider-response","253","","","","5",""
"3635","bridge","daima,ngono,panya,sahani","sahani","n","2","html-keyboard-response","254","j","panya","false","",""
"2408.5","","","","","2","html-slider-response","255","","","","5",""
"9588","berry","abogado,kofia,nogozi,kinywa","kofia","v","2","html-keyboard-response","256","f","abogado","false","",""
"2348.5","","","","","2","html-slider-response","257","","","","4",""
"6606","triangle","kasadpan,kihozi,bentaha,liog","kasadpan","f","2","html-keyboard-response","258","v","kihozi","false","",""
"2182.699999999255","","","","","2","html-slider-response","259","","","","4",""
"2250","door","surali,tena,soko,nyota","surali","f","2","html-keyboard-response","260","n","nyota","false","",""
"3222.300000000745","","","","","2","html-slider-response","261","","","","5",""
"5673","fish","bala,buli,baho,imani","buli","v","2","html-keyboard-response","262","f","bala","false","",""
"2646.10000000149","","","","","2","html-slider-response","263","","","","5",""
"2916","curtain","lisud,bulwawan,chubani,mchanga","mchanga","n","2","html-keyboard-response","264","n","mchanga","true","",""
"2325.199999999255","","","","","2","html-slider-response","265","","","","4",""
"10063","flag","ndege,mkate,trekta,kawa","trekta","j","2","html-keyboard-response","266","f","ndege","false","",""
"2492.699999999255","","","","","2","html-slider-response","267","","","","4",""
"3589","boat","hamsi,agalon,pombe,kitanda","agalon","v","2","html-keyboard-response","268","n","kitanda","false","",""
"4768.60000000149","","","","","2","html-slider-response","269","","","","2",""
"8571","rose","singizi,mwanake,paghalad,amani","paghalad","j","2","html-keyboard-response","270","f","singizi","false","",""
"2334.39999999851","","","","","2","html-slider-response","271","","","","4",""
"4237","lamp","daub,bilaska,afya,mbolea","afya","j","2","html-keyboard-response","272","v","bilaska","false","",""
"2471","","","","","2","html-slider-response","273","","","","4",""
"2406","cigar","ndugu,kuta,mlango,adhabu","adhabu","n","2","html-keyboard-response","274","v","kuta","false","",""
"3346.699999999255","","","","","2","html-slider-response","275","","","","4",""
"2462","list","alizeti,kuzama,wingu,kaso","wingu","j","2","html-keyboard-response","276","n","kaso","false","",""
"3598.5","","","","","2","html-slider-response","277","","","","5",""
"4599","sheet","juuya,watu,bililhon,kamantis","bililhon","j","2","html-keyboard-response","278","j","bililhon","true","",""
"2481.10000000149","","","","","2","html-slider-response","279","","","","4",""
"4646","picture","kubwa,silya,chaki,asin","kubwa","f","2","html-keyboard-response","280","f","kubwa","true","",""
"2623.599999997765","","","","","2","html-slider-response","281","","","","4",""
"4677","towel","tembo,pagpalit,funzi,pito","pagpalit","v","2","html-keyboard-response","282","f","tembo","false","",""
"3755.5","","","","","2","html-slider-response","283","","","","4",""
"2337","window","nanga,kweli,kujenga,umaga","kweli","v","2","html-keyboard-response","284","j","kujenga","false","",""
"2544.60000000149","","","","","2","html-slider-response","285","","","","4",""
"3744","box","adui,kuacha,rafiki,kitande","adui","f","3","html-keyboard-response","293","f","adui","true","","4"
"2904.400000002235","","","","","3","html-slider-response","294","","","","2",""
"1709","","","","","3","html-keyboard-response","295","","","","",""
"2779","pants","pintal,haki,chuki,hari","haki","v","3","html-keyboard-response","296","f","pintal","false","","4"
"3542","","","","","3","html-slider-response","297","","","","3",""
"2723","","","","","3","html-keyboard-response","298","","","","",""
"5072","cup","dagat,matumai,shimoni,jeraha","matumai","v","3","html-keyboard-response","299","j","shimoni","false","","4"
"3786.800000000745","","","","","3","html-slider-response","300","","","","2",""
"3295","","","","","3","html-keyboard-response","301","","","","",""
"2189","triangle","kihozi,bentaha,liog,kasadpan","kasadpan","n","3","html-keyboard-response","302","f","kihozi","false","","4"
"2220.099999997765","","","","","3","html-slider-response","303","","","","4",""
"1489","","","","","3","html-keyboard-response","304","","","","",""
"2462","curtain","lisud,bulwawan,chubani,mchanga","mchanga","n","3","html-keyboard-response","305","j","chubani","false","","4"
"2404.89999999851","","","","","3","html-slider-response","306","","","","4",""
"1580","","","","","3","html-keyboard-response","307","","","","",""
"3741","clock","kartasi,abang,mbwa,osha","mbwa","j","3","html-keyboard-response","308","j","mbwa","true","","4"
"2546.199999999255","","","","","3","html-slider-response","309","","","","5",""
"8872","","","","","3","html-keyboard-response","310","","","","",""
"4185","mirror","rangi,kanding,sulagma,furaha","sulagma","j","3","html-keyboard-response","311","n","furaha","false","","4"
"2260.300000000745","","","","","3","html-slider-response","312","","","","4",""
"1477","","","","","3","html-keyboard-response","313","","","","",""
"1773","coffin","kioo,barua,tubag,hulma","kioo","f","3","html-keyboard-response","314","f","kioo","true","","1"
"2830.10000000149","","","","","3","html-slider-response","315","","","","4",""
"957","","","","","3","html-keyboard-response","316","","","","",""
"2021","magazine","gundi,kiti,mchawi,bahandi","kiti","v","3","html-keyboard-response","317","j","mchawi","false","","4"
"3336.099999997765","","","","","3","html-slider-response","318","","","","4",""
"1045","","","","","3","html-keyboard-response","319","","","","",""
"3829","column","ufagio,pundok,dila,pala","ufagio","f","3","html-keyboard-response","320","f","ufagio","true","","1"
"2682.2999999970198","","","","","3","html-slider-response","321","","","","5",""
"1269","","","","","3","html-keyboard-response","322","","","","",""
"3095","number","shule,kengele,mundamo,choori","mundamo","j","3","html-keyboard-response","323","j","mundamo","true","","4"
"3054.400000002235","","","","","3","html-slider-response","324","","","","5",""
"955","","","","","3","html-keyboard-response","325","","","","",""
"2521","rose","singizi,mwanake,amani,paghalad","paghalad","n","3","html-keyboard-response","326","j","amani","false","","4"
"2303.199999999255","","","","","3","html-slider-response","327","","","","5",""
"1047","","","","","3","html-keyboard-response","328","","","","",""
"4482","eel","msumari,ishara,kunywa,kabuang","msumari","f","3","html-keyboard-response","329","f","msumari","true","","4"
"2250.599999997765","","","","","3","html-slider-response","330","","","","4",""
"724","","","","","3","html-keyboard-response","331","","","","",""
"3854","gift","baba,nyange,baso,pagtawag","pagtawag","n","3","html-keyboard-response","332","n","pagtawag","true","","4"
"2334.400000002235","","","","","3","html-slider-response","333","","","","5",""
"679","","","","","3","html-keyboard-response","334","","","","",""
"1490","apple","ukame,kisu,estante,edad","kisu","v","3","html-keyboard-response","335","v","kisu","true","","1"
"2207.5","","","","","3","html-slider-response","336","","","","5",""
"1882","","","","","3","html-keyboard-response","337","","","","",""
"1733","wheel","bafuni,punda,tawo,baadaye","bafuni","f","3","html-keyboard-response","338","f","bafuni","true","","1"
"2381.199999999255","","","","","3","html-slider-response","339","","","","5",""
"758","","","","","3","html-keyboard-response","340","","","","",""
"4018","knee","mvuke,kubale,duka,bili","duka","j","3","html-keyboard-response","341","f","mvuke","false","","4"
"2344.60000000149","","","","","3","html-slider-response","342","","","","5",""
"10392","","","","","3","html-keyboard-response","343","","","","",""
"1296","basket","kumba,kumbuka,utepe,hasira","kumba","f","3","html-keyboard-response","344","f","kumba","true","","1"
"2777.10000000149","","","","","3","html-slider-response","345","","","","5",""
"584","","","","","3","html-keyboard-response","346","","","","",""
"3661","park","bunifu,tambok,pwani,ihalas","bunifu","f","3","html-keyboard-response","347","j","pwani","false","","4"
"2810.300000000745","","","","","3","html-slider-response","348","","","","4",""
"1889","","","","","3","html-keyboard-response","349","","","","",""
"8695","finger","simu,sufuria,moyo,lima","moyo","j","3","html-keyboard-response","350","n","lima","false","","4"
"2528.60000000149","","","","","3","html-slider-response","351","","","","4",""
"972","","","","","3","html-keyboard-response","352","","","","",""
"7463","boat","hamsi,pombe,agalon,kitanda","agalon","j","3","html-keyboard-response","353","n","kitanda","false","","4"
"2464.400000002235","","","","","3","html-slider-response","354","","","","4",""
"808","","","","","3","html-keyboard-response","355","","","","",""
"3109","hill","kushoto,matumbo,kukimba,sweta","matumbo","v","3","html-keyboard-response","356","n","sweta","false","","4"
"2346.2000000029802","","","","","3","html-slider-response","357","","","","4",""
"619","","","","","3","html-keyboard-response","358","","","","",""
"2352","train","itik,dakika,sayari,mungu","sayari","j","3","html-keyboard-response","359","f","itik","false","","4"
"2409.39999999851","","","","","3","html-slider-response","360","","","","5",""
"690","","","","","3","html-keyboard-response","361","","","","",""
"3240","wolf","kaburi,lugha,ndizi,mchuzi","lugha","v","3","html-keyboard-response","362","n","mchuzi","false","","4"
"2999.699999999255","","","","","3","html-slider-response","363","","","","5",""
"1229","","","","","3","html-keyboard-response","364","","","","",""
"3849","snake","jansa,karon,mvringo,pagtukod","pagtukod","n","3","html-keyboard-response","365","j","mvringo","false","","4"
"3426.2000000029802","","","","","3","html-slider-response","366","","","","4",""
"662","","","","","3","html-keyboard-response","367","","","","",""
"2631","tooth","kabalaka,kijiko,uadui,pahiyum","kabalaka","f","3","html-keyboard-response","368","f","kabalaka","true","","4"
"2563.400000002235","","","","","3","html-slider-response","369","","","","5",""
"843","","","","","3","html-keyboard-response","370","","","","",""
"29539","notebook","msitu,kila,mdudu,kemia","kemia","n","3","html-keyboard-response","371","n","kemia","true","","4"
"2451","","","","","3","html-slider-response","372","","","","5",""
"9724","","","","","3","html-keyboard-response","373","","","","",""
"3055","flag","trekta,ndege,mkate,kawa","trekta","f","3","html-keyboard-response","374","n","kawa","false","","4"
"2381.199999999255","","","","","3","html-slider-response","375","","","","5",""
"652","","","","","3","html-keyboard-response","376","","","","",""
"3710","squirrel","mahugaw,ukweli,hofu,kichwa","hofu","j","3","html-keyboard-response","377","f","mahugaw","false","","4"
"2314.099999997765","","","","","3","html-slider-response","378","","","","4",""
"750","","","","","3","html-keyboard-response","379","","","","",""
"2442","door","tena,surali,soko,nyota","surali","v","3","html-keyboard-response","380","n","nyota","false","","4"
"2943.60000000149","","","","","3","html-slider-response","381","","","","4",""
"3197","","","","","3","html-keyboard-response","382","","","","",""
"2486","salmon","mzungu,seri,sensilyo,baharia","sensilyo","j","3","html-keyboard-response","383","v","seri","false","","4"
"6678.300000000745","","","","","3","html-slider-response","384","","","","4",""
"716","","","","","3","html-keyboard-response","385","","","","",""
"1763","shoulder","kelele,mkuu,ndaniya,guruwe","mkuu","v","3","html-keyboard-response","386","f","kelele","false","","4"
"2994.39999999851","","","","","3","html-slider-response","387","","","","4",""
"5649","","","","","3","html-keyboard-response","388","","","","",""
"4032","lamp","daub,bilaska,afya,mbolea","afya","j","3","html-keyboard-response","389","v","bilaska","false","","4"
"2386.900000002235","","","","","3","html-slider-response","390","","","","4",""
"995","","","","","3","html-keyboard-response","391","","","","",""
"1420","shelf","bungtod,pamahaw,kadaot,awit","pamahaw","v","3","html-keyboard-response","392","v","pamahaw","true","","1"
"2581.7000000029802","","","","","3","html-slider-response","393","","","","5",""
"616","","","","","3","html-keyboard-response","394","","","","",""
"3224","human","bado,kikapu,punguza,tinapay","tinapay","n","3","html-keyboard-response","395","v","kikapu","false","","4"
"4421.900000002235","","","","","3","html-slider-response","396","","","","2",""
"648","","","","","3","html-keyboard-response","397","","","","",""
"2517","towel","tembo,funzi,pagpalit,pito","pagpalit","j","3","html-keyboard-response","398","n","pito","false","","4"
"2622.2000000029802","","","","","3","html-slider-response","399","","","","4",""
"664","","","","","3","html-keyboard-response","400","","","","",""
"2778","cat","neyemba,baki,paghukom,akili","paghukom","j","3","html-keyboard-response","401","n","akili","false","","4"
"2438.5","","","","","3","html-slider-response","402","","","","4",""
"833","","","","","3","html-keyboard-response","403","","","","",""
"2695","spider","bunyag,mkboa,kamwe,atop","kamwe","j","3","html-keyboard-response","404","j","kamwe","true","","4"
"2709.199999999255","","","","","3","html-slider-response","405","","","","4",""
"835","","","","","3","html-keyboard-response","406","","","","",""
"2457","window","nanga,kujenga,kweli,umaga","kweli","j","3","html-keyboard-response","407","f","nanga","false","","4"
"2421.10000000149","","","","","3","html-slider-response","408","","","","4",""
"698","","","","","3","html-keyboard-response","409","","","","",""
"1377","woman","bandari,bituin,kovuli,pagtabon","pagtabon","n","3","html-keyboard-response","410","n","pagtabon","true","","1"
"2539.7000000029802","","","","","3","html-slider-response","411","","","","5",""
"627","","","","","3","html-keyboard-response","412","","","","",""
"2610","giraffe","daraja,jumatu,mahitabo,hangyo","mahitabo","j","3","html-keyboard-response","413","j","mahitabo","true","","4"
"2140.39999999851","","","","","3","html-slider-response","414","","","","4",""
"606","","","","","3","html-keyboard-response","415","","","","",""
"4567","elephant","petye,kito,pagduol,suka","kito","v","3","html-keyboard-response","416","v","kito","true","","4"
"2324","","","","","3","html-slider-response","417","","","","4",""
"558","","","","","3","html-keyboard-response","418","","","","",""
"2441","cave","ganti,maisha,nyundo,kesho","kesho","n","3","html-keyboard-response","419","f","ganti","false","","4"
"2264.5","","","","","3","html-slider-response","420","","","","4",""
"413","","","","","3","html-keyboard-response","421","","","","",""
"3777","bread","kaili,dari,dizeli,bugas","dari","v","3","html-keyboard-response","422","j","dizeli","false","","4"
"2717.39999999851","","","","","3","html-slider-response","423","","","","4",""
"931","","","","","3","html-keyboard-response","424","","","","",""
"3973","stone","ulimwengu,mkasi,wingi,asili","wingi","j","3","html-keyboard-response","425","f","ulimwengu","false","","4"
"2492.89999999851","","","","","3","html-slider-response","426","","","","4",""
"902","","","","","3","html-keyboard-response","427","","","","",""
"4869","donkey","bloke,lalake,elfu,rombus","elfu","j","3","html-keyboard-response","428","v","lalake","false","","4"
"2229.699999999255","","","","","3","html-slider-response","429","","","","4",""
"2084","","","","","3","html-keyboard-response","430","","","","",""
"2611","bridge","daima,sahani,ngono,panya","sahani","v","3","html-keyboard-response","431","n","panya","false","","4"
"2193","","","","","3","html-slider-response","432","","","","5",""
"503","","","","","3","html-keyboard-response","433","","","","",""
"1773","bonfire","mwezi,goti,mfuko,kusanya","goti","v","3","html-keyboard-response","434","v","goti","true","","4"
"2516.89999999851","","","","","3","html-slider-response","435","","","","4",""
"9192","","","","","3","html-keyboard-response","436","","","","",""
"1921","book","kuhesa,picha,mara,mali","mali","n","3","html-keyboard-response","437","j","mara","false","","4"
"3157.5","","","","","3","html-slider-response","438","","","","4",""
"467","","","","","3","html-keyboard-response","439","","","","",""
"5574","fish","bala,buli,baho,imani","buli","v","3","html-keyboard-response","440","f","bala","false","","4"
"2842.400000002235","","","","","3","html-slider-response","441","","","","4",""
"1323","","","","","3","html-keyboard-response","442","","","","",""
"5118","spoon","betri,pagsulod,nzuri,ngazi","pagsulod","v","3","html-keyboard-response","443","n","ngazi","false","","4"
"2277.900000002235","","","","","3","html-slider-response","444","","","","4",""
"518","","","","","3","html-keyboard-response","445","","","","",""
"2016","scissors","tanuri,duga,mtawa,suga","tanuri","f","3","html-keyboard-response","446","v","duga","false","","4"
"2319.10000000149","","","","","3","html-slider-response","447","","","","4",""
"488","","","","","3","html-keyboard-response","448","","","","",""
"3362","page","wakala,ishiri,wimbo,skina","wimbo","j","3","html-keyboard-response","449","v","ishiri","false","","4"
"2540.800000000745","","","","","3","html-slider-response","450","","","","4",""
"439","","","","","3","html-keyboard-response","451","","","","",""
"1640","nose","gubat,kopa,sehemu,kidole","sehemu","j","3","html-keyboard-response","452","j","sehemu","true","","1"
"2335","","","","","3","html-slider-response","453","","","","5",""
"584","","","","","3","html-keyboard-response","454","","","","",""
"2471","ceiling","kugita,kawaida,maua,rayna","maua","j","3","html-keyboard-response","455","j","maua","true","","4"
"2523.199999999255","","","","","3","html-slider-response","456","","","","4",""
"1076","","","","","3","html-keyboard-response","457","","","","",""
"4156","bucket","baga,ijayo,kiatu,init","kiatu","j","3","html-keyboard-response","458","n","init","false","","4"
"2027.300000000745","","","","","3","html-slider-response","459","","","","5",""
"709","","","","","3","html-keyboard-response","460","","","","",""
"1535","berry","abogado,nogozi,kofia,kinywa","kofia","j","3","html-keyboard-response","461","j","kofia","true","","1"
"2488.900000002235","","","","","3","html-slider-response","462","","","","5",""
"625","","","","","3","html-keyboard-response","463","","","","",""
"1238","mother","kahawa,mbuzi,jokofu,babaye","babaye","n","3","html-keyboard-response","464","n","babaye","true","","1"
"2384.800000000745","","","","","3","html-slider-response","465","","","","5",""
"564","","","","","3","html-keyboard-response","466","","","","",""
"5068","mosquito","martilyo,isda,taras,gutom","martilyo","f","3","html-keyboard-response","467","v","isda","false","","4"
"2321.5","","","","","3","html-slider-response","468","","","","4",""
"812","","","","","3","html-keyboard-response","469","","","","",""
"5845","perfume","bino,sungura,katuyoan,ndogo","katuyoan","j","3","html-keyboard-response","470","v","sungura","false","","4"
"2145.60000000149","","","","","3","html-slider-response","471","","","","4",""
"553","","","","","3","html-keyboard-response","472","","","","",""
"2060","sheet","juuya,watu,kamantis,bililhon","bililhon","n","3","html-keyboard-response","473","f","juuya","false","","4"
"3361.300000000745","","","","","3","html-slider-response","474","","","","4",""
"560","","","","","3","html-keyboard-response","475","","","","",""
"5802","puppet","napulo,lamok,godoro,mazishi","mazishi","n","3","html-keyboard-response","476","n","mazishi","true","","1"
"3024.5","","","","","3","html-slider-response","477","","","","5",""
"4622","","","","","3","html-keyboard-response","478","","","","",""
"2229","poster","nchi,madungog,fedha,kasuko","madungog","v","3","html-keyboard-response","479","j","fedha","false","","4"
"3003.2000000029802","","","","","3","html-slider-response","480","","","","4",""
"487","","","","","3","html-keyboard-response","481","","","","",""
"3607","music","mraba,baiski,mageho,tumbo","baiski","v","3","html-keyboard-response","482","j","mageho","false","","4"
"2261.900000002235","","","","","3","html-slider-response","483","","","","4",""
"555","","","","","3","html-keyboard-response","484","","","","",""
"3472","key","miaka,goma,ahos,chombo","chombo","n","3","html-keyboard-response","485","n","chombo","true","","4"
"2551.400000002235","","","","","3","html-slider-response","486","","","","4",""
"602","","","","","3","html-keyboard-response","487","","","","",""
"1971","sock","mamba,ndoora,kimysa,mtirka","mamba","f","3","html-keyboard-response","488","f","mamba","true","","4"
"2299","","","","","3","html-slider-response","489","","","","5",""
"528","","","","","3","html-keyboard-response","490","","","","",""
"2392","marker","maji,mapafu,salita,atay","maji","f","3","html-keyboard-response","491","f","maji","true","","4"
"2623","","","","","3","html-slider-response","492","","","","4",""
"733","","","","","3","html-keyboard-response","493","","","","",""
"2883","office","hazini,leso,yatima,kuna","leso","v","3","html-keyboard-response","494","v","leso","true","","4"
"2844.60000000149","","","","","3","html-slider-response","495","","","","4",""
"512","","","","","3","html-keyboard-response","496","","","","",""
"7272","shoe","nyeusi,hatua,kama,uyoga","uyoga","n","3","html-keyboard-response","497","v","hatua","false","","4"
"2395.699999999255","","","","","3","html-slider-response","498","","","","5",""
"564","","","","","3","html-keyboard-response","499","","","","",""
"2031","cop","bustani,jikoni,mechezo,bakus","mechezo","j","3","html-keyboard-response","500","n","bakus","false","","4"
"4064.89999999851","","","","","3","html-slider-response","501","","","","5",""
"525","","","","","3","html-keyboard-response","502","","","","",""
"3819","bank","kudhibi,tualya,silingan,ofisi","silingan","j","3","html-keyboard-response","503","j","silingan","true","","4"
"2125","","","","","3","html-slider-response","504","","","","5",""
"657","","","","","3","html-keyboard-response","505","","","","",""
"1198","letter","filimbi,kifua,chuma,uhuru","kifua","v","3","html-keyboard-response","506","v","kifua","true","","1"
"2428.199999999255","","","","","3","html-slider-response","507","","","","5",""
"661","","","","","3","html-keyboard-response","508","","","","",""
"1055","dog","lubi,bahari,washia,kalamu","bahari","v","3","html-keyboard-response","509","v","bahari","true","","1"
"2481.300000000745","","","","","3","html-slider-response","510","","","","5",""
"10021","","","","","3","html-keyboard-response","511","","","","",""
"1684","shop","samaki,nopya,kerida,ndezu","samaki","f","3","html-keyboard-response","512","f","samaki","true","","4"
"2504.5","","","","","3","html-slider-response","513","","","","5",""
"827","","","","","3","html-keyboard-response","514","","","","",""
"4924","flower","tamasha,lobo,usiku,bega","bega","n","3","html-keyboard-response","515","j","usiku","false","","4"
"2338.5","","","","","3","html-slider-response","516","","","","5",""
"636","","","","","3","html-keyboard-response","517","","","","",""
"1406","cigar","ndugu,kuta,adhabu,mlango","adhabu","j","3","html-keyboard-response","518","j","adhabu","true","","1"
"2989.10000000149","","","","","3","html-slider-response","519","","","","5",""
"3652","","","","","3","html-keyboard-response","520","","","","",""
"3513","hammer","mekno,napakyas,kitovu,layag","napakyas","v","3","html-keyboard-response","521","v","napakyas","true","","4"
"2687.300000000745","","","","","3","html-slider-response","522","","","","5",""
"579","","","","","3","html-keyboard-response","523","","","","",""
"3670","fork","baboy,paghago,mgonjwa,gorisi","mgonjwa","j","3","html-keyboard-response","524","f","baboy","false","","4"
"2391.10000000149","","","","","3","html-slider-response","525","","","","5",""
"455","","","","","3","html-keyboard-response","526","","","","",""
"1301","sun","basi,bendi,luha,uongo","basi","f","3","html-keyboard-response","527","f","basi","true","","1"
"2522.5","","","","","3","html-slider-response","528","","","","5",""
"640","","","","","3","html-keyboard-response","529","","","","",""
"2803","ladder","mashua,mwanga,kamba,pangalan","pangalan","n","3","html-keyboard-response","530","n","pangalan","true","","4"
"2732.800000000745","","","","","3","html-slider-response","531","","","","5",""
"598","","","","","3","html-keyboard-response","532","","","","",""
"1283","banana","kasamok,hagdan,twai,kazi","kazi","n","3","html-keyboard-response","533","n","kazi","true","","1"
"5090.900000002235","","","","","3","html-slider-response","534","","","","5",""
"830","","","","","3","html-keyboard-response","535","","","","",""
"3611","pudding","aibu,abug,mpishi,iring","aibu","f","3","html-keyboard-response","536","f","aibu","true","","4"
"2229.599999997765","","","","","3","html-slider-response","537","","","","5",""
"559","","","","","3","html-keyboard-response","538","","","","",""
"2496","body","tindashan,nyundu,jibini,kununa","tindashan","f","3","html-keyboard-response","539","j","jibini","false","","4"
"2392.800000000745","","","","","3","html-slider-response","540","","","","5",""
"632","","","","","3","html-keyboard-response","541","","","","",""
"2372","bed","mapintas,kalipay,haraka,starehe","mapintas","f","3","html-keyboard-response","542","v","kalipay","false","","4"
"3149.7000000029802","","","","","3","html-slider-response","543","","","","5",""
"728","","","","","3","html-keyboard-response","544","","","","",""
"3385","tissue","ugomvi,lamigas,kisiwa,katika","ugomvi","f","3","html-keyboard-response","545","n","katika","false","","4"
"2364.5","","","","","3","html-slider-response","546","","","","5",""
"566","","","","","3","html-keyboard-response","547","","","","",""
"2338","candle","geza,gabi,farasi,kupanda","geza","f","3","html-keyboard-response","548","n","kupanda","false","","4"
"4306.5","","","","","3","html-slider-response","549","","","","4",""
"675","","","","","3","html-keyboard-response","550","","","","",""
"1169","tomato","chupi,chupa,mvua,takatak","mvua","j","3","html-keyboard-response","551","j","mvua","true","","1"
"2965.7999999970198","","","","","3","html-slider-response","552","","","","5",""
"733","","","","","3","html-keyboard-response","553","","","","",""
"4349","list","alizeti,wingu,kuzama,kaso","wingu","v","3","html-keyboard-response","554","n","kaso","false","","4"
"2338.400000002235","","","","","3","html-slider-response","555","","","","5",""
"508","","","","","3","html-keyboard-response","556","","","","",""
"3860","olive","bata,siagi,welder,jiwe","jiwe","n","3","html-keyboard-response","557","f","bata","false","","4"
"3190.5","","","","","3","html-slider-response","558","","","","4",""
"558","","","","","3","html-keyboard-response","559","","","","",""
"1242","picture","silya,chaki,kubwa,asin","kubwa","j","3","html-keyboard-response","560","j","kubwa","true","","1"
"3356","","","","","3","html-slider-response","561","","","","5",""
"813","","","","","3","html-keyboard-response","562","","","","",""
"5095","page","wakala,ishiri,wimbo,skina","wimbo","j","4","html-keyboard-response","888","j","wimbo","true","",""
"2413.199999999255","","","","","4","html-slider-response","889","","","","4",""
"2730","sheet","juuya,watu,bililhon,kamantis","bililhon","j","4","html-keyboard-response","890","f","juuya","false","",""
"2143.699999999255","","","","","4","html-slider-response","891","","","","4",""
"2997","ladder","mashua,pangalan,mwanga,kamba","pangalan","v","4","html-keyboard-response","892","j","mwanga","false","",""
"2729.599999997765","","","","","4","html-slider-response","893","","","","5",""
"2539","door","tena,soko,nyota,surali","surali","n","4","html-keyboard-response","894","j","nyota","false","",""
"2464.89999999851","","","","","4","html-slider-response","895","","","","4",""
"2863","spider","bunyag,mkboa,atop,kamwe","kamwe","n","4","html-keyboard-response","896","j","atop","false","",""
"5169.300000000745","","","","","4","html-slider-response","897","","","","4",""
"5182","picture","silya,chaki,asin,kubwa","kubwa","n","4","html-keyboard-response","898","v","chaki","false","",""
"2152.10000000149","","","","","4","html-slider-response","899","","","","4",""
"2432","boat","agalon,hamsi,pombe,kitanda","agalon","f","4","html-keyboard-response","900","v","hamsi","false","",""
"12242.300000000745","","","","","4","html-slider-response","901","","","","4",""
"10717","donkey","bloke,lalake,rombus,elfu","elfu","n","4","html-keyboard-response","902","v","lalake","false","",""
"2466.300000000745","","","","","4","html-slider-response","903","","","","2",""
"3128","book","kuhesa,picha,mara,mali","mali","n","4","html-keyboard-response","904","n","mali","true","",""
"2555.800000000745","","","","","4","html-slider-response","905","","","","4",""
"2202","cup","matumai,dagat,shimoni,jeraha","matumai","f","4","html-keyboard-response","906","n","jeraha","false","",""
"3131.60000000149","","","","","4","html-slider-response","907","","","","3",""
"3117","sun","basi,bendi,luha,uongo","basi","f","4","html-keyboard-response","908","f","basi","true","",""
"2868.699999999255","","","","","4","html-slider-response","909","","","","4",""
"1503","pudding","abug,mpishi,aibu,iring","aibu","j","4","html-keyboard-response","910","v","mpishi","false","",""
"3136.199999999255","","","","","4","html-slider-response","911","","","","5",""
"4678","human","bado,kikapu,punguza,tinapay","tinapay","n","4","html-keyboard-response","912","n","tinapay","true","",""
"2595.300000000745","","","","","4","html-slider-response","913","","","","5",""
"2389","squirrel","hofu,mahugaw,ukweli,kichwa","hofu","f","4","html-keyboard-response","914","n","kichwa","false","",""
"2530.900000002235","","","","","4","html-slider-response","915","","","","4",""
"3064","park","tambok,pwani,bunifu,ihalas","bunifu","j","4","html-keyboard-response","916","f","tambok","false","",""
"3764.699999999255","","","","","4","html-slider-response","917","","","","4",""
"4534","poster","nchi,fedha,madungog,kasuko","madungog","j","4","html-keyboard-response","918","j","madungog","true","",""
"2413","","","","","4","html-slider-response","919","","","","5",""
"3915","wolf","kaburi,ndizi,mchuzi,lugha","lugha","n","4","html-keyboard-response","920","v","ndizi","false","",""
"2616.400000002235","","","","","4","html-slider-response","921","","","","5",""
"2176","cat","neyemba,baki,akili,paghukom","paghukom","n","4","html-keyboard-response","922","n","paghukom","true","",""
"3442.599999997765","","","","","4","html-slider-response","923","","","","4",""
"3702","fish","bala,buli,baho,imani","buli","v","4","html-keyboard-response","924","n","imani","false","",""
"2222.2000000029802","","","","","4","html-slider-response","925","","","","5",""
"3471","tooth","kabalaka,kijiko,uadui,pahiyum","kabalaka","f","4","html-keyboard-response","926","f","kabalaka","true","",""
"2800.60000000149","","","","","4","html-slider-response","927","","","","5",""
"2888","cave","ganti,maisha,nyundo,kesho","kesho","n","4","html-keyboard-response","928","f","ganti","false","",""
"2899.599999997765","","","","","4","html-slider-response","929","","","","4",""
"2285","lamp","daub,afya,bilaska,mbolea","afya","v","4","html-keyboard-response","930","j","bilaska","false","",""
"2747.10000000149","","","","","4","html-slider-response","931","","","","5",""
"8139","banana","kasamok,kazi,hagdan,twai","kazi","v","4","html-keyboard-response","932","v","kazi","true","",""
"2558.39999999851","","","","","4","html-slider-response","933","","","","5",""
"2616","bonfire","mwezi,mfuko,goti,kusanya","goti","j","4","html-keyboard-response","934","n","kusanya","false","",""
"3296.300000000745","","","","","4","html-slider-response","935","","","","5",""
"7010","cop","bustani,mechezo,jikoni,bakus","mechezo","v","4","html-keyboard-response","936","f","bustani","false","",""
"2238.60000000149","","","","","4","html-slider-response","937","","","","4",""
"2143","marker","mapafu,salita,maji,atay","maji","j","4","html-keyboard-response","938","n","atay","false","",""
"2405.400000002235","","","","","4","html-slider-response","939","","","","5",""
"1684","window","kweli,nanga,kujenga,umaga","kweli","f","4","html-keyboard-response","940","n","umaga","false","",""
"3452.199999999255","","","","","4","html-slider-response","941","","","","5",""
"3068","body","nyundu,jibini,tindashan,kununa","tindashan","j","4","html-keyboard-response","942","n","kununa","false","",""
"2530.60000000149","","","","","4","html-slider-response","943","","","","5",""
"1673","apple","ukame,estante,edad,kisu","kisu","n","4","html-keyboard-response","944","n","kisu","true","",""
"2644.400000002235","","","","","4","html-slider-response","945","","","","5",""
"2425","salmon","mzungu,sensilyo,seri,baharia","sensilyo","v","4","html-keyboard-response","946","n","baharia","false","",""
"2823.199999999255","","","","","4","html-slider-response","947","","","","4",""
"5428","bed","kalipay,haraka,starehe,mapintas","mapintas","n","4","html-keyboard-response","948","n","mapintas","true","",""
"2806","","","","","4","html-slider-response","949","","","","4",""
"7277","berry","abogado,nogozi,kinywa,kofia","kofia","n","4","html-keyboard-response","950","v","nogozi","false","",""
"2937.199999999255","","","","","4","html-slider-response","951","","","","2",""
"5006","mirror","rangi,kanding,furaha,sulagma","sulagma","n","4","html-keyboard-response","952","j","furaha","false","",""
"2774.60000000149","","","","","4","html-slider-response","953","","","","4",""
"2067","flag","ndege,trekta,mkate,kawa","trekta","v","4","html-keyboard-response","954","n","kawa","false","",""
"2286.39999999851","","","","","4","html-slider-response","955","","","","4",""
"1872","shoulder","kelele,mkuu,ndaniya,guruwe","mkuu","v","4","html-keyboard-response","956","f","kelele","false","",""
"2684.800000000745","","","","","4","html-slider-response","957","","","","5",""
"2351","tissue","lamigas,kisiwa,ugomvi,katika","ugomvi","j","4","html-keyboard-response","958","v","kisiwa","false","",""
"2489.900000002235","","","","","4","html-slider-response","959","","","","4",""
"2382","notebook","msitu,kila,kemia,mdudu","kemia","j","4","html-keyboard-response","960","v","kila","false","",""
"3353.5","","","","","4","html-slider-response","961","","","","5",""
"3632","snake","jansa,karon,pagtukod,mvringo","pagtukod","j","4","html-keyboard-response","962","f","jansa","false","",""
"2244.099999997765","","","","","4","html-slider-response","963","","","","4",""
"2050","finger","moyo,simu,sufuria,lima","moyo","f","4","html-keyboard-response","964","j","sufuria","false","",""
"2202.300000000745","","","","","4","html-slider-response","965","","","","4",""
"2669","basket","kumbuka,utepe,kumba,hasira","kumba","j","4","html-keyboard-response","966","f","kumbuka","false","",""
"2453.2000000029802","","","","","4","html-slider-response","967","","","","5",""
"2444","curtain","mchanga,lisud,bulwawan,chubani","mchanga","f","4","html-keyboard-response","968","n","chubani","false","",""
"4329.10000000149","","","","","4","html-slider-response","969","","","","4",""
"2316","perfume","bino,sungura,katuyoan,ndogo","katuyoan","j","4","html-keyboard-response","970","v","sungura","false","",""
"3528","","","","","4","html-slider-response","971","","","","4",""
"5041","key","miaka,chombo,goma,ahos","chombo","v","4","html-keyboard-response","972","n","ahos","false","",""
"2548.900000002235","","","","","4","html-slider-response","973","","","","5",""
"1610","olive","bata,siagi,jiwe,welder","jiwe","j","4","html-keyboard-response","974","j","jiwe","true","",""
"2732.5","","","","","4","html-slider-response","975","","","","5",""
"1902","rose","singizi,mwanake,paghalad,amani","paghalad","j","4","html-keyboard-response","976","n","amani","false","",""
"3298.5","","","","","4","html-slider-response","977","","","","4",""
"2763","bridge","daima,ngono,panya,sahani","sahani","n","4","html-keyboard-response","978","n","sahani","true","",""
"2389.39999999851","","","","","4","html-slider-response","979","","","","5",""
"2250","hill","kushoto,matumbo,kukimba,sweta","matumbo","v","4","html-keyboard-response","980","j","kukimba","false","",""
"3470.599999997765","","","","","4","html-slider-response","981","","","","2",""
"5919","letter","filimbi,chuma,kifua,uhuru","kifua","j","4","html-keyboard-response","982","f","filimbi","false","",""
"3032.7999999970198","","","","","4","html-slider-response","983","","","","4",""
"2276","sock","ndoora,mamba,kimysa,mtirka","mamba","v","4","html-keyboard-response","984","j","kimysa","false","",""
"3262.199999999255","","","","","4","html-slider-response","985","","","","4",""
"2923","fork","mgonjwa,baboy,paghago,gorisi","mgonjwa","f","4","html-keyboard-response","986","f","mgonjwa","true","",""
"3734.400000002235","","","","","4","html-slider-response","987","","","","2",""
"2927","box","kuacha,rafiki,kitande,adui","adui","n","4","html-keyboard-response","988","n","adui","true","",""
"3381.599999997765","","","","","4","html-slider-response","989","","","","5",""
"4116","gift","pagtawag,baba,nyange,baso","pagtawag","f","4","html-keyboard-response","990","n","baso","false","",""
"3098.89999999851","","","","","4","html-slider-response","991","","","","5",""
"5339","bucket","baga,ijayo,kiatu,init","kiatu","j","4","html-keyboard-response","992","n","init","false","",""
"2600.300000000745","","","","","4","html-slider-response","993","","","","2",""
"1815","shop","nopya,samaki,kerida,ndezu","samaki","v","4","html-keyboard-response","994","n","ndezu","false","",""
"3835.5","","","","","4","html-slider-response","995","","","","3",""
"3098","puppet","napulo,lamok,godoro,mazishi","mazishi","n","4","html-keyboard-response","996","n","mazishi","true","",""
"2947.2000000029802","","","","","4","html-slider-response","997","","","","4",""
"4633","nose","sehemu,gubat,kopa,kidole","sehemu","f","4","html-keyboard-response","998","f","sehemu","true","",""
"3887.900000002235","","","","","4","html-slider-response","999","","","","5",""
"4540","music","mraba,mageho,baiski,tumbo","baiski","j","4","html-keyboard-response","1000","v","mageho","false","",""
"3236","","","","","4","html-slider-response","1001","","","","4",""
"1780","dog","lubi,bahari,washia,kalamu","bahari","v","4","html-keyboard-response","1002","n","kalamu","false","",""
"2740.5","","","","","4","html-slider-response","1003","","","","2",""
"3340","eel","ishara,msumari,kunywa,kabuang","msumari","v","4","html-keyboard-response","1004","v","msumari","true","",""
"4130.699999999255","","","","","4","html-slider-response","1005","","","","2",""
"3867","number","shule,kengele,choori,mundamo","mundamo","n","4","html-keyboard-response","1006","f","shule","false","",""
"2219.7999999970198","","","","","4","html-slider-response","1007","","","","4",""
"2756","tomato","chupi,chupa,mvua,takatak","mvua","j","4","html-keyboard-response","1008","n","takatak","false","",""
"2633.39999999851","","","","","4","html-slider-response","1009","","","","4",""
"4795","coffin","barua,tubag,kioo,hulma","kioo","j","4","html-keyboard-response","1010","j","kioo","true","",""
"2683.199999999255","","","","","4","html-slider-response","1011","","","","5",""
"2522","knee","duka,mvuke,kubale,bili","duka","f","4","html-keyboard-response","1012","n","bili","false","",""
"2851.199999999255","","","","","4","html-slider-response","1013","","","","5",""
"3536","woman","bandari,pagtabon,bituin,kovuli","pagtabon","v","4","html-keyboard-response","1014","v","pagtabon","true","",""
"2528.699999999255","","","","","4","html-slider-response","1015","","","","5",""
"3895","stone","ulimwengu,mkasi,asili,wingi","wingi","n","4","html-keyboard-response","1016","j","asili","false","",""
"2288.2999999970198","","","","","4","html-slider-response","1017","","","","4",""
"2534","bread","kaili,dizeli,dari,bugas","dari","j","4","html-keyboard-response","1018","f","kaili","false","",""
"3577.900000002235","","","","","4","html-slider-response","1019","","","","4",""
"6319","triangle","kasadpan,kihozi,bentaha,liog","kasadpan","f","4","html-keyboard-response","1020","j","bentaha","false","",""
"3138.10000000149","","","","","4","html-slider-response","1021","","","","4",""
"3784","scissors","duga,mtawa,tanuri,suga","tanuri","j","4","html-keyboard-response","1022","f","duga","false","",""
"2862.699999999255","","","","","4","html-slider-response","1023","","","","5",""
"5364","giraffe","daraja,jumatu,hangyo,mahitabo","mahitabo","n","4","html-keyboard-response","1024","v","jumatu","false","",""
"2233.099999997765","","","","","4","html-slider-response","1025","","","","2",""
"2157","flower","tamasha,lobo,usiku,bega","bega","n","4","html-keyboard-response","1026","n","bega","true","",""
"2122.699999999255","","","","","4","html-slider-response","1027","","","","4",""
"2586","candle","gabi,farasi,kupanda,geza","geza","n","4","html-keyboard-response","1028","n","geza","true","",""
"2676.800000000745","","","","","4","html-slider-response","1029","","","","4",""
"2246","mother","kahawa,mbuzi,jokofu,babaye","babaye","n","4","html-keyboard-response","1030","n","babaye","true","",""
"2552.10000000149","","","","","4","html-slider-response","1031","","","","5",""
"5658","towel","pagpalit,tembo,funzi,pito","pagpalit","f","4","html-keyboard-response","1032","f","pagpalit","true","",""
"2332.099999997765","","","","","4","html-slider-response","1033","","","","4",""
"3576","elephant","kito,petye,pagduol,suka","kito","f","4","html-keyboard-response","1034","n","suka","false","",""
"2265.39999999851","","","","","4","html-slider-response","1035","","","","2",""
"4167","shelf","bungtod,pamahaw,kadaot,awit","pamahaw","v","4","html-keyboard-response","1036","n","awit","false","",""
"2626.5","","","","","4","html-slider-response","1037","","","","5",""
"3727","mosquito","martilyo,isda,taras,gutom","martilyo","f","4","html-keyboard-response","1038","n","gutom","false","",""
"2718.800000000745","","","","","4","html-slider-response","1039","","","","5",""
"2243","column","pundok,dila,ufagio,pala","ufagio","j","4","html-keyboard-response","1040","j","ufagio","true","",""
"2620.400000002235","","","","","4","html-slider-response","1041","","","","2",""
"3445","pants","pintal,chuki,haki,hari","haki","j","4","html-keyboard-response","1042","j","haki","true","",""
"2403.89999999851","","","","","4","html-slider-response","1043","","","","3",""
"3118","list","alizeti,kuzama,wingu,kaso","wingu","j","4","html-keyboard-response","1044","n","kaso","false","",""
"4350.199999999255","","","","","4","html-slider-response","1045","","","","2",""
"3117","bank","kudhibi,tualya,silingan,ofisi","silingan","j","4","html-keyboard-response","1046","j","silingan","true","",""
"2803.39999999851","","","","","4","html-slider-response","1047","","","","4",""
"2604","clock","kartasi,abang,mbwa,osha","mbwa","j","4","html-keyboard-response","1048","j","mbwa","true","",""
"2720.800000000745","","","","","4","html-slider-response","1049","","","","2",""
"2865","ceiling","maua,kugita,kawaida,rayna","maua","f","4","html-keyboard-response","1050","v","kugita","false","",""
"2178.89999999851","","","","","4","html-slider-response","1051","","","","4",""
"3505","train","sayari,itik,dakika,mungu","sayari","f","4","html-keyboard-response","1052","j","dakika","false","",""
"3242.699999999255","","","","","4","html-slider-response","1053","","","","4",""
"1957","magazine","kiti,gundi,mchawi,bahandi","kiti","f","4","html-keyboard-response","1054","n","bahandi","false","",""
"2547.800000000745","","","","","4","html-slider-response","1055","","","","4",""
"4311","office","hazini,leso,yatima,kuna","leso","v","4","html-keyboard-response","1056","f","hazini","false","",""
"2373.099999997765","","","","","4","html-slider-response","1057","","","","2",""
"2148","wheel","bafuni,punda,tawo,baadaye","bafuni","f","4","html-keyboard-response","1058","n","baadaye","false","",""
"3205.800000000745","","","","","4","html-slider-response","1059","","","","4",""
"5178","spoon","pagsulod,betri,nzuri,ngazi","pagsulod","f","4","html-keyboard-response","1060","v","betri","false","",""
"4473.5","","","","","4","html-slider-response","1061","","","","1",""
"2063","hammer","mekno,napakyas,kitovu,layag","napakyas","v","4","html-keyboard-response","1062","j","kitovu","false","",""
"3076.300000000745","","","","","4","html-slider-response","1063","","","","3",""
"2736","cigar","ndugu,kuta,mlango,adhabu","adhabu","n","4","html-keyboard-response","1064","j","mlango","false","",""
"2685.099999997765","","","","","4","html-slider-response","1065","","","","4",""
"1613","shoe","nyeusi,hatua,uyoga,kama","uyoga","j","4","html-keyboard-response","1066","n","kama","false","",""
"2804.10000000149","","","","","4","html-slider-response","1067","","","","2",""
"2030","list","alizeti,wingu,kuzama,kaso","wingu","v","5","html-keyboard-response","1069","n","kaso","false","",""
"2070.199999999255","","","","","5","html-slider-response","1070","","","","2",""
"1677","number","shule,kengele,mundamo,choori","mundamo","j","5","html-keyboard-response","1071","j","mundamo","true","",""
"2746.7000000029802","","","","","5","html-slider-response","1072","","","","5",""
"2241","apple","ukame,estante,edad,kisu","kisu","n","5","html-keyboard-response","1073","n","kisu","true","",""
"2400.300000000745","","","","","5","html-slider-response","1074","","","","5",""
"1485","knee","mvuke,kubale,bili,duka","duka","n","5","html-keyboard-response","1075","j","bili","false","",""
"2417.5","","","","","5","html-slider-response","1076","","","","5",""
"2919","tooth","kijiko,kabalaka,uadui,pahiyum","kabalaka","v","5","html-keyboard-response","1077","v","kabalaka","true","",""
"2122.699999999255","","","","","5","html-slider-response","1078","","","","2",""
"3973","berry","abogado,kofia,nogozi,kinywa","kofia","v","5","html-keyboard-response","1079","j","nogozi","false","",""
"2317","","","","","5","html-slider-response","1080","","","","2",""
"2891","bridge","daima,ngono,panya,sahani","sahani","n","5","html-keyboard-response","1081","n","sahani","true","",""
"2688.2000000029802","","","","","5","html-slider-response","1082","","","","2",""
"1975","perfume","bino,sungura,ndogo,katuyoan","katuyoan","n","5","html-keyboard-response","1083","v","sungura","false","",""
"2536.699999999255","","","","","5","html-slider-response","1084","","","","4",""
"1780","ladder","mashua,mwanga,pangalan,kamba","pangalan","j","5","html-keyboard-response","1085","v","mwanga","false","",""
"4060.300000000745","","","","","5","html-slider-response","1086","","","","4",""
"2139","pants","haki,pintal,chuki,hari","haki","f","5","html-keyboard-response","1087","v","pintal","false","",""
"2425.900000002235","","","","","5","html-slider-response","1088","","","","4",""
"3769","salmon","mzungu,seri,baharia,sensilyo","sensilyo","n","5","html-keyboard-response","1089","n","sensilyo","true","",""
"2410.599999997765","","","","","5","html-slider-response","1090","","","","2",""
"3002","coffin","barua,tubag,hulma,kioo","kioo","n","5","html-keyboard-response","1091","n","kioo","true","",""
"2842.699999999255","","","","","5","html-slider-response","1092","","","","5",""
"2663","park","tambok,pwani,ihalas,bunifu","bunifu","n","5","html-keyboard-response","1093","j","ihalas","false","",""
"2579.800000000745","","","","","5","html-slider-response","1094","","","","1",""
"2054","giraffe","daraja,jumatu,hangyo,mahitabo","mahitabo","n","5","html-keyboard-response","1095","n","mahitabo","true","",""
"2741.5","","","","","5","html-slider-response","1096","","","","4",""
"4533","mirror","sulagma,rangi,kanding,furaha","sulagma","f","5","html-keyboard-response","1097","n","furaha","false","",""
"2334.60000000149","","","","","5","html-slider-response","1098","","","","4",""
"2666","ceiling","kugita,kawaida,maua,rayna","maua","j","5","html-keyboard-response","1099","f","kugita","false","",""
"2509.300000000745","","","","","5","html-slider-response","1100","","","","2",""
"1543","marker","mapafu,salita,maji,atay","maji","j","5","html-keyboard-response","1101","f","mapafu","false","",""
"2364.400000002235","","","","","5","html-slider-response","1102","","","","4",""
"2823","sock","ndoora,kimysa,mtirka,mamba","mamba","n","5","html-keyboard-response","1103","f","ndoora","false","",""
"2310.300000000745","","","","","5","html-slider-response","1104","","","","2",""
"1739","cop","bustani,jikoni,mechezo,bakus","mechezo","j","5","html-keyboard-response","1105","n","bakus","false","",""
"2617.89999999851","","","","","5","html-slider-response","1106","","","","5",""
"4112","gift","baba,pagtawag,nyange,baso","pagtawag","v","5","html-keyboard-response","1107","v","pagtawag","true","",""
"2293.5","","","","","5","html-slider-response","1108","","","","4",""
"2540","notebook","msitu,kila,mdudu,kemia","kemia","n","5","html-keyboard-response","1109","n","kemia","true","",""
"3157.2999999970198","","","","","5","html-slider-response","1110","","","","5",""
"3770","bank","kudhibi,tualya,silingan,ofisi","silingan","j","5","html-keyboard-response","1111","j","silingan","true","",""
"2619.89999999851","","","","","5","html-slider-response","1112","","","","5",""
"2465","letter","filimbi,kifua,chuma,uhuru","kifua","v","5","html-keyboard-response","1113","f","filimbi","false","",""
"2225.099999997765","","","","","5","html-slider-response","1114","","","","2",""
"6422","candle","geza,gabi,farasi,kupanda","geza","f","5","html-keyboard-response","1115","n","kupanda","false","",""
"2790.5","","","","","5","html-slider-response","1116","","","","5",""
"2022","bread","kaili,dari,dizeli,bugas","dari","v","5","html-keyboard-response","1117","j","dizeli","false","",""
"2382","","","","","5","html-slider-response","1118","","","","2",""
"3515","snake","jansa,karon,mvringo,pagtukod","pagtukod","n","5","html-keyboard-response","1119","j","mvringo","false","",""
"2825.5","","","","","5","html-slider-response","1120","","","","4",""
"3007","rose","singizi,paghalad,mwanake,amani","paghalad","v","5","html-keyboard-response","1121","j","mwanake","false","",""
"5405.199999999255","","","","","5","html-slider-response","1122","","","","3",""
"3053","hill","kushoto,matumbo,kukimba,sweta","matumbo","v","5","html-keyboard-response","1123","f","kushoto","false","",""
"2389.699999999255","","","","","5","html-slider-response","1124","","","","4",""
"2467","train","itik,sayari,dakika,mungu","sayari","v","5","html-keyboard-response","1125","n","mungu","false","",""
"2452.300000000745","","","","","5","html-slider-response","1126","","","","4",""
"1820","shop","nopya,kerida,ndezu,samaki","samaki","n","5","html-keyboard-response","1127","n","samaki","true","",""
"2468.199999999255","","","","","5","html-slider-response","1128","","","","5",""
"2031","nose","gubat,kopa,kidole,sehemu","sehemu","n","5","html-keyboard-response","1129","v","kopa","false","",""
"3260.5","","","","","5","html-slider-response","1130","","","","2",""
"3949","boat","hamsi,pombe,agalon,kitanda","agalon","j","5","html-keyboard-response","1131","f","hamsi","false","",""
"2783.800000000745","","","","","5","html-slider-response","1132","","","","4",""
"2905","body","nyundu,jibini,kununa,tindashan","tindashan","n","5","html-keyboard-response","1133","v","jibini","false","",""
"2537.599999997765","","","","","5","html-slider-response","1134","","","","2",""
"3197","bed","mapintas,kalipay,haraka,starehe","mapintas","f","5","html-keyboard-response","1135","v","kalipay","false","",""
"2217.39999999851","","","","","5","html-slider-response","1136","","","","5",""
"2610","squirrel","mahugaw,ukweli,hofu,kichwa","hofu","j","5","html-keyboard-response","1137","f","mahugaw","false","",""
"2773.800000000745","","","","","5","html-slider-response","1138","","","","4",""
"2237","window","nanga,kujenga,umaga,kweli","kweli","n","5","html-keyboard-response","1139","v","kujenga","false","",""
"2674.199999999255","","","","","5","html-slider-response","1140","","","","5",""
"4145","bonfire","mwezi,mfuko,goti,kusanya","goti","j","5","html-keyboard-response","1141","j","goti","true","",""
"2620.300000000745","","","","","5","html-slider-response","1142","","","","5",""
"9470","fish","buli,bala,baho,imani","buli","f","5","html-keyboard-response","1143","f","buli","true","",""
"3364.300000000745","","","","","5","html-slider-response","1144","","","","5",""
"3099","cat","paghukom,neyemba,baki,akili","paghukom","f","5","html-keyboard-response","1145","n","akili","false","",""
"2879.5","","","","","5","html-slider-response","1146","","","","4",""
"1809","spider","bunyag,mkboa,atop,kamwe","kamwe","n","5","html-keyboard-response","1147","n","kamwe","true","",""
"3177.699999999255","","","","","5","html-slider-response","1148","","","","5",""
"3046","eel","ishara,kunywa,kabuang,msumari","msumari","n","5","html-keyboard-response","1149","v","kunywa","false","",""
"2911","","","","","5","html-slider-response","1150","","","","2",""
"3155","woman","pagtabon,bandari,bituin,kovuli","pagtabon","f","5","html-keyboard-response","1151","f","pagtabon","true","",""
"2623.199999999255","","","","","5","html-slider-response","1152","","","","4",""
"2834","magazine","gundi,kiti,mchawi,bahandi","kiti","v","5","html-keyboard-response","1153","j","mchawi","false","",""
"2100.10000000149","","","","","5","html-slider-response","1154","","","","4",""
"2207","pudding","abug,mpishi,iring,aibu","aibu","n","5","html-keyboard-response","1155","v","mpishi","false","",""
"2879.599999997765","","","","","5","html-slider-response","1156","","","","2",""
"2612","lamp","afya,daub,bilaska,mbolea","afya","f","5","html-keyboard-response","1157","n","mbolea","false","",""
"2162.199999999255","","","","","5","html-slider-response","1158","","","","4",""
"2178","cave","kesho,ganti,maisha,nyundo","kesho","f","5","html-keyboard-response","1159","j","maisha","false","",""
"2268.5","","","","","5","html-slider-response","1160","","","","5",""
"1716","shoulder","kelele,mkuu,ndaniya,guruwe","mkuu","v","5","html-keyboard-response","1161","n","guruwe","false","",""
"2537.400000002235","","","","","5","html-slider-response","1162","","","","2",""
"1582","stone","wingi,ulimwengu,mkasi,asili","wingi","f","5","html-keyboard-response","1163","n","asili","false","",""
"2518.10000000149","","","","","5","html-slider-response","1164","","","","5",""
"2095","column","ufagio,pundok,dila,pala","ufagio","f","5","html-keyboard-response","1165","v","pundok","false","",""
"4066","","","","","5","html-slider-response","1166","","","","4",""
"1925","page","wimbo,wakala,ishiri,skina","wimbo","f","5","html-keyboard-response","1167","v","wakala","false","",""
"3981.89999999851","","","","","5","html-slider-response","1168","","","","2",""
"3333","shoe","uyoga,nyeusi,hatua,kama","uyoga","f","5","html-keyboard-response","1169","j","hatua","false","",""
"3855.7000000029802","","","","","5","html-slider-response","1170","","","","2",""
"2872","clock","mbwa,kartasi,abang,osha","mbwa","f","5","html-keyboard-response","1171","f","mbwa","true","",""
"2335.900000002235","","","","","5","html-slider-response","1172","","","","2",""
"1626","towel","tembo,pagpalit,funzi,pito","pagpalit","v","5","html-keyboard-response","1173","n","pito","false","",""
"2400.800000000745","","","","","5","html-slider-response","1174","","","","4",""
"2030","tomato","mvua,chupi,chupa,takatak","mvua","f","5","html-keyboard-response","1175","n","takatak","false","",""
"2585.900000002235","","","","","5","html-slider-response","1176","","","","4",""
"1285","bucket","baga,kiatu,ijayo,init","kiatu","v","5","html-keyboard-response","1177","n","init","false","",""
"3055.699999999255","","","","","5","html-slider-response","1178","","","","5",""
"1331","finger","simu,moyo,sufuria,lima","moyo","v","5","html-keyboard-response","1179","v","moyo","true","",""
"2166.099999997765","","","","","5","html-slider-response","1180","","","","4",""
"2241","mother","babaye,kahawa,mbuzi,jokofu","babaye","f","5","html-keyboard-response","1181","v","kahawa","false","",""
"3984.7999999970198","","","","","5","html-slider-response","1182","","","","4",""
"1621","human","bado,kikapu,punguza,tinapay","tinapay","n","5","html-keyboard-response","1183","n","tinapay","true","",""
"2136.60000000149","","","","","5","html-slider-response","1184","","","","2",""
"1805","sun","bendi,luha,basi,uongo","basi","j","5","html-keyboard-response","1185","j","basi","true","",""
"1747","","","","","5","html-slider-response","1186","","","","4",""
"2545","fork","baboy,paghago,gorisi,mgonjwa","mgonjwa","n","5","html-keyboard-response","1187","v","paghago","false","",""
"2609.400000002235","","","","","5","html-slider-response","1188","","","","4",""
"1830","donkey","elfu,bloke,lalake,rombus","elfu","f","5","html-keyboard-response","1189","n","rombus","false","",""
"2570","","","","","5","html-slider-response","1190","","","","2",""
"1698","wolf","kaburi,ndizi,lugha,mchuzi","lugha","j","5","html-keyboard-response","1191","j","lugha","true","",""
"2762.099999997765","","","","","5","html-slider-response","1192","","","","4",""
"7761","cigar","ndugu,kuta,mlango,adhabu","adhabu","n","5","html-keyboard-response","1193","j","mlango","false","",""
"2612.300000000745","","","","","5","html-slider-response","1194","","","","4",""
"1486","olive","bata,jiwe,siagi,welder","jiwe","v","5","html-keyboard-response","1195","v","jiwe","true","",""
"2541.60000000149","","","","","5","html-slider-response","1196","","","","5",""
"2009","key","miaka,chombo,goma,ahos","chombo","v","5","html-keyboard-response","1197","j","goma","false","",""
"2282.89999999851","","","","","5","html-slider-response","1198","","","","4",""
"1191","door","tena,soko,surali,nyota","surali","j","5","html-keyboard-response","1199","v","soko","false","",""
"2074.5","","","","","5","html-slider-response","1200","","","","4",""
"2619","wheel","punda,tawo,baadaye,bafuni","bafuni","n","5","html-keyboard-response","1201","f","punda","false","",""
"2844.5","","","","","5","html-slider-response","1202","","","","2",""
"4474","basket","kumba,kumbuka,utepe,hasira","kumba","f","5","html-keyboard-response","1203","v","kumbuka","false","",""
"3038.599999997765","","","","","5","html-slider-response","1204","","","","5",""
"1942","elephant","petye,pagduol,kito,suka","kito","j","5","html-keyboard-response","1205","j","kito","true","",""
"2257.10000000149","","","","","5","html-slider-response","1206","","","","5",""
"1878","office","hazini,leso,yatima,kuna","leso","v","5","html-keyboard-response","1207","n","kuna","false","",""
"3133.60000000149","","","","","5","html-slider-response","1208","","","","2",""
"3040","music","mraba,baiski,mageho,tumbo","baiski","v","5","html-keyboard-response","1209","j","mageho","false","",""
"2324.099999997765","","","","","5","html-slider-response","1210","","","","2",""
"2413","tissue","lamigas,kisiwa,katika,ugomvi","ugomvi","n","5","html-keyboard-response","1211","v","kisiwa","false","",""
"2299.800000000745","","","","","5","html-slider-response","1212","","","","2",""
"1393","curtain","lisud,mchanga,bulwawan,chubani","mchanga","v","5","html-keyboard-response","1213","j","bulwawan","false","",""
"2943.60000000149","","","","","5","html-slider-response","1214","","","","4",""
"2770","flag","trekta,ndege,mkate,kawa","trekta","f","5","html-keyboard-response","1215","j","mkate","false","",""
"3536.699999999255","","","","","5","html-slider-response","1216","","","","4",""
"2618","dog","lubi,bahari,washia,kalamu","bahari","v","5","html-keyboard-response","1217","v","bahari","true","",""
"3030.199999999255","","","","","5","html-slider-response","1218","","","","2",""
"2317","cup","matumai,dagat,shimoni,jeraha","matumai","f","5","html-keyboard-response","1219","j","shimoni","false","",""
"2328.699999999255","","","","","5","html-slider-response","1220","","","","4",""
"2211","sheet","juuya,bililhon,watu,kamantis","bililhon","v","5","html-keyboard-response","1221","v","bililhon","true","",""
"2413.800000000745","","","","","5","html-slider-response","1222","","","","2",""
"2643","spoon","betri,nzuri,ngazi,pagsulod","pagsulod","n","5","html-keyboard-response","1223","j","ngazi","false","",""
"2225.800000000745","","","","","5","html-slider-response","1224","","","","5",""
"2318","flower","bega,tamasha,lobo,usiku","bega","f","5","html-keyboard-response","1225","n","usiku","false","",""
"2829.5","","","","","5","html-slider-response","1226","","","","5",""
"1577","picture","silya,chaki,kubwa,asin","kubwa","j","5","html-keyboard-response","1227","j","kubwa","true","",""
"3620.5","","","","","5","html-slider-response","1228","","","","5",""
"3003","puppet","mazishi,napulo,lamok,godoro","mazishi","f","5","html-keyboard-response","1229","f","mazishi","true","",""
"2596.199999999255","","","","","5","html-slider-response","1230","","","","4",""
"3585","banana","kasamok,kazi,hagdan,twai","kazi","v","5","html-keyboard-response","1231","n","twai","false","",""
"2150.300000000745","","","","","5","html-slider-response","1232","","","","4",""
"1983","book","kuhesa,picha,mali,mara","mali","j","5","html-keyboard-response","1233","j","mali","true","",""
"2706.199999999255","","","","","5","html-slider-response","1234","","","","5",""
"2632","triangle","kihozi,bentaha,kasadpan,liog","kasadpan","j","5","html-keyboard-response","1235","j","kasadpan","true","",""
"3463.5","","","","","5","html-slider-response","1236","","","","2",""
"2529","poster","nchi,madungog,fedha,kasuko","madungog","v","5","html-keyboard-response","1237","j","fedha","false","",""
"2922.800000000745","","","","","5","html-slider-response","1238","","","","4",""
"3608","box","kuacha,adui,rafiki,kitande","adui","v","5","html-keyboard-response","1239","n","kitande","false","",""
"2635.800000000745","","","","","5","html-slider-response","1240","","","","2",""
"1478","mosquito","martilyo,isda,taras,gutom","martilyo","f","5","html-keyboard-response","1241","f","martilyo","true","",""
"2352.800000000745","","","","","5","html-slider-response","1242","","","","4",""
"1633","shelf","bungtod,pamahaw,kadaot,awit","pamahaw","v","5","html-keyboard-response","1243","n","awit","false","",""
"2398.699999999255","","","","","5","html-slider-response","1244","","","","5",""
"2221","scissors","duga,tanuri,mtawa,suga","tanuri","v","5","html-keyboard-response","1245","j","mtawa","false","",""
"2592.300000000745","","","","","5","html-slider-response","1246","","","","4",""
"1501","hammer","mekno,napakyas,kitovu,layag","napakyas","v","5","html-keyboard-response","1247","v","napakyas","true","",""
"2320.800000000745","","","","","5","html-slider-response","1248","","","","4",""
