"rt","en_word","options","swa_word","correct_answer","phase","trial_type","trial_index","input_answer","input_word","accuracy","certainty","amt_choices"
"8843","bonfire","mwezi,goti,mfuko,kusanya","goti","v","2","html-keyboard-response","106","v","goti","true","",""
"2379","","","","","2","html-slider-response","107","","","","4",""
"7176","flower","bega,tamasha,lobo,usiku","bega","f","2","html-keyboard-response","108","f","bega","true","",""
"2863","","","","","2","html-slider-response","109","","","","5",""
"5636","column","pundok,ufagio,dila,pala","ufagio","v","2","html-keyboard-response","110","v","ufagio","true","",""
"2685","","","","","2","html-slider-response","111","","","","5",""
"6135","music","mraba,baiski,mageho,tumbo","baiski","v","2","html-keyboard-response","112","v","baiski","true","",""
"2604","","","","","2","html-slider-response","113","","","","5",""
"4372","spider","bunyag,mkboa,kamwe,atop","kamwe","j","2","html-keyboard-response","114","j","kamwe","true","",""
"2781","","","","","2","html-slider-response","115","","","","5",""
"6368","fork","baboy,mgonjwa,paghago,gorisi","mgonjwa","v","2","html-keyboard-response","116","v","mgonjwa","true","",""
"5810","","","","","2","html-slider-response","117","","","","2",""
"5450","mosquito","isda,taras,martilyo,gutom","martilyo","j","2","html-keyboard-response","118","j","martilyo","true","",""
"2047","","","","","2","html-slider-response","119","","","","4",""
"11371","banana","kasamok,hagdan,kazi,twai","kazi","j","2","html-keyboard-response","120","j","kazi","true","",""
"3799","","","","","2","html-slider-response","121","","","","4",""
"14426","cup","matumai,dagat,shimoni,jeraha","matumai","f","2","html-keyboard-response","122","n","jeraha","false","",""
"2774","","","","","2","html-slider-response","123","","","","2",""
"4735","shop","nopya,kerida,samaki,ndezu","samaki","j","2","html-keyboard-response","124","j","samaki","true","",""
"1746","","","","","2","html-slider-response","125","","","","4",""
"4528","elephant","petye,kito,pagduol,suka","kito","v","2","html-keyboard-response","126","v","kito","true","",""
"3041","","","","","2","html-slider-response","127","","","","5",""
"10728","bucket","baga,ijayo,kiatu,init","kiatu","j","2","html-keyboard-response","128","j","kiatu","true","",""
"3980","","","","","2","html-slider-response","129","","","","5",""
"4411","book","kuhesa,picha,mali,mara","mali","j","2","html-keyboard-response","130","n","mara","false","",""
"2919","","","","","2","html-slider-response","131","","","","5",""
"6146","mirror","sulagma,rangi,kanding,furaha","sulagma","f","2","html-keyboard-response","132","v","rangi","false","",""
"2718","","","","","2","html-slider-response","133","","","","2",""
"15426","office","hazini,yatima,kuna,leso","leso","n","2","html-keyboard-response","134","v","yatima","false","",""
"2177","","","","","2","html-slider-response","135","","","","2",""
"9453","body","nyundu,tindashan,jibini,kununa","tindashan","v","2","html-keyboard-response","136","v","tindashan","true","",""
"3869","","","","","2","html-slider-response","137","","","","2",""
"12813","perfume","katuyoan,bino,sungura,ndogo","katuyoan","f","2","html-keyboard-response","138","v","bino","false","",""
"3046","","","","","2","html-slider-response","139","","","","4",""
"10636","olive","bata,jiwe,siagi,welder","jiwe","v","2","html-keyboard-response","140","v","jiwe","true","",""
"2687","","","","","2","html-slider-response","141","","","","5",""
"5367","magazine","gundi,mchawi,kiti,bahandi","kiti","j","2","html-keyboard-response","142","j","kiti","true","",""
"2684","","","","","2","html-slider-response","143","","","","5",""
"4877","bread","dari,kaili,dizeli,bugas","dari","f","2","html-keyboard-response","144","f","dari","true","",""
"2605","","","","","2","html-slider-response","145","","","","4",""
"9621","cave","kesho,ganti,maisha,nyundo","kesho","f","2","html-keyboard-response","146","f","kesho","true","",""
"2181","","","","","2","html-slider-response","147","","","","4",""
"4938","ladder","mashua,mwanga,kamba,pangalan","pangalan","n","2","html-keyboard-response","148","n","pangalan","true","",""
"8233","","","","","2","html-slider-response","149","","","","4",""
"7949","human","bado,kikapu,tinapay,punguza","tinapay","j","2","html-keyboard-response","150","j","tinapay","true","",""
"1911","","","","","2","html-slider-response","151","","","","4",""
"27936","clock","kartasi,abang,osha,mbwa","mbwa","n","2","html-keyboard-response","152","v","abang","false","",""
"1805","","","","","2","html-slider-response","153","","","","2",""
"8600","shelf","bungtod,kadaot,awit,pamahaw","pamahaw","n","2","html-keyboard-response","154","n","pamahaw","true","",""
"3217","","","","","2","html-slider-response","155","","","","4",""
"4564","salmon","sensilyo,mzungu,seri,baharia","sensilyo","f","2","html-keyboard-response","156","f","sensilyo","true","",""
"2206","","","","","2","html-slider-response","157","","","","5",""
"7068","coffin","barua,kioo,tubag,hulma","kioo","v","2","html-keyboard-response","158","v","kioo","true","",""
"2556","","","","","2","html-slider-response","159","","","","5",""
"14699","notebook","kemia,msitu,kila,mdudu","kemia","f","2","html-keyboard-response","160","f","kemia","true","",""
"2864","","","","","2","html-slider-response","161","","","","4",""
"9673","shoulder","kelele,ndaniya,mkuu,guruwe","mkuu","j","2","html-keyboard-response","162","v","ndaniya","false","",""
"1673","","","","","2","html-slider-response","163","","","","2",""
"4505","park","tambok,pwani,ihalas,bunifu","bunifu","n","2","html-keyboard-response","164","n","bunifu","true","",""
"3265","","","","","2","html-slider-response","165","","","","5",""
"3939","number","shule,mundamo,kengele,choori","mundamo","v","2","html-keyboard-response","166","v","mundamo","true","",""
"1895","","","","","2","html-slider-response","167","","","","4",""
"13860","apple","ukame,estante,kisu,edad","kisu","j","2","html-keyboard-response","168","j","kisu","true","",""
"3191","","","","","2","html-slider-response","169","","","","5",""
"15151","letter","kifua,filimbi,chuma,uhuru","kifua","f","2","html-keyboard-response","170","f","kifua","true","",""
"3410","","","","","2","html-slider-response","171","","","","5",""
"14597","eel","ishara,kunywa,msumari,kabuang","msumari","j","2","html-keyboard-response","172","j","msumari","true","",""
"2629","","","","","2","html-slider-response","173","","","","4",""
"11637","cop","bustani,mechezo,jikoni,bakus","mechezo","v","2","html-keyboard-response","174","n","bakus","false","",""
"5094","","","","","2","html-slider-response","175","","","","2",""
"4101","wolf","kaburi,ndizi,mchuzi,lugha","lugha","n","2","html-keyboard-response","176","n","lugha","true","",""
"2529","","","","","2","html-slider-response","177","","","","4",""
"8503","squirrel","mahugaw,ukweli,kichwa,hofu","hofu","n","2","html-keyboard-response","178","v","ukweli","false","",""
"2852","","","","","2","html-slider-response","179","","","","4",""
"4660","nose","gubat,kopa,sehemu,kidole","sehemu","j","2","html-keyboard-response","180","j","sehemu","true","",""
"2015","","","","","2","html-slider-response","181","","","","5",""
"4819","sock","ndoora,kimysa,mamba,mtirka","mamba","j","2","html-keyboard-response","182","j","mamba","true","",""
"2036","","","","","2","html-slider-response","183","","","","5",""
"7706","bank","kudhibi,tualya,silingan,ofisi","silingan","j","2","html-keyboard-response","184","j","silingan","true","",""
"3065","","","","","2","html-slider-response","185","","","","2",""
"7822","donkey","elfu,bloke,lalake,rombus","elfu","f","2","html-keyboard-response","186","f","elfu","true","",""
"2731","","","","","2","html-slider-response","187","","","","4",""
"4905","poster","madungog,nchi,fedha,kasuko","madungog","f","2","html-keyboard-response","188","j","fedha","false","",""
"3808","","","","","2","html-slider-response","189","","","","2",""
"3807","puppet","napulo,lamok,mazishi,godoro","mazishi","j","2","html-keyboard-response","190","f","napulo","false","",""
"3157","","","","","2","html-slider-response","191","","","","4",""
"5090","hill","matumbo,kushoto,kukimba,sweta","matumbo","f","2","html-keyboard-response","192","f","matumbo","true","",""
"3296","","","","","2","html-slider-response","193","","","","5",""
"15310","tooth","kijiko,uadui,pahiyum,kabalaka","kabalaka","n","2","html-keyboard-response","194","n","kabalaka","true","",""
"2180","","","","","2","html-slider-response","195","","","","5",""
"4125","woman","bandari,bituin,pagtabon,kovuli","pagtabon","j","2","html-keyboard-response","196","j","pagtabon","true","",""
"3337","","","","","2","html-slider-response","197","","","","5",""
"4685","wheel","bafuni,punda,tawo,baadaye","bafuni","f","2","html-keyboard-response","198","n","baadaye","false","",""
"1901","","","","","2","html-slider-response","199","","","","4",""
"10309","mother","babaye,kahawa,mbuzi,jokofu","babaye","f","2","html-keyboard-response","200","f","babaye","true","",""
"3125","","","","","2","html-slider-response","201","","","","4",""
"4176","bed","mapintas,kalipay,haraka,starehe","mapintas","f","2","html-keyboard-response","202","f","mapintas","true","",""
"2883","","","","","2","html-slider-response","203","","","","5",""
"4305","key","miaka,goma,chombo,ahos","chombo","j","2","html-keyboard-response","204","j","chombo","true","",""
"2293","","","","","2","html-slider-response","205","","","","5",""
"23889","page","wakala,ishiri,skina,wimbo","wimbo","n","2","html-keyboard-response","206","n","wimbo","true","",""
"2395","","","","","2","html-slider-response","207","","","","4",""
"13549","pants","haki,pintal,chuki,hari","haki","f","2","html-keyboard-response","208","j","chuki","false","",""
"3362","","","","","2","html-slider-response","209","","","","4",""
"3586","sun","bendi,luha,basi,uongo","basi","j","2","html-keyboard-response","210","j","basi","true","",""
"2976","","","","","2","html-slider-response","211","","","","4",""
"6408","finger","moyo,simu,sufuria,lima","moyo","f","2","html-keyboard-response","212","v","simu","false","",""
"2370","","","","","2","html-slider-response","213","","","","2",""
"6244","shoe","uyoga,nyeusi,hatua,kama","uyoga","f","2","html-keyboard-response","214","n","kama","false","",""
"3390","","","","","2","html-slider-response","215","","","","4",""
"4113","giraffe","daraja,jumatu,hangyo,mahitabo","mahitabo","n","2","html-keyboard-response","216","n","mahitabo","true","",""
"2980","","","","","2","html-slider-response","217","","","","2",""
"5781","dog","lubi,washia,kalamu,bahari","bahari","n","2","html-keyboard-response","218","f","lubi","false","",""
"2101","","","","","2","html-slider-response","219","","","","4",""
"4806","box","kuacha,rafiki,kitande,adui","adui","n","2","html-keyboard-response","220","f","kuacha","false","",""
"2231","","","","","2","html-slider-response","221","","","","4",""
"8150","scissors","tanuri,duga,mtawa,suga","tanuri","f","2","html-keyboard-response","222","v","duga","false","",""
"3479","","","","","2","html-slider-response","223","","","","2",""
"5632","cat","paghukom,neyemba,baki,akili","paghukom","f","2","html-keyboard-response","224","v","neyemba","false","",""
"2523","","","","","2","html-slider-response","225","","","","4",""
"7005","basket","kumbuka,kumba,utepe,hasira","kumba","v","2","html-keyboard-response","226","n","hasira","false","",""
"2662","","","","","2","html-slider-response","227","","","","4",""
"6507","snake","jansa,karon,mvringo,pagtukod","pagtukod","n","2","html-keyboard-response","228","n","pagtukod","true","",""
"3503","","","","","2","html-slider-response","229","","","","4",""
"5599","gift","baba,nyange,pagtawag,baso","pagtawag","j","2","html-keyboard-response","230","n","baso","false","",""
"2243","","","","","2","html-slider-response","231","","","","4",""
"12242","train","sayari,itik,dakika,mungu","sayari","f","2","html-keyboard-response","232","v","itik","false","",""
"2769","","","","","2","html-slider-response","233","","","","4",""
"11119","pudding","abug,mpishi,aibu,iring","aibu","j","2","html-keyboard-response","234","f","abug","false","",""
"2881","","","","","2","html-slider-response","235","","","","2",""
"8339","tomato","chupi,mvua,chupa,takatak","mvua","v","2","html-keyboard-response","236","n","takatak","false","",""
"2061","","","","","2","html-slider-response","237","","","","4",""
"6407","stone","ulimwengu,mkasi,asili,wingi","wingi","n","2","html-keyboard-response","238","n","wingi","true","",""
"1923","","","","","2","html-slider-response","239","","","","4",""
"7995","hammer","mekno,napakyas,kitovu,layag","napakyas","v","2","html-keyboard-response","240","j","kitovu","false","",""
"2887","","","","","2","html-slider-response","241","","","","4",""
"5385","knee","mvuke,kubale,bili,duka","duka","n","2","html-keyboard-response","242","j","bili","false","",""
"1745","","","","","2","html-slider-response","243","","","","4",""
"6653","ceiling","kugita,kawaida,rayna,maua","maua","n","2","html-keyboard-response","244","f","kugita","false","",""
"2054","","","","","2","html-slider-response","245","","","","4",""
"4670","spoon","betri,nzuri,ngazi,pagsulod","pagsulod","n","2","html-keyboard-response","246","v","nzuri","false","",""
"2171","","","","","2","html-slider-response","247","","","","4",""
"4096","marker","mapafu,maji,salita,atay","maji","v","2","html-keyboard-response","248","f","mapafu","false","",""
"2469","","","","","2","html-slider-response","249","","","","4",""
"6245","candle","geza,gabi,farasi,kupanda","geza","f","2","html-keyboard-response","250","f","geza","true","",""
"2716","","","","","2","html-slider-response","251","","","","4",""
"7090","tissue","lamigas,kisiwa,katika,ugomvi","ugomvi","n","2","html-keyboard-response","252","j","katika","false","",""
"1895","","","","","2","html-slider-response","253","","","","4",""
"4485","bridge","daima,sahani,ngono,panya","sahani","v","2","html-keyboard-response","254","v","sahani","true","",""
"2775","","","","","2","html-slider-response","255","","","","5",""
"7703","berry","kofia,abogado,nogozi,kinywa","kofia","f","2","html-keyboard-response","256","f","kofia","true","",""
"2516","","","","","2","html-slider-response","257","","","","5",""
"4615","triangle","kasadpan,kihozi,bentaha,liog","kasadpan","f","2","html-keyboard-response","258","f","kasadpan","true","",""
"3291","","","","","2","html-slider-response","259","","","","5",""
"3482","door","tena,surali,soko,nyota","surali","v","2","html-keyboard-response","260","v","surali","true","",""
"1384","","","","","2","html-slider-response","261","","","","4",""
"10943","fish","bala,baho,buli,imani","buli","j","2","html-keyboard-response","262","j","buli","true","",""
"2251","","","","","2","html-slider-response","263","","","","4",""
"4512","curtain","mchanga,lisud,bulwawan,chubani","mchanga","f","2","html-keyboard-response","264","v","lisud","false","",""
"3289","","","","","2","html-slider-response","265","","","","2",""
"16129","flag","ndege,mkate,trekta,kawa","trekta","j","2","html-keyboard-response","266","j","trekta","true","",""
"2682","","","","","2","html-slider-response","267","","","","5",""
"5246","boat","hamsi,pombe,agalon,kitanda","agalon","j","2","html-keyboard-response","268","j","agalon","true","",""
"2940","","","","","2","html-slider-response","269","","","","4",""
"3671","rose","singizi,mwanake,paghalad,amani","paghalad","j","2","html-keyboard-response","270","j","paghalad","true","",""
"2203","","","","","2","html-slider-response","271","","","","4",""
"10419","lamp","daub,afya,bilaska,mbolea","afya","v","2","html-keyboard-response","272","v","afya","true","",""
"4264","","","","","2","html-slider-response","273","","","","5",""
"2763","cigar","ndugu,kuta,mlango,adhabu","adhabu","n","2","html-keyboard-response","274","v","kuta","false","",""
"2391","","","","","2","html-slider-response","275","","","","4",""
"3405","list","alizeti,kuzama,wingu,kaso","wingu","j","2","html-keyboard-response","276","v","kuzama","false","",""
"2318","","","","","2","html-slider-response","277","","","","5",""
"3202","sheet","bililhon,juuya,watu,kamantis","bililhon","f","2","html-keyboard-response","278","v","juuya","false","",""
"3601","","","","","2","html-slider-response","279","","","","2",""
"3214","picture","silya,chaki,asin,kubwa","kubwa","n","2","html-keyboard-response","280","v","chaki","false","",""
"3475","","","","","2","html-slider-response","281","","","","4",""
"4176","towel","pagpalit,tembo,funzi,pito","pagpalit","f","2","html-keyboard-response","282","j","funzi","false","",""
"4107","","","","","2","html-slider-response","283","","","","4",""
"2337","window","nanga,kujenga,kweli,umaga","kweli","j","2","html-keyboard-response","284","j","kweli","true","",""
"2570","","","","","2","html-slider-response","285","","","","2",""
"29148","box","adui,kuacha,rafiki,kitande","adui","f","3","html-keyboard-response","293","f","adui","true","","4"
"4336","","","","","3","html-slider-response","294","","","","2",""
"6188","","","","","3","html-keyboard-response","295","","","","",""
"19083","pants","haki,pintal,chuki,hari","haki","f","3","html-keyboard-response","296","f","haki","true","","4"
"2287","","","","","3","html-slider-response","297","","","","5",""
"1946","","","","","3","html-keyboard-response","298","","","","",""
"42779","cup","dagat,shimoni,matumai,jeraha","matumai","j","3","html-keyboard-response","299","v","shimoni","false","","4"
"3459","","","","","3","html-slider-response","300","","","","2",""
"6290","","","","","3","html-keyboard-response","301","","","","",""
"16950","triangle","kihozi,kasadpan,bentaha,liog","kasadpan","v","3","html-keyboard-response","302","n","liog","false","","4"
"3016","","","","","3","html-slider-response","303","","","","5",""
"2366","","","","","3","html-keyboard-response","304","","","","",""
"30868","curtain","lisud,bulwawan,mchanga,chubani","mchanga","j","3","html-keyboard-response","305","n","chubani","false","","4"
"3047","","","","","3","html-slider-response","306","","","","4",""
"2226","","","","","3","html-keyboard-response","307","","","","",""
"25384","clock","kartasi,mbwa,abang,osha","mbwa","v","3","html-keyboard-response","308","n","osha","false","","4"
"2358","","","","","3","html-slider-response","309","","","","4",""
"2175","","","","","3","html-keyboard-response","310","","","","",""
"15696","mirror","sulagma,rangi,kanding,furaha","sulagma","f","3","html-keyboard-response","311","f","sulagma","true","","4"
"2624","","","","","3","html-slider-response","312","","","","5",""
"1948","","","","","3","html-keyboard-response","313","","","","",""
"22159","coffin","barua,tubag,hulma,kioo","kioo","n","3","html-keyboard-response","314","n","kioo","true","","1"
"2638","","","","","3","html-slider-response","315","","","","5",""
"2490","","","","","3","html-keyboard-response","316","","","","",""
"21070","magazine","gundi,kiti,mchawi,bahandi","kiti","v","3","html-keyboard-response","317","v","kiti","true","","4"
"3314","","","","","3","html-slider-response","318","","","","5",""
"3000","","","","","3","html-keyboard-response","319","","","","",""
"19467","column","pundok,dila,ufagio,pala","ufagio","j","3","html-keyboard-response","320","j","ufagio","true","","1"
"3135","","","","","3","html-slider-response","321","","","","4",""
"2195","","","","","3","html-keyboard-response","322","","","","",""
"23291","number","shule,kengele,choori,mundamo","mundamo","n","3","html-keyboard-response","323","f","shule","false","","4"
"2586","","","","","3","html-slider-response","324","","","","5",""
"3147","","","","","3","html-keyboard-response","325","","","","",""
"25129","rose","singizi,paghalad,mwanake,amani","paghalad","v","3","html-keyboard-response","326","n","amani","false","","4"
"2636","","","","","3","html-slider-response","327","","","","5",""
"2239","","","","","3","html-keyboard-response","328","","","","",""
"42473","eel","ishara,kunywa,msumari,kabuang","msumari","j","3","html-keyboard-response","329","j","msumari","true","","4"
"2434","","","","","3","html-slider-response","330","","","","4",""
"2058","","","","","3","html-keyboard-response","331","","","","",""
"28318","gift","pagtawag,baba,nyange,baso","pagtawag","f","3","html-keyboard-response","332","v","baba","false","","4"
"1975","","","","","3","html-slider-response","333","","","","4",""
"2062","","","","","3","html-keyboard-response","334","","","","",""
"1986","apple","kisu,ukame,estante,edad","kisu","f","3","html-keyboard-response","335","f","kisu","true","","1"
"3689","","","","","3","html-slider-response","336","","","","5",""
"3047","","","","","3","html-keyboard-response","337","","","","",""
"2427","wheel","bafuni,punda,tawo,baadaye","bafuni","f","3","html-keyboard-response","338","f","bafuni","true","","1"
"2671","","","","","3","html-slider-response","339","","","","5",""
"2660","","","","","3","html-keyboard-response","340","","","","",""
"40252","knee","mvuke,duka,kubale,bili","duka","v","3","html-keyboard-response","341","v","duka","true","","4"
"1929","","","","","3","html-slider-response","342","","","","5",""
"3151","","","","","3","html-keyboard-response","343","","","","",""
"2899","basket","kumbuka,utepe,kumba,hasira","kumba","j","3","html-keyboard-response","344","j","kumba","true","","1"
"3359","","","","","3","html-slider-response","345","","","","5",""
"2480","","","","","3","html-keyboard-response","346","","","","",""
"14268","park","tambok,pwani,bunifu,ihalas","bunifu","j","3","html-keyboard-response","347","j","bunifu","true","","4"
"2636","","","","","3","html-slider-response","348","","","","5",""
"1093","","","","","3","html-keyboard-response","349","","","","",""
"38490","finger","simu,sufuria,moyo,lima","moyo","j","3","html-keyboard-response","350","f","simu","false","","4"
"4514","","","","","3","html-slider-response","351","","","","2",""
"1393","","","","","3","html-keyboard-response","352","","","","",""
"37388","boat","hamsi,pombe,agalon,kitanda","agalon","j","3","html-keyboard-response","353","j","agalon","true","","4"
"2171","","","","","3","html-slider-response","354","","","","5",""
"1376","","","","","3","html-keyboard-response","355","","","","",""
"9221","hill","kushoto,kukimba,matumbo,sweta","matumbo","j","3","html-keyboard-response","356","j","matumbo","true","","4"
"1946","","","","","3","html-slider-response","357","","","","5",""
"1288","","","","","3","html-keyboard-response","358","","","","",""
"25789","train","itik,dakika,mungu,sayari","sayari","n","3","html-keyboard-response","359","v","dakika","false","","4"
"4269","","","","","3","html-slider-response","360","","","","4",""
"2172","","","","","3","html-keyboard-response","361","","","","",""
"21778","wolf","kaburi,ndizi,mchuzi,lugha","lugha","n","3","html-keyboard-response","362","v","ndizi","false","","4"
"3117","","","","","3","html-slider-response","363","","","","5",""
"2030","","","","","3","html-keyboard-response","364","","","","",""
"22608","snake","jansa,karon,mvringo,pagtukod","pagtukod","n","3","html-keyboard-response","365","j","mvringo","false","","4"
"2634","","","","","3","html-slider-response","366","","","","2",""
"3117","","","","","3","html-keyboard-response","367","","","","",""
"31160","tooth","kijiko,uadui,kabalaka,pahiyum","kabalaka","j","3","html-keyboard-response","368","j","kabalaka","true","","4"
"2933","","","","","3","html-slider-response","369","","","","2",""
"1821","","","","","3","html-keyboard-response","370","","","","",""
"30793","notebook","kemia,msitu,kila,mdudu","kemia","f","3","html-keyboard-response","371","n","mdudu","false","","4"
"3928","","","","","3","html-slider-response","372","","","","4",""
"1706","","","","","3","html-keyboard-response","373","","","","",""
"9161","flag","ndege,trekta,mkate,kawa","trekta","v","3","html-keyboard-response","374","v","trekta","true","","4"
"2984","","","","","3","html-slider-response","375","","","","5",""
"1300","","","","","3","html-keyboard-response","376","","","","",""
"13450","squirrel","mahugaw,hofu,ukweli,kichwa","hofu","v","3","html-keyboard-response","377","n","kichwa","false","","4"
"2106","","","","","3","html-slider-response","378","","","","4",""
"1565","","","","","3","html-keyboard-response","379","","","","",""
"18996","door","tena,surali,soko,nyota","surali","v","3","html-keyboard-response","380","v","surali","true","","4"
"2767","","","","","3","html-slider-response","381","","","","5",""
"1210","","","","","3","html-keyboard-response","382","","","","",""
"18642","salmon","mzungu,seri,sensilyo,baharia","sensilyo","j","3","html-keyboard-response","383","j","sensilyo","true","","4"
"1956","","","","","3","html-slider-response","384","","","","5",""
"1284","","","","","3","html-keyboard-response","385","","","","",""
"34801","shoulder","mkuu,kelele,ndaniya,guruwe","mkuu","f","3","html-keyboard-response","386","j","ndaniya","false","","4"
"2035","","","","","3","html-slider-response","387","","","","5",""
"1225","","","","","3","html-keyboard-response","388","","","","",""
"15146","lamp","daub,bilaska,afya,mbolea","afya","j","3","html-keyboard-response","389","j","afya","true","","4"
"3748","","","","","3","html-slider-response","390","","","","4",""
"1835","","","","","3","html-keyboard-response","391","","","","",""
"3192","shelf","bungtod,pamahaw,kadaot,awit","pamahaw","v","3","html-keyboard-response","392","v","pamahaw","true","","1"
"3645","","","","","3","html-slider-response","393","","","","5",""
"2044","","","","","3","html-keyboard-response","394","","","","",""
"14851","human","bado,kikapu,punguza,tinapay","tinapay","n","3","html-keyboard-response","395","n","tinapay","true","","4"
"2411","","","","","3","html-slider-response","396","","","","5",""
"1377","","","","","3","html-keyboard-response","397","","","","",""
"20106","towel","tembo,pagpalit,funzi,pito","pagpalit","v","3","html-keyboard-response","398","v","pagpalit","true","","4"
"2477","","","","","3","html-slider-response","399","","","","2",""
"1924","","","","","3","html-keyboard-response","400","","","","",""
"25710","cat","neyemba,baki,akili,paghukom","paghukom","n","3","html-keyboard-response","401","v","baki","false","","4"
"2725","","","","","3","html-slider-response","402","","","","5",""
"1325","","","","","3","html-keyboard-response","403","","","","",""
"17561","spider","kamwe,bunyag,mkboa,atop","kamwe","f","3","html-keyboard-response","404","f","kamwe","true","","4"
"1988","","","","","3","html-slider-response","405","","","","2",""
"1619","","","","","3","html-keyboard-response","406","","","","",""
"21997","window","nanga,kujenga,kweli,umaga","kweli","j","3","html-keyboard-response","407","f","nanga","false","","4"
"2914","","","","","3","html-slider-response","408","","","","2",""
"1204","","","","","3","html-keyboard-response","409","","","","",""
"3807","woman","bandari,pagtabon,bituin,kovuli","pagtabon","v","3","html-keyboard-response","410","v","pagtabon","true","","1"
"3190","","","","","3","html-slider-response","411","","","","5",""
"1544","","","","","3","html-keyboard-response","412","","","","",""
"16500","giraffe","daraja,jumatu,hangyo,mahitabo","mahitabo","n","3","html-keyboard-response","413","v","jumatu","false","","4"
"1774","","","","","3","html-slider-response","414","","","","4",""
"1363","","","","","3","html-keyboard-response","415","","","","",""
"3485","elephant","kito,petye,pagduol,suka","kito","f","3","html-keyboard-response","416","f","kito","true","","4"
"2763","","","","","3","html-slider-response","417","","","","5",""
"1523","","","","","3","html-keyboard-response","418","","","","",""
"10428","cave","ganti,maisha,nyundo,kesho","kesho","n","3","html-keyboard-response","419","n","kesho","true","","4"
"1722","","","","","3","html-slider-response","420","","","","4",""
"1518","","","","","3","html-keyboard-response","421","","","","",""
"19316","bread","kaili,dizeli,bugas,dari","dari","n","3","html-keyboard-response","422","n","dari","true","","4"
"2911","","","","","3","html-slider-response","423","","","","5",""
"1553","","","","","3","html-keyboard-response","424","","","","",""
"20444","stone","wingi,ulimwengu,mkasi,asili","wingi","f","3","html-keyboard-response","425","f","wingi","true","","4"
"4081","","","","","3","html-slider-response","426","","","","4",""
"1765","","","","","3","html-keyboard-response","427","","","","",""
"25584","donkey","bloke,lalake,elfu,rombus","elfu","j","3","html-keyboard-response","428","v","lalake","false","","4"
"2977","","","","","3","html-slider-response","429","","","","5",""
"1523","","","","","3","html-keyboard-response","430","","","","",""
"17938","bridge","daima,ngono,panya,sahani","sahani","n","3","html-keyboard-response","431","n","sahani","true","","4"
"4034","","","","","3","html-slider-response","432","","","","2",""
"1480","","","","","3","html-keyboard-response","433","","","","",""
"6732","bonfire","mwezi,goti,mfuko,kusanya","goti","v","3","html-keyboard-response","434","v","goti","true","","4"
"3213","","","","","3","html-slider-response","435","","","","5",""
"33917","","","","","3","html-keyboard-response","436","","","","",""
"21298","book","mali,kuhesa,picha,mara","mali","f","3","html-keyboard-response","437","n","mara","false","","4"
"2643","","","","","3","html-slider-response","438","","","","2",""
"1522","","","","","3","html-keyboard-response","439","","","","",""
"12379","fish","bala,buli,baho,imani","buli","v","3","html-keyboard-response","440","n","imani","false","","4"
"5157","","","","","3","html-slider-response","441","","","","1",""
"2019","","","","","3","html-keyboard-response","442","","","","",""
"25264","spoon","pagsulod,betri,nzuri,ngazi","pagsulod","f","3","html-keyboard-response","443","j","nzuri","false","","4"
"3514","","","","","3","html-slider-response","444","","","","5",""
"2003","","","","","3","html-keyboard-response","445","","","","",""
"15380","scissors","duga,mtawa,suga,tanuri","tanuri","n","3","html-keyboard-response","446","v","mtawa","false","","4"
"1695","","","","","3","html-slider-response","447","","","","4",""
"932","","","","","3","html-keyboard-response","448","","","","",""
"19561","page","wakala,ishiri,wimbo,skina","wimbo","j","3","html-keyboard-response","449","j","wimbo","true","","4"
"2600","","","","","3","html-slider-response","450","","","","5",""
"1259","","","","","3","html-keyboard-response","451","","","","",""
"2274","nose","sehemu,gubat,kopa,kidole","sehemu","f","3","html-keyboard-response","452","f","sehemu","true","","1"
"3133","","","","","3","html-slider-response","453","","","","5",""
"1470","","","","","3","html-keyboard-response","454","","","","",""
"29049","ceiling","kugita,kawaida,maua,rayna","maua","j","3","html-keyboard-response","455","f","kugita","false","","4"
"4067","","","","","3","html-slider-response","456","","","","1",""
"1316","","","","","3","html-keyboard-response","457","","","","",""
"29935","bucket","baga,ijayo,init,kiatu","kiatu","n","3","html-keyboard-response","458","n","kiatu","true","","4"
"3058","","","","","3","html-slider-response","459","","","","4",""
"1283","","","","","3","html-keyboard-response","460","","","","",""
"1919","berry","kofia,abogado,nogozi,kinywa","kofia","f","3","html-keyboard-response","461","f","kofia","true","","1"
"2772","","","","","3","html-slider-response","462","","","","4",""
"1345","","","","","3","html-keyboard-response","463","","","","",""
"3637","mother","kahawa,mbuzi,babaye,jokofu","babaye","j","3","html-keyboard-response","464","j","babaye","true","","1"
"3255","","","","","3","html-slider-response","465","","","","5",""
"1983","","","","","3","html-keyboard-response","466","","","","",""
"25669","mosquito","martilyo,isda,taras,gutom","martilyo","f","3","html-keyboard-response","467","f","martilyo","true","","4"
"2511","","","","","3","html-slider-response","468","","","","5",""
"1344","","","","","3","html-keyboard-response","469","","","","",""
"16048","perfume","bino,katuyoan,sungura,ndogo","katuyoan","v","3","html-keyboard-response","470","f","bino","false","","4"
"3375","","","","","3","html-slider-response","471","","","","4",""
"1892","","","","","3","html-keyboard-response","472","","","","",""
"18890","sheet","bililhon,juuya,watu,kamantis","bililhon","f","3","html-keyboard-response","473","v","juuya","false","","4"
"4148","","","","","3","html-slider-response","474","","","","5",""
"1733","","","","","3","html-keyboard-response","475","","","","",""
"2060","puppet","napulo,lamok,mazishi,godoro","mazishi","j","3","html-keyboard-response","476","j","mazishi","true","","1"
"3033","","","","","3","html-slider-response","477","","","","5",""
"2126","","","","","3","html-keyboard-response","478","","","","",""
"19506","poster","nchi,fedha,kasuko,madungog","madungog","n","3","html-keyboard-response","479","n","madungog","true","","4"
"2719","","","","","3","html-slider-response","480","","","","5",""
"1451","","","","","3","html-keyboard-response","481","","","","",""
"6202","music","mraba,baiski,mageho,tumbo","baiski","v","3","html-keyboard-response","482","v","baiski","true","","4"
"2896","","","","","3","html-slider-response","483","","","","4",""
"1053","","","","","3","html-keyboard-response","484","","","","",""
"26201","key","chombo,miaka,goma,ahos","chombo","f","3","html-keyboard-response","485","f","chombo","true","","4"
"3322","","","","","3","html-slider-response","486","","","","4",""
"1385","","","","","3","html-keyboard-response","487","","","","",""
"17814","sock","mamba,ndoora,kimysa,mtirka","mamba","f","3","html-keyboard-response","488","v","ndoora","false","","4"
"3217","","","","","3","html-slider-response","489","","","","2",""
"1253","","","","","3","html-keyboard-response","490","","","","",""
"27222","marker","maji,mapafu,salita,atay","maji","f","3","html-keyboard-response","491","f","maji","true","","4"
"3582","","","","","3","html-slider-response","492","","","","2",""
"1101","","","","","3","html-keyboard-response","493","","","","",""
"11256","office","hazini,yatima,leso,kuna","leso","j","3","html-keyboard-response","494","j","leso","true","","4"
"2089","","","","","3","html-slider-response","495","","","","2",""
"1228","","","","","3","html-keyboard-response","496","","","","",""
"41031","shoe","nyeusi,hatua,kama,uyoga","uyoga","n","3","html-keyboard-response","497","j","kama","false","","4"
"3272","","","","","3","html-slider-response","498","","","","4",""
"1351","","","","","3","html-keyboard-response","499","","","","",""
"26328","cop","bustani,jikoni,mechezo,bakus","mechezo","j","3","html-keyboard-response","500","v","jikoni","false","","4"
"2856","","","","","3","html-slider-response","501","","","","2",""
"1373","","","","","3","html-keyboard-response","502","","","","",""
"19502","bank","silingan,kudhibi,tualya,ofisi","silingan","f","3","html-keyboard-response","503","v","kudhibi","false","","4"
"3570","","","","","3","html-slider-response","504","","","","2",""
"1182","","","","","3","html-keyboard-response","505","","","","",""
"2184","letter","kifua,filimbi,chuma,uhuru","kifua","f","3","html-keyboard-response","506","f","kifua","true","","1"
"2920","","","","","3","html-slider-response","507","","","","5",""
"1690","","","","","3","html-keyboard-response","508","","","","",""
"2300","dog","bahari,lubi,washia,kalamu","bahari","f","3","html-keyboard-response","509","f","bahari","true","","1"
"2485","","","","","3","html-slider-response","510","","","","5",""
"1286","","","","","3","html-keyboard-response","511","","","","",""
"19578","shop","nopya,samaki,kerida,ndezu","samaki","v","3","html-keyboard-response","512","v","samaki","true","","4"
"3929","","","","","3","html-slider-response","513","","","","4",""
"1127","","","","","3","html-keyboard-response","514","","","","",""
"5594","flower","tamasha,bega,lobo,usiku","bega","v","3","html-keyboard-response","515","v","bega","true","","4"
"3088","","","","","3","html-slider-response","516","","","","4",""
"891","","","","","3","html-keyboard-response","517","","","","",""
"2086","cigar","ndugu,kuta,adhabu,mlango","adhabu","j","3","html-keyboard-response","518","j","adhabu","true","","1"
"3552","","","","","3","html-slider-response","519","","","","5",""
"1733","","","","","3","html-keyboard-response","520","","","","",""
"25343","hammer","mekno,napakyas,kitovu,layag","napakyas","v","3","html-keyboard-response","521","j","kitovu","false","","4"
"2716","","","","","3","html-slider-response","522","","","","5",""
"1317","","","","","3","html-keyboard-response","523","","","","",""
"10694","fork","baboy,paghago,mgonjwa,gorisi","mgonjwa","j","3","html-keyboard-response","524","f","baboy","false","","4"
"2942","","","","","3","html-slider-response","525","","","","4",""
"2447","","","","","3","html-keyboard-response","526","","","","",""
"2389","sun","basi,bendi,luha,uongo","basi","f","3","html-keyboard-response","527","f","basi","true","","1"
"2675","","","","","3","html-slider-response","528","","","","5",""
"1651","","","","","3","html-keyboard-response","529","","","","",""
"26694","ladder","mashua,mwanga,pangalan,kamba","pangalan","j","3","html-keyboard-response","530","n","kamba","false","","4"
"3289","","","","","3","html-slider-response","531","","","","5",""
"1936","","","","","3","html-keyboard-response","532","","","","",""
"2590","banana","kazi,kasamok,hagdan,twai","kazi","f","3","html-keyboard-response","533","f","kazi","true","","1"
"2869","","","","","3","html-slider-response","534","","","","5",""
"1434","","","","","3","html-keyboard-response","535","","","","",""
"19677","pudding","abug,mpishi,iring,aibu","aibu","n","3","html-keyboard-response","536","v","mpishi","false","","4"
"5408","","","","","3","html-slider-response","537","","","","4",""
"1458","","","","","3","html-keyboard-response","538","","","","",""
"21518","body","nyundu,tindashan,jibini,kununa","tindashan","v","3","html-keyboard-response","539","f","nyundu","false","","4"
"3252","","","","","3","html-slider-response","540","","","","2",""
"1130","","","","","3","html-keyboard-response","541","","","","",""
"16517","bed","mapintas,kalipay,haraka,starehe","mapintas","f","3","html-keyboard-response","542","f","mapintas","true","","4"
"2391","","","","","3","html-slider-response","543","","","","5",""
"1237","","","","","3","html-keyboard-response","544","","","","",""
"11160","tissue","lamigas,kisiwa,katika,ugomvi","ugomvi","n","3","html-keyboard-response","545","j","katika","false","","4"
"2585","","","","","3","html-slider-response","546","","","","4",""
"1083","","","","","3","html-keyboard-response","547","","","","",""
"21200","candle","geza,gabi,farasi,kupanda","geza","f","3","html-keyboard-response","548","n","kupanda","false","","4"
"3040","","","","","3","html-slider-response","549","","","","5",""
"1697","","","","","3","html-keyboard-response","550","","","","",""
"1955","tomato","chupi,mvua,chupa,takatak","mvua","v","3","html-keyboard-response","551","v","mvua","true","","1"
"2189","","","","","3","html-slider-response","552","","","","5",""
"1320","","","","","3","html-keyboard-response","553","","","","",""
"21805","list","alizeti,wingu,kuzama,kaso","wingu","v","3","html-keyboard-response","554","v","wingu","true","","4"
"2355","","","","","3","html-slider-response","555","","","","5",""
"1341","","","","","3","html-keyboard-response","556","","","","",""
"10851","olive","bata,jiwe,siagi,welder","jiwe","v","3","html-keyboard-response","557","v","jiwe","true","","4"
"1928","","","","","3","html-slider-response","558","","","","5",""
"920","","","","","3","html-keyboard-response","559","","","","",""
"2878","picture","silya,chaki,asin,kubwa","kubwa","n","3","html-keyboard-response","560","n","kubwa","true","","1"
"2090","","","","","3","html-slider-response","561","","","","5",""
"1412","","","","","3","html-keyboard-response","562","","","","",""
"3360","page","wakala,wimbo,ishiri,skina","wimbo","v","4","html-keyboard-response","888","v","wimbo","true","",""
"7172","","","","","4","html-slider-response","889","","","","4",""
"4955","sheet","juuya,watu,kamantis,bililhon","bililhon","n","4","html-keyboard-response","890","f","juuya","false","",""
"3086","","","","","4","html-slider-response","891","","","","4",""
"8967","ladder","mashua,pangalan,mwanga,kamba","pangalan","v","4","html-keyboard-response","892","v","pangalan","true","",""
"2629","","","","","4","html-slider-response","893","","","","5",""
"10362","door","tena,soko,surali,nyota","surali","j","4","html-keyboard-response","894","j","surali","true","",""
"1679","","","","","4","html-slider-response","895","","","","5",""
"9656","spider","kamwe,bunyag,mkboa,atop","kamwe","f","4","html-keyboard-response","896","f","kamwe","true","",""
"4201","","","","","4","html-slider-response","897","","","","3",""
"22202","picture","silya,chaki,kubwa,asin","kubwa","j","4","html-keyboard-response","898","v","chaki","false","",""
"5369","","","","","4","html-slider-response","899","","","","4",""
"17352","boat","hamsi,pombe,agalon,kitanda","agalon","j","4","html-keyboard-response","900","v","pombe","false","",""
"2898","","","","","4","html-slider-response","901","","","","4",""
"5688","donkey","elfu,bloke,lalake,rombus","elfu","f","4","html-keyboard-response","902","f","elfu","true","",""
"2643","","","","","4","html-slider-response","903","","","","4",""
"18722","book","mali,kuhesa,picha,mara","mali","f","4","html-keyboard-response","904","n","mara","false","",""
"1848","","","","","4","html-slider-response","905","","","","5",""
"23054","cup","dagat,shimoni,jeraha,matumai","matumai","n","4","html-keyboard-response","906","v","shimoni","false","",""
"2478","","","","","4","html-slider-response","907","","","","5",""
"8218","sun","bendi,luha,basi,uongo","basi","j","4","html-keyboard-response","908","j","basi","true","",""
"4159","","","","","4","html-slider-response","909","","","","5",""
"16162","pudding","aibu,abug,mpishi,iring","aibu","f","4","html-keyboard-response","910","v","abug","false","",""
"2968","","","","","4","html-slider-response","911","","","","5",""
"19742","human","bado,kikapu,tinapay,punguza","tinapay","j","4","html-keyboard-response","912","j","tinapay","true","",""
"2957","","","","","4","html-slider-response","913","","","","5",""
"18842","squirrel","mahugaw,ukweli,hofu,kichwa","hofu","j","4","html-keyboard-response","914","v","ukweli","false","",""
"2481","","","","","4","html-slider-response","915","","","","5",""
"5640","park","bunifu,tambok,pwani,ihalas","bunifu","f","4","html-keyboard-response","916","f","bunifu","true","",""
"2043","","","","","4","html-slider-response","917","","","","5",""
"946506","poster","nchi,fedha,madungog,kasuko","madungog","j","4","html-keyboard-response","918","j","madungog","true","",""
"3169","","","","","4","html-slider-response","919","","","","5",""
"89888","wolf","kaburi,ndizi,lugha,mchuzi","lugha","j","4","html-keyboard-response","920","v","ndizi","false","",""
"3546","","","","","4","html-slider-response","921","","","","5",""
"23050","cat","neyemba,baki,akili,paghukom","paghukom","n","4","html-keyboard-response","922","n","paghukom","true","",""
"2310","","","","","4","html-slider-response","923","","","","4",""
"9573","fish","bala,baho,buli,imani","buli","j","4","html-keyboard-response","924","j","buli","true","",""
"3797","","","","","4","html-slider-response","925","","","","5",""
"14400","tooth","kijiko,uadui,kabalaka,pahiyum","kabalaka","j","4","html-keyboard-response","926","j","kabalaka","true","",""
"3760","","","","","4","html-slider-response","927","","","","5",""
"1053500","cave","ganti,maisha,kesho,nyundo","kesho","j","4","html-keyboard-response","928","n","nyundo","false","",""
"3305","","","","","4","html-slider-response","929","","","","5",""
"24138","lamp","daub,bilaska,afya,mbolea","afya","j","4","html-keyboard-response","930","v","bilaska","false","",""
"2924","","","","","4","html-slider-response","931","","","","5",""
"2478","banana","kasamok,kazi,hagdan,twai","kazi","v","4","html-keyboard-response","932","n","twai","false","",""
"3913","","","","","4","html-slider-response","933","","","","2",""
"5329","bonfire","mwezi,mfuko,goti,kusanya","goti","j","4","html-keyboard-response","934","j","goti","true","",""
"2884","","","","","4","html-slider-response","935","","","","5",""
"3759","cop","bustani,jikoni,bakus,mechezo","mechezo","n","4","html-keyboard-response","936","j","bakus","false","",""
"2807","","","","","4","html-slider-response","937","","","","4",""
"3994","marker","mapafu,salita,atay,maji","maji","n","4","html-keyboard-response","938","j","atay","false","",""
"2853","","","","","4","html-slider-response","939","","","","4",""
"7595","window","nanga,kujenga,kweli,umaga","kweli","j","4","html-keyboard-response","940","f","nanga","false","",""
"2473","","","","","4","html-slider-response","941","","","","4",""
"6143","body","nyundu,jibini,kununa,tindashan","tindashan","n","4","html-keyboard-response","942","j","kununa","false","",""
"5590","","","","","4","html-slider-response","943","","","","3",""
"4879","apple","ukame,estante,edad,kisu","kisu","n","4","html-keyboard-response","944","n","kisu","true","",""
"4189","","","","","4","html-slider-response","945","","","","5",""
"4845","salmon","mzungu,seri,baharia,sensilyo","sensilyo","n","4","html-keyboard-response","946","j","baharia","false","",""
"3190","","","","","4","html-slider-response","947","","","","5",""
"8337","bed","mapintas,kalipay,haraka,starehe","mapintas","f","4","html-keyboard-response","948","v","kalipay","false","",""
"3005","","","","","4","html-slider-response","949","","","","5",""
"4228","berry","abogado,kofia,nogozi,kinywa","kofia","v","4","html-keyboard-response","950","j","nogozi","false","",""
"4384","","","","","4","html-slider-response","951","","","","5",""
"5441","mirror","rangi,kanding,furaha,sulagma","sulagma","n","4","html-keyboard-response","952","n","sulagma","true","",""
"2743","","","","","4","html-slider-response","953","","","","5",""
"7875","flag","ndege,mkate,kawa,trekta","trekta","n","4","html-keyboard-response","954","n","trekta","true","",""
"3528","","","","","4","html-slider-response","955","","","","4",""
"4772","shoulder","kelele,ndaniya,mkuu,guruwe","mkuu","j","4","html-keyboard-response","956","j","mkuu","true","",""
"2302","","","","","4","html-slider-response","957","","","","5",""
"15031","tissue","lamigas,ugomvi,kisiwa,katika","ugomvi","v","4","html-keyboard-response","958","v","ugomvi","true","",""
"2652","","","","","4","html-slider-response","959","","","","4",""
"12765","notebook","msitu,kemia,kila,mdudu","kemia","v","4","html-keyboard-response","960","j","kila","false","",""
"2819","","","","","4","html-slider-response","961","","","","4",""
"5507","snake","jansa,karon,pagtukod,mvringo","pagtukod","j","4","html-keyboard-response","962","j","pagtukod","true","",""
"4176","","","","","4","html-slider-response","963","","","","4",""
"3533","finger","simu,sufuria,lima,moyo","moyo","n","4","html-keyboard-response","964","n","moyo","true","",""
"2600","","","","","4","html-slider-response","965","","","","4",""
"15841","basket","kumbuka,utepe,hasira,kumba","kumba","n","4","html-keyboard-response","966","v","utepe","false","",""
"2959","","","","","4","html-slider-response","967","","","","5",""
"2452","curtain","lisud,mchanga,bulwawan,chubani","mchanga","v","4","html-keyboard-response","968","n","chubani","false","",""
"3221","","","","","4","html-slider-response","969","","","","5",""
"9047","perfume","bino,sungura,katuyoan,ndogo","katuyoan","j","4","html-keyboard-response","970","f","bino","false","",""
"3546","","","","","4","html-slider-response","971","","","","5",""
"5996","key","miaka,chombo,goma,ahos","chombo","v","4","html-keyboard-response","972","n","ahos","false","",""
"3165","","","","","4","html-slider-response","973","","","","4",""
"5927","olive","jiwe,bata,siagi,welder","jiwe","f","4","html-keyboard-response","974","v","bata","false","",""
"3435","","","","","4","html-slider-response","975","","","","4",""
"4416","rose","paghalad,singizi,mwanake,amani","paghalad","f","4","html-keyboard-response","976","f","paghalad","true","",""
"2977","","","","","4","html-slider-response","977","","","","4",""
"9637","bridge","daima,ngono,sahani,panya","sahani","j","4","html-keyboard-response","978","n","panya","false","",""
"3394","","","","","4","html-slider-response","979","","","","4",""
"2374","hill","kushoto,matumbo,kukimba,sweta","matumbo","v","4","html-keyboard-response","980","n","sweta","false","",""
"6241","","","","","4","html-slider-response","981","","","","2",""
"6118","letter","filimbi,kifua,chuma,uhuru","kifua","v","4","html-keyboard-response","982","j","chuma","false","",""
"2819","","","","","4","html-slider-response","983","","","","2",""
"6204","sock","ndoora,mamba,kimysa,mtirka","mamba","v","4","html-keyboard-response","984","f","ndoora","false","",""
"7227","","","","","4","html-slider-response","985","","","","4",""
"6063","fork","mgonjwa,baboy,paghago,gorisi","mgonjwa","f","4","html-keyboard-response","986","v","baboy","false","",""
"3425","","","","","4","html-slider-response","987","","","","5",""
"7645","box","kuacha,adui,rafiki,kitande","adui","v","4","html-keyboard-response","988","f","kuacha","false","",""
"3093","","","","","4","html-slider-response","989","","","","4",""
"8044","gift","baba,nyange,baso,pagtawag","pagtawag","n","4","html-keyboard-response","990","f","baba","false","",""
"2761","","","","","4","html-slider-response","991","","","","4",""
"3685","bucket","baga,ijayo,kiatu,init","kiatu","j","4","html-keyboard-response","992","v","ijayo","false","",""
"2454","","","","","4","html-slider-response","993","","","","4",""
"5123","shop","nopya,kerida,ndezu,samaki","samaki","n","4","html-keyboard-response","994","f","nopya","false","",""
"4302","","","","","4","html-slider-response","995","","","","2",""
"24463","puppet","mazishi,napulo,lamok,godoro","mazishi","f","4","html-keyboard-response","996","v","napulo","false","",""
"5203","","","","","4","html-slider-response","997","","","","2",""
"5199","nose","gubat,kopa,kidole,sehemu","sehemu","n","4","html-keyboard-response","998","n","sehemu","true","",""
"4055","","","","","4","html-slider-response","999","","","","4",""
"23567","music","mraba,baiski,mageho,tumbo","baiski","v","4","html-keyboard-response","1000","n","tumbo","false","",""
"5835","","","","","4","html-slider-response","1001","","","","2",""
"6390","dog","lubi,washia,kalamu,bahari","bahari","n","4","html-keyboard-response","1002","f","lubi","false","",""
"2838","","","","","4","html-slider-response","1003","","","","4",""
"9313","eel","ishara,kunywa,kabuang,msumari","msumari","n","4","html-keyboard-response","1004","n","msumari","true","",""
"3265","","","","","4","html-slider-response","1005","","","","4",""
"3790","number","shule,mundamo,kengele,choori","mundamo","v","4","html-keyboard-response","1006","n","choori","false","",""
"3223","","","","","4","html-slider-response","1007","","","","5",""
"3325","tomato","chupi,chupa,mvua,takatak","mvua","j","4","html-keyboard-response","1008","n","takatak","false","",""
"2676","","","","","4","html-slider-response","1009","","","","4",""
"5879","coffin","kioo,barua,tubag,hulma","kioo","f","4","html-keyboard-response","1010","j","tubag","false","",""
"2987","","","","","4","html-slider-response","1011","","","","4",""
"7261","knee","mvuke,duka,kubale,bili","duka","v","4","html-keyboard-response","1012","v","duka","true","",""
"4769","","","","","4","html-slider-response","1013","","","","2",""
"4763","woman","bandari,bituin,kovuli,pagtabon","pagtabon","n","4","html-keyboard-response","1014","n","pagtabon","true","",""
"3220","","","","","4","html-slider-response","1015","","","","5",""
"3883","stone","ulimwengu,mkasi,asili,wingi","wingi","n","4","html-keyboard-response","1016","n","wingi","true","",""
"2625","","","","","4","html-slider-response","1017","","","","5",""
"3592","bread","kaili,dizeli,dari,bugas","dari","j","4","html-keyboard-response","1018","v","dizeli","false","",""
"2506","","","","","4","html-slider-response","1019","","","","4",""
"5067","triangle","kihozi,bentaha,kasadpan,liog","kasadpan","j","4","html-keyboard-response","1020","n","liog","false","",""
"3927","","","","","4","html-slider-response","1021","","","","5",""
"14493","scissors","duga,mtawa,suga,tanuri","tanuri","n","4","html-keyboard-response","1022","j","suga","false","",""
"3423","","","","","4","html-slider-response","1023","","","","4",""
"6804","giraffe","daraja,jumatu,mahitabo,hangyo","mahitabo","j","4","html-keyboard-response","1024","j","mahitabo","true","",""
"3580","","","","","4","html-slider-response","1025","","","","4",""
"16745","flower","bega,tamasha,lobo,usiku","bega","f","4","html-keyboard-response","1026","f","bega","true","",""
"2983","","","","","4","html-slider-response","1027","","","","5",""
"2938","candle","gabi,geza,farasi,kupanda","geza","v","4","html-keyboard-response","1028","v","geza","true","",""
"4759","","","","","4","html-slider-response","1029","","","","5",""
"7876","mother","kahawa,mbuzi,jokofu,babaye","babaye","n","4","html-keyboard-response","1030","n","babaye","true","",""
"2970","","","","","4","html-slider-response","1031","","","","4",""
"6598","towel","tembo,funzi,pito,pagpalit","pagpalit","n","4","html-keyboard-response","1032","j","pito","false","",""
"3273","","","","","4","html-slider-response","1033","","","","5",""
"3817","elephant","petye,pagduol,kito,suka","kito","j","4","html-keyboard-response","1034","j","kito","true","",""
"3008","","","","","4","html-slider-response","1035","","","","5",""
"3052","shelf","pamahaw,bungtod,kadaot,awit","pamahaw","f","4","html-keyboard-response","1036","f","pamahaw","true","",""
"3271","","","","","4","html-slider-response","1037","","","","4",""
"10161","mosquito","martilyo,isda,taras,gutom","martilyo","f","4","html-keyboard-response","1038","v","isda","false","",""
"2555","","","","","4","html-slider-response","1039","","","","5",""
"4376","column","pundok,ufagio,dila,pala","ufagio","v","4","html-keyboard-response","1040","n","pala","false","",""
"3338","","","","","4","html-slider-response","1041","","","","4",""
"11212","pants","haki,pintal,chuki,hari","haki","f","4","html-keyboard-response","1042","n","hari","false","",""
"2508","","","","","4","html-slider-response","1043","","","","5",""
"6553","list","alizeti,kuzama,kaso,wingu","wingu","n","4","html-keyboard-response","1044","j","kaso","false","",""
"6044","","","","","4","html-slider-response","1045","","","","2",""
"38260","bank","kudhibi,tualya,silingan,ofisi","silingan","j","4","html-keyboard-response","1046","j","silingan","true","",""
"9121","","","","","4","html-slider-response","1047","","","","4",""
"3565","clock","mbwa,kartasi,abang,osha","mbwa","f","4","html-keyboard-response","1048","n","osha","false","",""
"2554","","","","","4","html-slider-response","1049","","","","4",""
"10987","ceiling","maua,kugita,kawaida,rayna","maua","f","4","html-keyboard-response","1050","v","kugita","false","",""
"3211","","","","","4","html-slider-response","1051","","","","4",""
"3405","train","itik,sayari,dakika,mungu","sayari","v","4","html-keyboard-response","1052","n","mungu","false","",""
"3424","","","","","4","html-slider-response","1053","","","","4",""
"3180","magazine","kiti,gundi,mchawi,bahandi","kiti","f","4","html-keyboard-response","1054","f","kiti","true","",""
"2536","","","","","4","html-slider-response","1055","","","","4",""
"20474","office","hazini,leso,yatima,kuna","leso","v","4","html-keyboard-response","1056","j","yatima","false","",""
"3742","","","","","4","html-slider-response","1057","","","","4",""
"5307","wheel","punda,tawo,bafuni,baadaye","bafuni","j","4","html-keyboard-response","1058","j","bafuni","true","",""
"5654","","","","","4","html-slider-response","1059","","","","2",""
"287262","spoon","betri,pagsulod,nzuri,ngazi","pagsulod","v","4","html-keyboard-response","1060","n","ngazi","false","",""
"3154","","","","","4","html-slider-response","1061","","","","5",""
"1932","hammer","mekno,kitovu,layag,napakyas","napakyas","n","4","html-keyboard-response","1062","v","kitovu","false","",""
"3431","","","","","4","html-slider-response","1063","","","","4",""
"2623","cigar","ndugu,adhabu,kuta,mlango","adhabu","v","4","html-keyboard-response","1064","j","kuta","false","",""
"4306","","","","","4","html-slider-response","1065","","","","2",""
"12337","shoe","nyeusi,hatua,uyoga,kama","uyoga","j","4","html-keyboard-response","1066","f","nyeusi","false","",""
"3288","","","","","4","html-slider-response","1067","","","","4",""
"2694","list","alizeti,wingu,kuzama,kaso","wingu","v","5","html-keyboard-response","1069","n","kaso","false","",""
"2637","","","","","5","html-slider-response","1070","","","","4",""
"1535","number","shule,kengele,mundamo,choori","mundamo","j","5","html-keyboard-response","1071","v","kengele","false","",""
"7442","","","","","5","html-slider-response","1072","","","","4",""
"2977","apple","ukame,estante,edad,kisu","kisu","n","5","html-keyboard-response","1073","j","edad","false","",""
"3426","","","","","5","html-slider-response","1074","","","","4",""
"2368","knee","mvuke,kubale,bili,duka","duka","n","5","html-keyboard-response","1075","f","mvuke","false","",""
"9853","","","","","5","html-slider-response","1076","","","","4",""
"1611","tooth","kijiko,uadui,kabalaka,pahiyum","kabalaka","j","5","html-keyboard-response","1077","f","kijiko","false","",""
"3258","","","","","5","html-slider-response","1078","","","","4",""
"4787","berry","abogado,kofia,nogozi,kinywa","kofia","v","5","html-keyboard-response","1079","n","kinywa","false","",""
"2775","","","","","5","html-slider-response","1080","","","","4",""
"1401","bridge","daima,ngono,sahani,panya","sahani","j","5","html-keyboard-response","1081","n","panya","false","",""
"2408","","","","","5","html-slider-response","1082","","","","4",""
"1599","perfume","bino,sungura,ndogo,katuyoan","katuyoan","n","5","html-keyboard-response","1083","v","sungura","false","",""
"3648","","","","","5","html-slider-response","1084","","","","4",""
"1846","ladder","mashua,mwanga,kamba,pangalan","pangalan","n","5","html-keyboard-response","1085","n","pangalan","true","",""
"3597","","","","","5","html-slider-response","1086","","","","4",""
"2442","pants","haki,pintal,chuki,hari","haki","f","5","html-keyboard-response","1087","n","hari","false","",""
"3650","","","","","5","html-slider-response","1088","","","","4",""
"1222","salmon","mzungu,sensilyo,seri,baharia","sensilyo","v","5","html-keyboard-response","1089","v","sensilyo","true","",""
"2647","","","","","5","html-slider-response","1090","","","","2",""
"2776","coffin","barua,tubag,kioo,hulma","kioo","j","5","html-keyboard-response","1091","n","hulma","false","",""
"7490","","","","","5","html-slider-response","1092","","","","2",""
"2357","park","tambok,pwani,bunifu,ihalas","bunifu","j","5","html-keyboard-response","1093","n","ihalas","false","",""
"7355","","","","","5","html-slider-response","1094","","","","2",""
"11572","giraffe","daraja,jumatu,hangyo,mahitabo","mahitabo","n","5","html-keyboard-response","1095","v","jumatu","false","",""
"3584","","","","","5","html-slider-response","1096","","","","2",""
"2899","mirror","rangi,kanding,sulagma,furaha","sulagma","j","5","html-keyboard-response","1097","v","kanding","false","",""
"3184","","","","","5","html-slider-response","1098","","","","4",""
"2589","ceiling","kugita,maua,kawaida,rayna","maua","v","5","html-keyboard-response","1099","n","rayna","false","",""
"2980","","","","","5","html-slider-response","1100","","","","4",""
"2425","marker","maji,mapafu,salita,atay","maji","f","5","html-keyboard-response","1101","f","maji","true","",""
"3828","","","","","5","html-slider-response","1102","","","","4",""
"3610","sock","mamba,ndoora,kimysa,mtirka","mamba","f","5","html-keyboard-response","1103","v","ndoora","false","",""
"5349","","","","","5","html-slider-response","1104","","","","4",""
"1960","cop","bustani,jikoni,bakus,mechezo","mechezo","n","5","html-keyboard-response","1105","f","bustani","false","",""
"6226","","","","","5","html-slider-response","1106","","","","2",""
"3318","gift","baba,pagtawag,nyange,baso","pagtawag","v","5","html-keyboard-response","1107","v","pagtawag","true","",""
"2854","","","","","5","html-slider-response","1108","","","","4",""
"5644","notebook","kemia,msitu,kila,mdudu","kemia","f","5","html-keyboard-response","1109","n","mdudu","false","",""
"3619","","","","","5","html-slider-response","1110","","","","4",""
"2292","bank","kudhibi,tualya,ofisi,silingan","silingan","n","5","html-keyboard-response","1111","j","ofisi","false","",""
"4080","","","","","5","html-slider-response","1112","","","","4",""
"2963","letter","filimbi,chuma,uhuru,kifua","kifua","n","5","html-keyboard-response","1113","f","filimbi","false","",""
"3170","","","","","5","html-slider-response","1114","","","","4",""
"3959","candle","gabi,geza,farasi,kupanda","geza","v","5","html-keyboard-response","1115","j","farasi","false","",""
"2861","","","","","5","html-slider-response","1116","","","","4",""
"1110","bread","kaili,dizeli,bugas,dari","dari","n","5","html-keyboard-response","1117","v","dizeli","false","",""
"3646","","","","","5","html-slider-response","1118","","","","4",""
"1484","snake","jansa,karon,pagtukod,mvringo","pagtukod","j","5","html-keyboard-response","1119","v","karon","false","",""
"3750","","","","","5","html-slider-response","1120","","","","4",""
"3765","rose","singizi,paghalad,mwanake,amani","paghalad","v","5","html-keyboard-response","1121","f","singizi","false","",""
"4081","","","","","5","html-slider-response","1122","","","","2",""
"1406","hill","kushoto,kukimba,sweta,matumbo","matumbo","n","5","html-keyboard-response","1123","n","matumbo","true","",""
"4378","","","","","5","html-slider-response","1124","","","","4",""
"1456","train","sayari,itik,dakika,mungu","sayari","f","5","html-keyboard-response","1125","n","mungu","false","",""
"8891","","","","","5","html-slider-response","1126","","","","4",""
"1286","shop","nopya,kerida,samaki,ndezu","samaki","j","5","html-keyboard-response","1127","n","ndezu","false","",""
"5960","","","","","5","html-slider-response","1128","","","","4",""
"3148","nose","sehemu,gubat,kopa,kidole","sehemu","f","5","html-keyboard-response","1129","v","gubat","false","",""
"5129","","","","","5","html-slider-response","1130","","","","4",""
"2466","boat","hamsi,pombe,kitanda,agalon","agalon","n","5","html-keyboard-response","1131","f","hamsi","false","",""
"2304","","","","","5","html-slider-response","1132","","","","4",""
"1273","body","nyundu,tindashan,jibini,kununa","tindashan","v","5","html-keyboard-response","1133","v","tindashan","true","",""
"4468","","","","","5","html-slider-response","1134","","","","2",""
"1679","bed","kalipay,mapintas,haraka,starehe","mapintas","v","5","html-keyboard-response","1135","f","kalipay","false","",""
"2796","","","","","5","html-slider-response","1136","","","","2",""
"2678","squirrel","mahugaw,ukweli,hofu,kichwa","hofu","j","5","html-keyboard-response","1137","v","ukweli","false","",""
"4034","","","","","5","html-slider-response","1138","","","","4",""
"1233","window","kweli,nanga,kujenga,umaga","kweli","f","5","html-keyboard-response","1139","v","nanga","false","",""
"3575","","","","","5","html-slider-response","1140","","","","4",""
"238549","bonfire","goti,mwezi,mfuko,kusanya","goti","f","5","html-keyboard-response","1141","f","goti","true","",""
"5109","","","","","5","html-slider-response","1142","","","","5",""
"3967","fish","buli,bala,baho,imani","buli","f","5","html-keyboard-response","1143","v","bala","false","",""
"2604","","","","","5","html-slider-response","1144","","","","5",""
"4675","cat","neyemba,baki,akili,paghukom","paghukom","n","5","html-keyboard-response","1145","n","paghukom","true","",""
"2523","","","","","5","html-slider-response","1146","","","","5",""
"11475","spider","bunyag,kamwe,mkboa,atop","kamwe","v","5","html-keyboard-response","1147","n","atop","false","",""
"3570","","","","","5","html-slider-response","1148","","","","5",""
"60542","eel","ishara,kunywa,kabuang,msumari","msumari","n","5","html-keyboard-response","1149","n","msumari","true","",""
"14826","","","","","5","html-slider-response","1150","","","","5",""
"2297","woman","bandari,bituin,pagtabon,kovuli","pagtabon","j","5","html-keyboard-response","1151","j","pagtabon","true","",""
"2162","","","","","5","html-slider-response","1152","","","","5",""
"2661","magazine","gundi,mchawi,kiti,bahandi","kiti","j","5","html-keyboard-response","1153","j","kiti","true","",""
"2115","","","","","5","html-slider-response","1154","","","","5",""
"4100","pudding","aibu,abug,mpishi,iring","aibu","f","5","html-keyboard-response","1155","v","abug","false","",""
"2511","","","","","5","html-slider-response","1156","","","","5",""
"3233","lamp","daub,afya,bilaska,mbolea","afya","v","5","html-keyboard-response","1157","j","bilaska","false","",""
"3919","","","","","5","html-slider-response","1158","","","","2",""
"1907","cave","ganti,kesho,maisha,nyundo","kesho","v","5","html-keyboard-response","1159","f","ganti","false","",""
"2080","","","","","5","html-slider-response","1160","","","","2",""
"3075","shoulder","kelele,mkuu,ndaniya,guruwe","mkuu","v","5","html-keyboard-response","1161","j","ndaniya","false","",""
"5561","","","","","5","html-slider-response","1162","","","","4",""
"2421","stone","ulimwengu,mkasi,asili,wingi","wingi","n","5","html-keyboard-response","1163","n","wingi","true","",""
"2595","","","","","5","html-slider-response","1164","","","","5",""
"2755","column","pundok,dila,pala,ufagio","ufagio","n","5","html-keyboard-response","1165","v","dila","false","",""
"3979","","","","","5","html-slider-response","1166","","","","2",""
"2203","page","wakala,wimbo,ishiri,skina","wimbo","v","5","html-keyboard-response","1167","n","skina","false","",""
"3720","","","","","5","html-slider-response","1168","","","","2",""
"2775","shoe","nyeusi,uyoga,hatua,kama","uyoga","v","5","html-keyboard-response","1169","j","hatua","false","",""
"17369","","","","","5","html-slider-response","1170","","","","4",""
"4020","clock","kartasi,abang,mbwa,osha","mbwa","j","5","html-keyboard-response","1171","n","osha","false","",""
"2822","","","","","5","html-slider-response","1172","","","","4",""
"2554","towel","pagpalit,tembo,funzi,pito","pagpalit","f","5","html-keyboard-response","1173","n","pito","false","",""
"5769","","","","","5","html-slider-response","1174","","","","4",""
"5853","tomato","chupi,mvua,chupa,takatak","mvua","v","5","html-keyboard-response","1175","f","chupi","false","",""
"4532","","","","","5","html-slider-response","1176","","","","4",""
"1215","bucket","baga,ijayo,kiatu,init","kiatu","j","5","html-keyboard-response","1177","f","baga","false","",""
"3507","","","","","5","html-slider-response","1178","","","","4",""
"520","finger","moyo,simu,sufuria,lima","moyo","f","5","html-keyboard-response","1179","v","simu","false","",""
"2559","","","","","5","html-slider-response","1180","","","","4",""
"892","mother","kahawa,babaye,mbuzi,jokofu","babaye","v","5","html-keyboard-response","1181","f","kahawa","false","",""
"3257","","","","","5","html-slider-response","1182","","","","4",""
"1082","human","bado,tinapay,kikapu,punguza","tinapay","v","5","html-keyboard-response","1183","v","tinapay","true","",""
"2337","","","","","5","html-slider-response","1184","","","","4",""
"1620","sun","bendi,luha,uongo,basi","basi","n","5","html-keyboard-response","1185","f","bendi","false","",""
"3582","","","","","5","html-slider-response","1186","","","","4",""
"1619","fork","baboy,mgonjwa,paghago,gorisi","mgonjwa","v","5","html-keyboard-response","1187","j","paghago","false","",""
"6112","","","","","5","html-slider-response","1188","","","","4",""
"1205","donkey","bloke,lalake,rombus,elfu","elfu","n","5","html-keyboard-response","1189","v","lalake","false","",""
"2803","","","","","5","html-slider-response","1190","","","","4",""
"1049","wolf","lugha,kaburi,ndizi,mchuzi","lugha","f","5","html-keyboard-response","1191","v","kaburi","false","",""
"3303","","","","","5","html-slider-response","1192","","","","4",""
"1187","cigar","adhabu,ndugu,kuta,mlango","adhabu","f","5","html-keyboard-response","1193","v","ndugu","false","",""
"4567","","","","","5","html-slider-response","1194","","","","2",""
"1002","olive","jiwe,bata,siagi,welder","jiwe","f","5","html-keyboard-response","1195","v","bata","false","",""
"2541","","","","","5","html-slider-response","1196","","","","4",""
"1158","key","miaka,goma,chombo,ahos","chombo","j","5","html-keyboard-response","1197","n","ahos","false","",""
"3675","","","","","5","html-slider-response","1198","","","","4",""
"897","door","tena,surali,soko,nyota","surali","v","5","html-keyboard-response","1199","v","surali","true","",""
"3732","","","","","5","html-slider-response","1200","","","","2",""
"12543","wheel","punda,tawo,baadaye,bafuni","bafuni","n","5","html-keyboard-response","1201","v","tawo","false","",""
"3674","","","","","5","html-slider-response","1202","","","","4",""
"8228","basket","kumba,kumbuka,utepe,hasira","kumba","f","5","html-keyboard-response","1203","v","kumbuka","false","",""
"3532","","","","","5","html-slider-response","1204","","","","4",""
"2585","elephant","petye,pagduol,kito,suka","kito","j","5","html-keyboard-response","1205","f","petye","false","",""
"8542","","","","","5","html-slider-response","1206","","","","4",""
"1592","office","leso,hazini,yatima,kuna","leso","f","5","html-keyboard-response","1207","n","kuna","false","",""
"3521","","","","","5","html-slider-response","1208","","","","4",""
"1396","music","mraba,baiski,mageho,tumbo","baiski","v","5","html-keyboard-response","1209","v","baiski","true","",""
"3115","","","","","5","html-slider-response","1210","","","","4",""
"12206","tissue","lamigas,ugomvi,kisiwa,katika","ugomvi","v","5","html-keyboard-response","1211","v","ugomvi","true","",""
"4669","","","","","5","html-slider-response","1212","","","","4",""
"4214","curtain","lisud,bulwawan,chubani,mchanga","mchanga","n","5","html-keyboard-response","1213","n","mchanga","true","",""
"2934","","","","","5","html-slider-response","1214","","","","4",""
"1163","flag","ndege,mkate,trekta,kawa","trekta","j","5","html-keyboard-response","1215","v","mkate","false","",""
"2817","","","","","5","html-slider-response","1216","","","","4",""
"1318","dog","lubi,bahari,washia,kalamu","bahari","v","5","html-keyboard-response","1217","n","kalamu","false","",""
"4011","","","","","5","html-slider-response","1218","","","","4",""
"884","cup","dagat,matumai,shimoni,jeraha","matumai","v","5","html-keyboard-response","1219","v","matumai","true","",""
"2151","","","","","5","html-slider-response","1220","","","","4",""
"636","sheet","juuya,bililhon,watu,kamantis","bililhon","v","5","html-keyboard-response","1221","v","bililhon","true","",""
"4424","","","","","5","html-slider-response","1222","","","","4",""
"811","spoon","pagsulod,betri,nzuri,ngazi","pagsulod","f","5","html-keyboard-response","1223","v","betri","false","",""
"4691","","","","","5","html-slider-response","1224","","","","4",""
"6021","flower","tamasha,lobo,usiku,bega","bega","n","5","html-keyboard-response","1225","f","tamasha","false","",""
"2758","","","","","5","html-slider-response","1226","","","","4",""
"1187","picture","silya,kubwa,chaki,asin","kubwa","v","5","html-keyboard-response","1227","v","kubwa","true","",""
"3276","","","","","5","html-slider-response","1228","","","","4",""
"886","puppet","napulo,lamok,mazishi,godoro","mazishi","j","5","html-keyboard-response","1229","v","lamok","false","",""
"2534","","","","","5","html-slider-response","1230","","","","4",""
"5161","banana","kasamok,kazi,hagdan,twai","kazi","v","5","html-keyboard-response","1231","f","kasamok","false","",""
"3386","","","","","5","html-slider-response","1232","","","","4",""
"1378","book","kuhesa,mali,picha,mara","mali","v","5","html-keyboard-response","1233","n","mara","false","",""
"3934","","","","","5","html-slider-response","1234","","","","4",""
"2494","triangle","kihozi,bentaha,kasadpan,liog","kasadpan","j","5","html-keyboard-response","1235","j","kasadpan","true","",""
"3525","","","","","5","html-slider-response","1236","","","","4",""
"2822","poster","madungog,nchi,fedha,kasuko","madungog","f","5","html-keyboard-response","1237","f","madungog","true","",""
"2829","","","","","5","html-slider-response","1238","","","","4",""
"284","box","kuacha,rafiki,kitande,adui","adui","n","5","html-keyboard-response","1239","v","rafiki","false","",""
"4355","","","","","5","html-slider-response","1240","","","","4",""
"1143","mosquito","isda,martilyo,taras,gutom","martilyo","v","5","html-keyboard-response","1241","n","gutom","false","",""
"3209","","","","","5","html-slider-response","1242","","","","4",""
"368","shelf","bungtod,pamahaw,kadaot,awit","pamahaw","v","5","html-keyboard-response","1243","v","pamahaw","true","",""
"3799","","","","","5","html-slider-response","1244","","","","4",""
"287","scissors","tanuri,duga,mtawa,suga","tanuri","f","5","html-keyboard-response","1245","n","suga","false","",""
"3320","","","","","5","html-slider-response","1246","","","","4",""
"49","hammer","napakyas,mekno,kitovu,layag","napakyas","f","5","html-keyboard-response","1247","n","layag","false","",""
"6329","","","","","5","html-slider-response","1248","","","","4",""
