"rt","en_word","options","swa_word","correct_answer","phase","trial_type","trial_index","input_answer","input_word","accuracy","certainty","amt_choices"
"2925","bonfire","mwezi,mfuko,goti,kusanya","goti","j","2","html-keyboard-response","106","j","goti","true","",""
"1751.7000000476837","","","","","2","html-slider-response","107","","","","5",""
"3859","flower","bega,tamasha,lobo,usiku","bega","f","2","html-keyboard-response","108","v","tamasha","false","",""
"1398.2000000476837","","","","","2","html-slider-response","109","","","","1",""
"2572","column","pundok,dila,pala,ufagio","ufagio","n","2","html-keyboard-response","110","j","pala","false","",""
"1696.9000000953674","","","","","2","html-slider-response","111","","","","1",""
"3391","music","baiski,mraba,mageho,tumbo","baiski","f","2","html-keyboard-response","112","v","mraba","false","",""
"1436.9000000953674","","","","","2","html-slider-response","113","","","","1",""
"3440","spider","bunyag,mkboa,kamwe,atop","kamwe","j","2","html-keyboard-response","114","f","bunyag","false","",""
"1307.5","","","","","2","html-slider-response","115","","","","1",""
"4564","fork","baboy,paghago,gorisi,mgonjwa","mgonjwa","n","2","html-keyboard-response","116","n","mgonjwa","true","",""
"1551.2999999523163","","","","","2","html-slider-response","117","","","","5",""
"2194","mosquito","isda,martilyo,taras,gutom","martilyo","v","2","html-keyboard-response","118","v","martilyo","true","",""
"1967.6000001430511","","","","","2","html-slider-response","119","","","","5",""
"4353","banana","kasamok,kazi,hagdan,twai","kazi","v","2","html-keyboard-response","120","v","kazi","true","",""
"1240.5999999046326","","","","","2","html-slider-response","121","","","","5",""
"2841","cup","dagat,shimoni,jeraha,matumai","matumai","n","2","html-keyboard-response","122","f","dagat","false","",""
"1522.7000000476837","","","","","2","html-slider-response","123","","","","1",""
"2788","shop","nopya,kerida,samaki,ndezu","samaki","j","2","html-keyboard-response","124","n","ndezu","false","",""
"1184.7000000476837","","","","","2","html-slider-response","125","","","","1",""
"2243","elephant","petye,pagduol,kito,suka","kito","j","2","html-keyboard-response","126","v","pagduol","false","",""
"2275.9000000953674","","","","","2","html-slider-response","127","","","","1",""
"4785","bucket","baga,kiatu,ijayo,init","kiatu","v","2","html-keyboard-response","128","j","ijayo","false","",""
"1132","","","","","2","html-slider-response","129","","","","1",""
"5039","book","kuhesa,picha,mara,mali","mali","n","2","html-keyboard-response","130","v","picha","false","",""
"1376.0999999046326","","","","","2","html-slider-response","131","","","","1",""
"4709","mirror","rangi,kanding,furaha,sulagma","sulagma","n","2","html-keyboard-response","132","n","sulagma","true","",""
"2377.7000000476837","","","","","2","html-slider-response","133","","","","4",""
"3098","office","hazini,yatima,leso,kuna","leso","j","2","html-keyboard-response","134","v","yatima","false","",""
"1177","","","","","2","html-slider-response","135","","","","1",""
"6610","body","nyundu,jibini,tindashan,kununa","tindashan","j","2","html-keyboard-response","136","j","tindashan","true","",""
"1417.7999999523163","","","","","2","html-slider-response","137","","","","2",""
"3254","perfume","bino,katuyoan,sungura,ndogo","katuyoan","v","2","html-keyboard-response","138","v","katuyoan","true","",""
"1236","","","","","2","html-slider-response","139","","","","2",""
"4602","olive","jiwe,bata,siagi,welder","jiwe","f","2","html-keyboard-response","140","f","jiwe","true","",""
"1555.2999999523163","","","","","2","html-slider-response","141","","","","4",""
"4083","magazine","gundi,kiti,mchawi,bahandi","kiti","v","2","html-keyboard-response","142","v","kiti","true","",""
"1053.5999999046326","","","","","2","html-slider-response","143","","","","2",""
"2780","bread","kaili,dizeli,dari,bugas","dari","j","2","html-keyboard-response","144","n","bugas","false","",""
"1323.5","","","","","2","html-slider-response","145","","","","2",""
"3532","cave","ganti,maisha,nyundo,kesho","kesho","n","2","html-keyboard-response","146","n","kesho","true","",""
"1958.2000000476837","","","","","2","html-slider-response","147","","","","5",""
"5414","ladder","mashua,pangalan,mwanga,kamba","pangalan","v","2","html-keyboard-response","148","j","mwanga","false","",""
"1281","","","","","2","html-slider-response","149","","","","2",""
"2105","human","bado,kikapu,punguza,tinapay","tinapay","n","2","html-keyboard-response","150","n","tinapay","true","",""
"1287","","","","","2","html-slider-response","151","","","","5",""
"4332","clock","kartasi,abang,osha,mbwa","mbwa","n","2","html-keyboard-response","152","n","mbwa","true","",""
"1376.5","","","","","2","html-slider-response","153","","","","4",""
"3047","shelf","bungtod,kadaot,awit,pamahaw","pamahaw","n","2","html-keyboard-response","154","v","kadaot","false","",""
"1111","","","","","2","html-slider-response","155","","","","2",""
"1980","salmon","mzungu,sensilyo,seri,baharia","sensilyo","v","2","html-keyboard-response","156","v","sensilyo","true","",""
"1887.8000001907349","","","","","2","html-slider-response","157","","","","5",""
"2147","coffin","barua,tubag,hulma,kioo","kioo","n","2","html-keyboard-response","158","n","kioo","true","",""
"1432.5999999046326","","","","","2","html-slider-response","159","","","","5",""
"4291","notebook","msitu,kila,kemia,mdudu","kemia","j","2","html-keyboard-response","160","v","kila","false","",""
"1190.7000000476837","","","","","2","html-slider-response","161","","","","2",""
"2140","shoulder","mkuu,kelele,ndaniya,guruwe","mkuu","f","2","html-keyboard-response","162","v","kelele","false","",""
"1377.7000000476837","","","","","2","html-slider-response","163","","","","1",""
"3261","park","tambok,pwani,ihalas,bunifu","bunifu","n","2","html-keyboard-response","164","n","bunifu","true","",""
"1421.7000000476837","","","","","2","html-slider-response","165","","","","2",""
"2386","number","shule,kengele,mundamo,choori","mundamo","j","2","html-keyboard-response","166","j","mundamo","true","",""
"1814.7000000476837","","","","","2","html-slider-response","167","","","","4",""
"3975","apple","ukame,estante,edad,kisu","kisu","n","2","html-keyboard-response","168","n","kisu","true","",""
"2194.5","","","","","2","html-slider-response","169","","","","5",""
"2985","letter","filimbi,kifua,chuma,uhuru","kifua","v","2","html-keyboard-response","170","f","filimbi","false","",""
"1006.3000001907349","","","","","2","html-slider-response","171","","","","2",""
"4005","eel","ishara,kunywa,kabuang,msumari","msumari","n","2","html-keyboard-response","172","n","msumari","true","",""
"1689.1999998092651","","","","","2","html-slider-response","173","","","","2",""
"2811","cop","bustani,jikoni,bakus,mechezo","mechezo","n","2","html-keyboard-response","174","n","mechezo","true","",""
"1654.1000001430511","","","","","2","html-slider-response","175","","","","5",""
"11832","wolf","kaburi,lugha,ndizi,mchuzi","lugha","v","2","html-keyboard-response","176","v","lugha","true","",""
"1218","","","","","2","html-slider-response","177","","","","2",""
"2172","squirrel","mahugaw,ukweli,hofu,kichwa","hofu","j","2","html-keyboard-response","178","v","ukweli","false","",""
"932.5999999046326","","","","","2","html-slider-response","179","","","","2",""
"5811","nose","gubat,kopa,sehemu,kidole","sehemu","j","2","html-keyboard-response","180","n","kidole","false","",""
"995.3000001907349","","","","","2","html-slider-response","181","","","","2",""
"2831","sock","ndoora,kimysa,mtirka,mamba","mamba","n","2","html-keyboard-response","182","n","mamba","true","",""
"1369.6000001430511","","","","","2","html-slider-response","183","","","","5",""
"3010","bank","kudhibi,tualya,silingan,ofisi","silingan","j","2","html-keyboard-response","184","j","silingan","true","",""
"1024.9000000953674","","","","","2","html-slider-response","185","","","","2",""
"3036","donkey","elfu,bloke,lalake,rombus","elfu","f","2","html-keyboard-response","186","f","elfu","true","",""
"1426.2999999523163","","","","","2","html-slider-response","187","","","","2",""
"2732","poster","madungog,nchi,fedha,kasuko","madungog","f","2","html-keyboard-response","188","n","kasuko","false","",""
"1703.3999998569489","","","","","2","html-slider-response","189","","","","2",""
"2674","puppet","napulo,lamok,godoro,mazishi","mazishi","n","2","html-keyboard-response","190","j","godoro","false","",""
"1082.5","","","","","2","html-slider-response","191","","","","2",""
"3503","hill","kushoto,kukimba,sweta,matumbo","matumbo","n","2","html-keyboard-response","192","n","matumbo","true","",""
"1278.6000001430511","","","","","2","html-slider-response","193","","","","4",""
"4492","tooth","kabalaka,kijiko,uadui,pahiyum","kabalaka","f","2","html-keyboard-response","194","f","kabalaka","true","",""
"967.5999999046326","","","","","2","html-slider-response","195","","","","5",""
"3730","woman","bandari,bituin,pagtabon,kovuli","pagtabon","j","2","html-keyboard-response","196","v","bituin","false","",""
"932.0999999046326","","","","","2","html-slider-response","197","","","","2",""
"2022","wheel","punda,tawo,baadaye,bafuni","bafuni","n","2","html-keyboard-response","198","f","punda","false","",""
"1290.5999999046326","","","","","2","html-slider-response","199","","","","2",""
"4116","mother","babaye,kahawa,mbuzi,jokofu","babaye","f","2","html-keyboard-response","200","n","jokofu","false","",""
"1623","","","","","2","html-slider-response","201","","","","2",""
"2265","bed","kalipay,mapintas,haraka,starehe","mapintas","v","2","html-keyboard-response","202","f","kalipay","false","",""
"919.7000000476837","","","","","2","html-slider-response","203","","","","2",""
"12208","key","miaka,chombo,goma,ahos","chombo","v","2","html-keyboard-response","204","v","chombo","true","",""
"1235.8999998569489","","","","","2","html-slider-response","205","","","","2",""
"3146","page","wakala,ishiri,wimbo,skina","wimbo","j","2","html-keyboard-response","206","f","wakala","false","",""
"1160.5","","","","","2","html-slider-response","207","","","","2",""
"3397","pants","pintal,chuki,hari,haki","haki","n","2","html-keyboard-response","208","n","haki","true","",""
"898.8000001907349","","","","","2","html-slider-response","209","","","","2",""
"2719","sun","bendi,luha,uongo,basi","basi","n","2","html-keyboard-response","210","n","basi","true","",""
"919.8999998569489","","","","","2","html-slider-response","211","","","","2",""
"2607","finger","simu,sufuria,lima,moyo","moyo","n","2","html-keyboard-response","212","v","sufuria","false","",""
"811","","","","","2","html-slider-response","213","","","","2",""
"4263","shoe","uyoga,nyeusi,hatua,kama","uyoga","f","2","html-keyboard-response","214","f","uyoga","true","",""
"1696.8999998569489","","","","","2","html-slider-response","215","","","","2",""
"2297","giraffe","mahitabo,daraja,jumatu,hangyo","mahitabo","f","2","html-keyboard-response","216","f","mahitabo","true","",""
"871.9000000953674","","","","","2","html-slider-response","217","","","","2",""
"2627","dog","bahari,lubi,washia,kalamu","bahari","f","2","html-keyboard-response","218","n","kalamu","false","",""
"1070.2999999523163","","","","","2","html-slider-response","219","","","","2",""
"2867","box","kuacha,rafiki,kitande,adui","adui","n","2","html-keyboard-response","220","n","adui","true","",""
"1076.2000000476837","","","","","2","html-slider-response","221","","","","2",""
"1896","scissors","tanuri,duga,mtawa,suga","tanuri","f","2","html-keyboard-response","222","f","tanuri","true","",""
"999.8000001907349","","","","","2","html-slider-response","223","","","","2",""
"2612","cat","neyemba,baki,akili,paghukom","paghukom","n","2","html-keyboard-response","224","f","neyemba","false","",""
"1065","","","","","2","html-slider-response","225","","","","2",""
"2152","basket","kumba,kumbuka,utepe,hasira","kumba","f","2","html-keyboard-response","226","j","utepe","false","",""
"1202.9000000953674","","","","","2","html-slider-response","227","","","","2",""
"1050","snake","jansa,karon,pagtukod,mvringo","pagtukod","j","2","html-keyboard-response","228","j","pagtukod","true","",""
"1075.2000000476837","","","","","2","html-slider-response","229","","","","2",""
"3413","gift","baba,nyange,baso,pagtawag","pagtawag","n","2","html-keyboard-response","230","j","baso","false","",""
"964.3999998569489","","","","","2","html-slider-response","231","","","","2",""
"2587","train","itik,sayari,dakika,mungu","sayari","v","2","html-keyboard-response","232","n","mungu","false","",""
"793.2000000476837","","","","","2","html-slider-response","233","","","","2",""
"2800","pudding","abug,mpishi,iring,aibu","aibu","n","2","html-keyboard-response","234","v","mpishi","false","",""
"1348.2000000476837","","","","","2","html-slider-response","235","","","","2",""
"3777","tomato","chupi,chupa,takatak,mvua","mvua","n","2","html-keyboard-response","236","j","takatak","false","",""
"1466.3999998569489","","","","","2","html-slider-response","237","","","","2",""
"2881","stone","ulimwengu,mkasi,wingi,asili","wingi","j","2","html-keyboard-response","238","v","mkasi","false","",""
"1123.7000000476837","","","","","2","html-slider-response","239","","","","2",""
"2129","hammer","mekno,napakyas,kitovu,layag","napakyas","v","2","html-keyboard-response","240","n","layag","false","",""
"1612.3999998569489","","","","","2","html-slider-response","241","","","","2",""
"2740","knee","mvuke,kubale,duka,bili","duka","j","2","html-keyboard-response","242","v","kubale","false","",""
"778.7999999523163","","","","","2","html-slider-response","243","","","","2",""
"1814","ceiling","maua,kugita,kawaida,rayna","maua","f","2","html-keyboard-response","244","v","kugita","false","",""
"965.4000000953674","","","","","2","html-slider-response","245","","","","2",""
"3114","spoon","betri,pagsulod,nzuri,ngazi","pagsulod","v","2","html-keyboard-response","246","f","betri","false","",""
"939.3000001907349","","","","","2","html-slider-response","247","","","","2",""
"2039","marker","mapafu,salita,atay,maji","maji","n","2","html-keyboard-response","248","n","maji","true","",""
"793.2999999523163","","","","","2","html-slider-response","249","","","","2",""
"2188","candle","geza,gabi,farasi,kupanda","geza","f","2","html-keyboard-response","250","v","gabi","false","",""
"1395.1999998092651","","","","","2","html-slider-response","251","","","","1",""
"1851","tissue","lamigas,kisiwa,katika,ugomvi","ugomvi","n","2","html-keyboard-response","252","n","ugomvi","true","",""
"1116","","","","","2","html-slider-response","253","","","","1",""
"2267","bridge","daima,sahani,ngono,panya","sahani","v","2","html-keyboard-response","254","v","sahani","true","",""
"1159.7999999523163","","","","","2","html-slider-response","255","","","","1",""
"1807","berry","kofia,abogado,nogozi,kinywa","kofia","f","2","html-keyboard-response","256","j","nogozi","false","",""
"1617.4000000953674","","","","","2","html-slider-response","257","","","","2",""
"1963","triangle","kihozi,bentaha,kasadpan,liog","kasadpan","j","2","html-keyboard-response","258","j","kasadpan","true","",""
"1881.0999999046326","","","","","2","html-slider-response","259","","","","1",""
"2270","door","tena,soko,nyota,surali","surali","n","2","html-keyboard-response","260","v","soko","false","",""
"982.5999999046326","","","","","2","html-slider-response","261","","","","1",""
"6371","fish","bala,baho,imani,buli","buli","n","2","html-keyboard-response","262","j","imani","false","",""
"1430.5","","","","","2","html-slider-response","263","","","","1",""
"1529","curtain","lisud,bulwawan,mchanga,chubani","mchanga","j","2","html-keyboard-response","264","j","mchanga","true","",""
"989.0999999046326","","","","","2","html-slider-response","265","","","","1",""
"3118","flag","ndege,trekta,mkate,kawa","trekta","v","2","html-keyboard-response","266","v","trekta","true","",""
"1543.0999999046326","","","","","2","html-slider-response","267","","","","4",""
"2176","boat","hamsi,pombe,kitanda,agalon","agalon","n","2","html-keyboard-response","268","n","agalon","true","",""
"1053.1000001430511","","","","","2","html-slider-response","269","","","","1",""
"1454","rose","singizi,mwanake,amani,paghalad","paghalad","n","2","html-keyboard-response","270","j","amani","false","",""
"783.3000001907349","","","","","2","html-slider-response","271","","","","1",""
"2243","lamp","afya,daub,bilaska,mbolea","afya","f","2","html-keyboard-response","272","v","daub","false","",""
"1139.2000000476837","","","","","2","html-slider-response","273","","","","1",""
"3440","cigar","ndugu,adhabu,kuta,mlango","adhabu","v","2","html-keyboard-response","274","n","mlango","false","",""
"1263.1000001430511","","","","","2","html-slider-response","275","","","","1",""
"1834","list","alizeti,kuzama,wingu,kaso","wingu","j","2","html-keyboard-response","276","n","kaso","false","",""
"813.2000000476837","","","","","2","html-slider-response","277","","","","1",""
"2563","sheet","juuya,watu,bililhon,kamantis","bililhon","j","2","html-keyboard-response","278","v","watu","false","",""
"1245.0999999046326","","","","","2","html-slider-response","279","","","","1",""
"3498","picture","silya,kubwa,chaki,asin","kubwa","v","2","html-keyboard-response","280","f","silya","false","",""
"991.1000001430511","","","","","2","html-slider-response","281","","","","1",""
"1250","towel","tembo,funzi,pagpalit,pito","pagpalit","j","2","html-keyboard-response","282","f","tembo","false","",""
"1119","","","","","2","html-slider-response","283","","","","1",""
"2104","window","nanga,kujenga,kweli,umaga","kweli","j","2","html-keyboard-response","284","j","kweli","true","",""
"1394.7000000476837","","","","","2","html-slider-response","285","","","","1",""
"6224","box","kuacha,adui,rafiki,kitande","adui","v","3","html-keyboard-response","293","v","adui","true","","4"
"1720.2999999523163","","","","","3","html-slider-response","294","","","","2",""
"2997","","","","","3","html-keyboard-response","295","","","","",""
"5957","pants","pintal,chuki,hari,haki","haki","n","3","html-keyboard-response","296","n","haki","true","","4"
"1563.5","","","","","3","html-slider-response","297","","","","2",""
"1373","","","","","3","html-keyboard-response","298","","","","",""
"4083","cup","dagat,shimoni,jeraha,matumai","matumai","n","3","html-keyboard-response","299","f","dagat","false","","4"
"1429.5999999046326","","","","","3","html-slider-response","300","","","","1",""
"1961","","","","","3","html-keyboard-response","301","","","","",""
"5455","triangle","kihozi,kasadpan,bentaha,liog","kasadpan","v","3","html-keyboard-response","302","j","bentaha","false","","4"
"1135.2000000476837","","","","","3","html-slider-response","303","","","","1",""
"2725","","","","","3","html-keyboard-response","304","","","","",""
"5766","curtain","lisud,bulwawan,mchanga,chubani","mchanga","j","3","html-keyboard-response","305","j","mchanga","true","","4"
"1294.6999998092651","","","","","3","html-slider-response","306","","","","2",""
"1197","","","","","3","html-keyboard-response","307","","","","",""
"2235","clock","kartasi,mbwa,abang,osha","mbwa","v","3","html-keyboard-response","308","v","mbwa","true","","4"
"1232.9000000953674","","","","","3","html-slider-response","309","","","","5",""
"826","","","","","3","html-keyboard-response","310","","","","",""
"3477","mirror","rangi,kanding,sulagma,furaha","sulagma","j","3","html-keyboard-response","311","f","rangi","false","","4"
"1294.2999999523163","","","","","3","html-slider-response","312","","","","2",""
"1473","","","","","3","html-keyboard-response","313","","","","",""
"2223","coffin","barua,tubag,kioo,hulma","kioo","j","3","html-keyboard-response","314","j","kioo","true","","1"
"1370.3999998569489","","","","","3","html-slider-response","315","","","","5",""
"626","","","","","3","html-keyboard-response","316","","","","",""
"2812","magazine","kiti,gundi,mchawi,bahandi","kiti","f","3","html-keyboard-response","317","v","gundi","false","","4"
"1544.2000000476837","","","","","3","html-slider-response","318","","","","1",""
"1159","","","","","3","html-keyboard-response","319","","","","",""
"3422","column","ufagio,pundok,dila,pala","ufagio","f","3","html-keyboard-response","320","f","ufagio","true","","1"
"1428.4000000953674","","","","","3","html-slider-response","321","","","","5",""
"723","","","","","3","html-keyboard-response","322","","","","",""
"4393","number","shule,mundamo,kengele,choori","mundamo","v","3","html-keyboard-response","323","v","mundamo","true","","4"
"1967.2999999523163","","","","","3","html-slider-response","324","","","","2",""
"831","","","","","3","html-keyboard-response","325","","","","",""
"5726","rose","singizi,mwanake,amani,paghalad","paghalad","n","3","html-keyboard-response","326","j","amani","false","","4"
"1175.7999999523163","","","","","3","html-slider-response","327","","","","2",""
"2381","","","","","3","html-keyboard-response","328","","","","",""
"2955","eel","ishara,kunywa,kabuang,msumari","msumari","n","3","html-keyboard-response","329","n","msumari","true","","4"
"847.5","","","","","3","html-slider-response","330","","","","2",""
"1122","","","","","3","html-keyboard-response","331","","","","",""
"2247","gift","pagtawag,baba,nyange,baso","pagtawag","f","3","html-keyboard-response","332","v","baba","false","","4"
"1029.9000000953674","","","","","3","html-slider-response","333","","","","2",""
"1742","","","","","3","html-keyboard-response","334","","","","",""
"2365","apple","ukame,kisu,estante,edad","kisu","v","3","html-keyboard-response","335","v","kisu","true","","1"
"1443.3000001907349","","","","","3","html-slider-response","336","","","","5",""
"625","","","","","3","html-keyboard-response","337","","","","",""
"2357","wheel","punda,tawo,bafuni,baadaye","bafuni","j","3","html-keyboard-response","338","j","bafuni","true","","1"
"1218.3999998569489","","","","","3","html-slider-response","339","","","","5",""
"623","","","","","3","html-keyboard-response","340","","","","",""
"2973","knee","mvuke,duka,kubale,bili","duka","v","3","html-keyboard-response","341","v","duka","true","","4"
"820.5","","","","","3","html-slider-response","342","","","","2",""
"1077","","","","","3","html-keyboard-response","343","","","","",""
"3181","basket","kumbuka,utepe,hasira,kumba","kumba","n","3","html-keyboard-response","344","n","kumba","true","","1"
"1008.1000001430511","","","","","3","html-slider-response","345","","","","4",""
"621","","","","","3","html-keyboard-response","346","","","","",""
"2763","park","tambok,bunifu,pwani,ihalas","bunifu","v","3","html-keyboard-response","347","f","tambok","false","","4"
"1442.7999999523163","","","","","3","html-slider-response","348","","","","2",""
"1675","","","","","3","html-keyboard-response","349","","","","",""
"5902","finger","moyo,simu,sufuria,lima","moyo","f","3","html-keyboard-response","350","v","simu","false","","4"
"1035.8999998569489","","","","","3","html-slider-response","351","","","","2",""
"1149","","","","","3","html-keyboard-response","352","","","","",""
"2892","boat","agalon,hamsi,pombe,kitanda","agalon","f","3","html-keyboard-response","353","j","pombe","false","","4"
"1138","","","","","3","html-slider-response","354","","","","2",""
"1169","","","","","3","html-keyboard-response","355","","","","",""
"1906","hill","kushoto,kukimba,sweta,matumbo","matumbo","n","3","html-keyboard-response","356","n","matumbo","true","","4"
"1081.5999999046326","","","","","3","html-slider-response","357","","","","4",""
"851","","","","","3","html-keyboard-response","358","","","","",""
"2608","train","itik,dakika,sayari,mungu","sayari","j","3","html-keyboard-response","359","v","dakika","false","","4"
"1020.5","","","","","3","html-slider-response","360","","","","2",""
"1313","","","","","3","html-keyboard-response","361","","","","",""
"5572","wolf","kaburi,ndizi,lugha,mchuzi","lugha","j","3","html-keyboard-response","362","j","lugha","true","","4"
"1237.2000000476837","","","","","3","html-slider-response","363","","","","2",""
"768","","","","","3","html-keyboard-response","364","","","","",""
"5216","snake","jansa,karon,mvringo,pagtukod","pagtukod","n","3","html-keyboard-response","365","f","jansa","false","","4"
"933.2000000476837","","","","","3","html-slider-response","366","","","","2",""
"1010","","","","","3","html-keyboard-response","367","","","","",""
"3010","tooth","kijiko,uadui,pahiyum,kabalaka","kabalaka","n","3","html-keyboard-response","368","n","kabalaka","true","","4"
"1089.7000000476837","","","","","3","html-slider-response","369","","","","5",""
"1450","","","","","3","html-keyboard-response","370","","","","",""
"2297","notebook","msitu,kila,kemia,mdudu","kemia","j","3","html-keyboard-response","371","j","kemia","true","","4"
"1190.3999998569489","","","","","3","html-slider-response","372","","","","2",""
"925","","","","","3","html-keyboard-response","373","","","","",""
"4251","flag","ndege,mkate,kawa,trekta","trekta","n","3","html-keyboard-response","374","n","trekta","true","","4"
"974.5","","","","","3","html-slider-response","375","","","","5",""
"582","","","","","3","html-keyboard-response","376","","","","",""
"2383","squirrel","mahugaw,hofu,ukweli,kichwa","hofu","v","3","html-keyboard-response","377","f","mahugaw","false","","4"
"1053.2999999523163","","","","","3","html-slider-response","378","","","","2",""
"824","","","","","3","html-keyboard-response","379","","","","",""
"2900","door","tena,surali,soko,nyota","surali","v","3","html-keyboard-response","380","v","surali","true","","4"
"1193.6000001430511","","","","","3","html-slider-response","381","","","","2",""
"870","","","","","3","html-keyboard-response","382","","","","",""
"2979","salmon","sensilyo,mzungu,seri,baharia","sensilyo","f","3","html-keyboard-response","383","f","sensilyo","true","","4"
"1060.5","","","","","3","html-slider-response","384","","","","5",""
"721","","","","","3","html-keyboard-response","385","","","","",""
"2381","shoulder","kelele,ndaniya,mkuu,guruwe","mkuu","j","3","html-keyboard-response","386","f","kelele","false","","4"
"2483","","","","","3","html-slider-response","387","","","","2",""
"1285","","","","","3","html-keyboard-response","388","","","","",""
"5053","lamp","daub,bilaska,afya,mbolea","afya","j","3","html-keyboard-response","389","v","bilaska","false","","4"
"1502","","","","","3","html-slider-response","390","","","","2",""
"1123","","","","","3","html-keyboard-response","391","","","","",""
"2845","shelf","bungtod,kadaot,awit,pamahaw","pamahaw","n","3","html-keyboard-response","392","n","pamahaw","true","","1"
"1128","","","","","3","html-slider-response","393","","","","4",""
"1207","","","","","3","html-keyboard-response","394","","","","",""
"3278","human","bado,kikapu,punguza,tinapay","tinapay","n","3","html-keyboard-response","395","n","tinapay","true","","4"
"1005.5999999046326","","","","","3","html-slider-response","396","","","","5",""
"564","","","","","3","html-keyboard-response","397","","","","",""
"2897","towel","tembo,pagpalit,funzi,pito","pagpalit","v","3","html-keyboard-response","398","v","pagpalit","true","","4"
"1656.7000000476837","","","","","3","html-slider-response","399","","","","2",""
"627","","","","","3","html-keyboard-response","400","","","","",""
"3393","cat","neyemba,baki,akili,paghukom","paghukom","n","3","html-keyboard-response","401","f","neyemba","false","","4"
"3558.600000143051","","","","","3","html-slider-response","402","","","","2",""
"9415","","","","","3","html-keyboard-response","403","","","","",""
"2354","spider","bunyag,mkboa,atop,kamwe","kamwe","n","3","html-keyboard-response","404","n","kamwe","true","","4"
"2273.399999856949","","","","","3","html-slider-response","405","","","","2",""
"1010","","","","","3","html-keyboard-response","406","","","","",""
"2995","window","nanga,kujenga,kweli,umaga","kweli","j","3","html-keyboard-response","407","v","kujenga","false","","4"
"1604","","","","","3","html-slider-response","408","","","","2",""
"2127","","","","","3","html-keyboard-response","409","","","","",""
"3818","woman","pagtabon,bandari,bituin,kovuli","pagtabon","f","3","html-keyboard-response","410","f","pagtabon","true","","1"
"1272.1000001430511","","","","","3","html-slider-response","411","","","","4",""
"2243","","","","","3","html-keyboard-response","412","","","","",""
"3598","giraffe","daraja,jumatu,mahitabo,hangyo","mahitabo","j","3","html-keyboard-response","413","v","jumatu","false","","4"
"924.7000000476837","","","","","3","html-slider-response","414","","","","2",""
"2256","","","","","3","html-keyboard-response","415","","","","",""
"4087","elephant","petye,pagduol,kito,suka","kito","j","3","html-keyboard-response","416","v","pagduol","false","","4"
"894.1000001430511","","","","","3","html-slider-response","417","","","","2",""
"21354","","","","","3","html-keyboard-response","418","","","","",""
"3003","cave","ganti,kesho,maisha,nyundo","kesho","v","3","html-keyboard-response","419","v","kesho","true","","4"
"1168.4000000953674","","","","","3","html-slider-response","420","","","","5",""
"2435","","","","","3","html-keyboard-response","421","","","","",""
"6225","bread","kaili,dizeli,dari,bugas","dari","j","3","html-keyboard-response","422","v","dizeli","false","","4"
"1045.2999999523163","","","","","3","html-slider-response","423","","","","2",""
"654","","","","","3","html-keyboard-response","424","","","","",""
"5879","stone","ulimwengu,mkasi,wingi,asili","wingi","j","3","html-keyboard-response","425","n","asili","false","","4"
"1577.5","","","","","3","html-slider-response","426","","","","2",""
"776","","","","","3","html-keyboard-response","427","","","","",""
"3133","donkey","bloke,elfu,lalake,rombus","elfu","v","3","html-keyboard-response","428","v","elfu","true","","4"
"1126.7999999523163","","","","","3","html-slider-response","429","","","","2",""
"745","","","","","3","html-keyboard-response","430","","","","",""
"2548","bridge","daima,sahani,ngono,panya","sahani","v","3","html-keyboard-response","431","f","daima","false","","4"
"1138.8999998569489","","","","","3","html-slider-response","432","","","","2",""
"1082","","","","","3","html-keyboard-response","433","","","","",""
"3679","bonfire","goti,mwezi,mfuko,kusanya","goti","f","3","html-keyboard-response","434","f","goti","true","","4"
"1933.2000000476837","","","","","3","html-slider-response","435","","","","5",""
"619","","","","","3","html-keyboard-response","436","","","","",""
"4492","book","mali,kuhesa,picha,mara","mali","f","3","html-keyboard-response","437","j","picha","false","","4"
"886.3000001907349","","","","","3","html-slider-response","438","","","","2",""
"610","","","","","3","html-keyboard-response","439","","","","",""
"3186","fish","buli,bala,baho,imani","buli","f","3","html-keyboard-response","440","v","bala","false","","4"
"1389.2999999523163","","","","","3","html-slider-response","441","","","","2",""
"769","","","","","3","html-keyboard-response","442","","","","",""
"3450","spoon","betri,nzuri,pagsulod,ngazi","pagsulod","j","3","html-keyboard-response","443","j","pagsulod","true","","4"
"941.4000000953674","","","","","3","html-slider-response","444","","","","2",""
"695","","","","","3","html-keyboard-response","445","","","","",""
"2240","scissors","duga,mtawa,suga,tanuri","tanuri","n","3","html-keyboard-response","446","n","tanuri","true","","4"
"889.6000001430511","","","","","3","html-slider-response","447","","","","2",""
"828","","","","","3","html-keyboard-response","448","","","","",""
"2483","page","wimbo,wakala,ishiri,skina","wimbo","f","3","html-keyboard-response","449","f","wimbo","true","","4"
"1325.1999998092651","","","","","3","html-slider-response","450","","","","2",""
"788","","","","","3","html-keyboard-response","451","","","","",""
"1713","nose","gubat,kopa,kidole,sehemu","sehemu","n","3","html-keyboard-response","452","n","sehemu","true","","1"
"1471","","","","","3","html-slider-response","453","","","","4",""
"454","","","","","3","html-keyboard-response","454","","","","",""
"3152","ceiling","maua,kugita,kawaida,rayna","maua","f","3","html-keyboard-response","455","n","rayna","false","","4"
"1502.2999999523163","","","","","3","html-slider-response","456","","","","2",""
"502","","","","","3","html-keyboard-response","457","","","","",""
"3680","bucket","kiatu,baga,ijayo,init","kiatu","f","3","html-keyboard-response","458","f","kiatu","true","","4"
"2287","","","","","3","html-slider-response","459","","","","2",""
"751","","","","","3","html-keyboard-response","460","","","","",""
"3704","berry","kofia,abogado,nogozi,kinywa","kofia","f","3","html-keyboard-response","461","f","kofia","true","","1"
"1204.8000001907349","","","","","3","html-slider-response","462","","","","4",""
"536","","","","","3","html-keyboard-response","463","","","","",""
"1472","mother","kahawa,mbuzi,jokofu,babaye","babaye","n","3","html-keyboard-response","464","n","babaye","true","","1"
"1992","","","","","3","html-slider-response","465","","","","4",""
"1195","","","","","3","html-keyboard-response","466","","","","",""
"2293","mosquito","isda,taras,martilyo,gutom","martilyo","j","3","html-keyboard-response","467","j","martilyo","true","","4"
"1184.4000000953674","","","","","3","html-slider-response","468","","","","5",""
"682","","","","","3","html-keyboard-response","469","","","","",""
"2991","perfume","bino,sungura,ndogo,katuyoan","katuyoan","n","3","html-keyboard-response","470","n","katuyoan","true","","4"
"966","","","","","3","html-slider-response","471","","","","2",""
"547","","","","","3","html-keyboard-response","472","","","","",""
"3592","sheet","juuya,watu,bililhon,kamantis","bililhon","j","3","html-keyboard-response","473","v","watu","false","","4"
"1315.2999999523163","","","","","3","html-slider-response","474","","","","2",""
"571","","","","","3","html-keyboard-response","475","","","","",""
"3418","puppet","mazishi,napulo,lamok,godoro","mazishi","f","3","html-keyboard-response","476","f","mazishi","true","","1"
"1435.0999999046326","","","","","3","html-slider-response","477","","","","4",""
"1161","","","","","3","html-keyboard-response","478","","","","",""
"2091","poster","nchi,fedha,madungog,kasuko","madungog","j","3","html-keyboard-response","479","v","fedha","false","","4"
"1203.3999998569489","","","","","3","html-slider-response","480","","","","2",""
"1249","","","","","3","html-keyboard-response","481","","","","",""
"3247","music","baiski,mraba,mageho,tumbo","baiski","f","3","html-keyboard-response","482","j","mageho","false","","4"
"1123.2000000476837","","","","","3","html-slider-response","483","","","","2",""
"746","","","","","3","html-keyboard-response","484","","","","",""
"2230","key","miaka,chombo,goma,ahos","chombo","v","3","html-keyboard-response","485","f","miaka","false","","4"
"759.6000001430511","","","","","3","html-slider-response","486","","","","2",""
"906","","","","","3","html-keyboard-response","487","","","","",""
"3534","sock","mamba,ndoora,kimysa,mtirka","mamba","f","3","html-keyboard-response","488","f","mamba","true","","4"
"1148.7999999523163","","","","","3","html-slider-response","489","","","","5",""
"890","","","","","3","html-keyboard-response","490","","","","",""
"3782","marker","maji,mapafu,salita,atay","maji","f","3","html-keyboard-response","491","j","salita","false","","4"
"870.7999999523163","","","","","3","html-slider-response","492","","","","2",""
"821","","","","","3","html-keyboard-response","493","","","","",""
"2155","office","hazini,yatima,leso,kuna","leso","j","3","html-keyboard-response","494","j","leso","true","","4"
"1134.7999999523163","","","","","3","html-slider-response","495","","","","2",""
"486","","","","","3","html-keyboard-response","496","","","","",""
"3942","shoe","nyeusi,hatua,kama,uyoga","uyoga","n","3","html-keyboard-response","497","f","nyeusi","false","","4"
"1368.2999999523163","","","","","3","html-slider-response","498","","","","2",""
"1172","","","","","3","html-keyboard-response","499","","","","",""
"2691","cop","mechezo,bustani,jikoni,bakus","mechezo","f","3","html-keyboard-response","500","f","mechezo","true","","4"
"937.5","","","","","3","html-slider-response","501","","","","5",""
"836","","","","","3","html-keyboard-response","502","","","","",""
"3134","bank","silingan,kudhibi,tualya,ofisi","silingan","f","3","html-keyboard-response","503","j","tualya","false","","4"
"1041.1999998092651","","","","","3","html-slider-response","504","","","","2",""
"774","","","","","3","html-keyboard-response","505","","","","",""
"1393","letter","filimbi,chuma,kifua,uhuru","kifua","j","3","html-keyboard-response","506","j","kifua","true","","1"
"982.7000000476837","","","","","3","html-slider-response","507","","","","5",""
"924","","","","","3","html-keyboard-response","508","","","","",""
"3093","dog","lubi,washia,bahari,kalamu","bahari","j","3","html-keyboard-response","509","j","bahari","true","","1"
"1203.7000000476837","","","","","3","html-slider-response","510","","","","5",""
"1441","","","","","3","html-keyboard-response","511","","","","",""
"3557","shop","nopya,kerida,samaki,ndezu","samaki","j","3","html-keyboard-response","512","f","nopya","false","","4"
"1073","","","","","3","html-slider-response","513","","","","2",""
"716","","","","","3","html-keyboard-response","514","","","","",""
"5031","flower","tamasha,lobo,bega,usiku","bega","j","3","html-keyboard-response","515","n","usiku","false","","4"
"957.1000001430511","","","","","3","html-slider-response","516","","","","2",""
"887","","","","","3","html-keyboard-response","517","","","","",""
"2074","cigar","ndugu,kuta,adhabu,mlango","adhabu","j","3","html-keyboard-response","518","j","adhabu","true","","1"
"1726.6999998092651","","","","","3","html-slider-response","519","","","","5",""
"480","","","","","3","html-keyboard-response","520","","","","",""
"3217","hammer","mekno,napakyas,kitovu,layag","napakyas","v","3","html-keyboard-response","521","n","layag","false","","4"
"1013.5","","","","","3","html-slider-response","522","","","","2",""
"529","","","","","3","html-keyboard-response","523","","","","",""
"3342","fork","baboy,paghago,gorisi,mgonjwa","mgonjwa","n","3","html-keyboard-response","524","v","paghago","false","","4"
"954.7999999523163","","","","","3","html-slider-response","525","","","","2",""
"534","","","","","3","html-keyboard-response","526","","","","",""
"1796","sun","bendi,luha,uongo,basi","basi","n","3","html-keyboard-response","527","n","basi","true","","1"
"1506.5","","","","","3","html-slider-response","528","","","","5",""
"1720","","","","","3","html-keyboard-response","529","","","","",""
"8255","ladder","pangalan,mashua,mwanga,kamba","pangalan","f","3","html-keyboard-response","530","j","mwanga","false","","4"
"844.4000000953674","","","","","3","html-slider-response","531","","","","2",""
"562","","","","","3","html-keyboard-response","532","","","","",""
"2040","banana","kasamok,kazi,hagdan,twai","kazi","v","3","html-keyboard-response","533","v","kazi","true","","1"
"1500.5999999046326","","","","","3","html-slider-response","534","","","","5",""
"722","","","","","3","html-keyboard-response","535","","","","",""
"4099","pudding","abug,mpishi,aibu,iring","aibu","j","3","html-keyboard-response","536","v","mpishi","false","","4"
"1470","","","","","3","html-slider-response","537","","","","2",""
"400","","","","","3","html-keyboard-response","538","","","","",""
"4006","body","tindashan,nyundu,jibini,kununa","tindashan","f","3","html-keyboard-response","539","f","tindashan","true","","4"
"1022.2000000476837","","","","","3","html-slider-response","540","","","","2",""
"498","","","","","3","html-keyboard-response","541","","","","",""
"2552","bed","kalipay,haraka,mapintas,starehe","mapintas","j","3","html-keyboard-response","542","j","mapintas","true","","4"
"712.2000000476837","","","","","3","html-slider-response","543","","","","2",""
"577","","","","","3","html-keyboard-response","544","","","","",""
"3263","tissue","lamigas,kisiwa,ugomvi,katika","ugomvi","j","3","html-keyboard-response","545","v","kisiwa","false","","4"
"792","","","","","3","html-slider-response","546","","","","2",""
"480","","","","","3","html-keyboard-response","547","","","","",""
"1883","candle","gabi,geza,farasi,kupanda","geza","v","3","html-keyboard-response","548","n","kupanda","false","","4"
"762.3999998569489","","","","","3","html-slider-response","549","","","","2",""
"425","","","","","3","html-keyboard-response","550","","","","",""
"1736","tomato","chupi,chupa,takatak,mvua","mvua","n","3","html-keyboard-response","551","n","mvua","true","","1"
"1486.4000000953674","","","","","3","html-slider-response","552","","","","5",""
"583","","","","","3","html-keyboard-response","553","","","","",""
"2597","list","alizeti,wingu,kuzama,kaso","wingu","v","3","html-keyboard-response","554","v","wingu","true","","4"
"1287.7999999523163","","","","","3","html-slider-response","555","","","","2",""
"716","","","","","3","html-keyboard-response","556","","","","",""
"3392","olive","jiwe,bata,siagi,welder","jiwe","f","3","html-keyboard-response","557","f","jiwe","true","","4"
"1003","","","","","3","html-slider-response","558","","","","4",""
"444","","","","","3","html-keyboard-response","559","","","","",""
"1682","picture","silya,chaki,kubwa,asin","kubwa","j","3","html-keyboard-response","560","j","kubwa","true","","1"
"1842.7999999523163","","","","","3","html-slider-response","561","","","","5",""
"465","","","","","3","html-keyboard-response","562","","","","",""
"2819","page","wimbo,wakala,ishiri,skina","wimbo","f","4","html-keyboard-response","888","f","wimbo","true","",""
"1976.8999998569489","","","","","4","html-slider-response","889","","","","5",""
"6162","sheet","juuya,watu,kamantis,bililhon","bililhon","n","4","html-keyboard-response","890","v","watu","false","",""
"2081","","","","","4","html-slider-response","891","","","","2",""
"17309","ladder","pangalan,mashua,mwanga,kamba","pangalan","f","4","html-keyboard-response","892","j","mwanga","false","",""
"1225.6000001430511","","","","","4","html-slider-response","893","","","","2",""
"3448","door","surali,tena,soko,nyota","surali","f","4","html-keyboard-response","894","n","nyota","false","",""
"993.5","","","","","4","html-slider-response","895","","","","2",""
"4412","spider","bunyag,mkboa,kamwe,atop","kamwe","j","4","html-keyboard-response","896","j","kamwe","true","",""
"1011.2999999523163","","","","","4","html-slider-response","897","","","","2",""
"7583","picture","silya,chaki,kubwa,asin","kubwa","j","4","html-keyboard-response","898","j","kubwa","true","",""
"1479.5999999046326","","","","","4","html-slider-response","899","","","","2",""
"2463","boat","hamsi,pombe,agalon,kitanda","agalon","j","4","html-keyboard-response","900","j","agalon","true","",""
"900.9000000953674","","","","","4","html-slider-response","901","","","","4",""
"2749","donkey","bloke,lalake,rombus,elfu","elfu","n","4","html-keyboard-response","902","n","elfu","true","",""
"929.6000001430511","","","","","4","html-slider-response","903","","","","4",""
"3257","book","kuhesa,picha,mali,mara","mali","j","4","html-keyboard-response","904","v","picha","false","",""
"1428.2000000476837","","","","","4","html-slider-response","905","","","","2",""
"11382","cup","dagat,matumai,shimoni,jeraha","matumai","v","4","html-keyboard-response","906","f","dagat","false","",""
"1448.7000000476837","","","","","4","html-slider-response","907","","","","2",""
"2923","sun","bendi,luha,basi,uongo","basi","j","4","html-keyboard-response","908","j","basi","true","",""
"1148.1999998092651","","","","","4","html-slider-response","909","","","","5",""
"2762","pudding","aibu,abug,mpishi,iring","aibu","f","4","html-keyboard-response","910","f","aibu","true","",""
"1295.2000000476837","","","","","4","html-slider-response","911","","","","2",""
"2210","human","bado,kikapu,tinapay,punguza","tinapay","j","4","html-keyboard-response","912","j","tinapay","true","",""
"2306.5","","","","","4","html-slider-response","913","","","","5",""
"2493","squirrel","mahugaw,ukweli,kichwa,hofu","hofu","n","4","html-keyboard-response","914","n","hofu","true","",""
"1447.7000000476837","","","","","4","html-slider-response","915","","","","2",""
"2826","park","tambok,pwani,ihalas,bunifu","bunifu","n","4","html-keyboard-response","916","n","bunifu","true","",""
"747","","","","","4","html-slider-response","917","","","","2",""
"4290","poster","nchi,madungog,fedha,kasuko","madungog","v","4","html-keyboard-response","918","v","madungog","true","",""
"773.6000001430511","","","","","4","html-slider-response","919","","","","2",""
"2693","wolf","kaburi,lugha,ndizi,mchuzi","lugha","v","4","html-keyboard-response","920","v","lugha","true","",""
"938","","","","","4","html-slider-response","921","","","","4",""
"4275","cat","neyemba,paghukom,baki,akili","paghukom","v","4","html-keyboard-response","922","v","paghukom","true","",""
"1051.3999998569489","","","","","4","html-slider-response","923","","","","2",""
"3373","fish","bala,baho,buli,imani","buli","j","4","html-keyboard-response","924","j","buli","true","",""
"966.7999999523163","","","","","4","html-slider-response","925","","","","2",""
"1860","tooth","kijiko,uadui,pahiyum,kabalaka","kabalaka","n","4","html-keyboard-response","926","n","kabalaka","true","",""
"1194.0999999046326","","","","","4","html-slider-response","927","","","","5",""
"1630","cave","ganti,maisha,nyundo,kesho","kesho","n","4","html-keyboard-response","928","n","kesho","true","",""
"883.2999999523163","","","","","4","html-slider-response","929","","","","5",""
"4377","lamp","daub,bilaska,afya,mbolea","afya","j","4","html-keyboard-response","930","j","afya","true","",""
"1296.5","","","","","4","html-slider-response","931","","","","2",""
"1649","banana","kasamok,hagdan,twai,kazi","kazi","n","4","html-keyboard-response","932","n","kazi","true","",""
"828.7999999523163","","","","","4","html-slider-response","933","","","","5",""
"1948","bonfire","mwezi,goti,mfuko,kusanya","goti","v","4","html-keyboard-response","934","v","goti","true","",""
"1157.3999998569489","","","","","4","html-slider-response","935","","","","5",""
"1925","cop","mechezo,bustani,jikoni,bakus","mechezo","f","4","html-keyboard-response","936","f","mechezo","true","",""
"1651","","","","","4","html-slider-response","937","","","","5",""
"5944","marker","mapafu,maji,salita,atay","maji","v","4","html-keyboard-response","938","f","mapafu","false","",""
"1644","","","","","4","html-slider-response","939","","","","2",""
"4645","window","kweli,nanga,kujenga,umaga","kweli","f","4","html-keyboard-response","940","v","nanga","false","",""
"3038","","","","","4","html-slider-response","941","","","","2",""
"2331","body","tindashan,nyundu,jibini,kununa","tindashan","f","4","html-keyboard-response","942","f","tindashan","true","",""
"1362.9000000953674","","","","","4","html-slider-response","943","","","","4",""
"17162","apple","ukame,kisu,estante,edad","kisu","v","4","html-keyboard-response","944","v","kisu","true","",""
"1504.6999998092651","","","","","4","html-slider-response","945","","","","5",""
"2050","salmon","sensilyo,mzungu,seri,baharia","sensilyo","f","4","html-keyboard-response","946","f","sensilyo","true","",""
"981.7999999523163","","","","","4","html-slider-response","947","","","","5",""
"2879","bed","kalipay,haraka,starehe,mapintas","mapintas","n","4","html-keyboard-response","948","n","mapintas","true","",""
"1111.5","","","","","4","html-slider-response","949","","","","2",""
"1558","berry","kofia,abogado,nogozi,kinywa","kofia","f","4","html-keyboard-response","950","f","kofia","true","",""
"1174.0999999046326","","","","","4","html-slider-response","951","","","","5",""
"3192","mirror","sulagma,rangi,kanding,furaha","sulagma","f","4","html-keyboard-response","952","f","sulagma","true","",""
"924.8000001907349","","","","","4","html-slider-response","953","","","","2",""
"2653","flag","ndege,mkate,trekta,kawa","trekta","j","4","html-keyboard-response","954","j","trekta","true","",""
"907.6000001430511","","","","","4","html-slider-response","955","","","","5",""
"3958","shoulder","kelele,ndaniya,mkuu,guruwe","mkuu","j","4","html-keyboard-response","956","j","mkuu","true","",""
"1321.2999999523163","","","","","4","html-slider-response","957","","","","2",""
"4188","tissue","lamigas,kisiwa,katika,ugomvi","ugomvi","n","4","html-keyboard-response","958","j","katika","false","",""
"954.2999999523163","","","","","4","html-slider-response","959","","","","2",""
"4141","notebook","msitu,kila,mdudu,kemia","kemia","n","4","html-keyboard-response","960","f","msitu","false","",""
"1131.2999999523163","","","","","4","html-slider-response","961","","","","2",""
"2294","snake","pagtukod,jansa,karon,mvringo","pagtukod","f","4","html-keyboard-response","962","f","pagtukod","true","",""
"859.2000000476837","","","","","4","html-slider-response","963","","","","4",""
"3618","finger","simu,moyo,sufuria,lima","moyo","v","4","html-keyboard-response","964","j","sufuria","false","",""
"792.5","","","","","4","html-slider-response","965","","","","4",""
"3340","basket","kumba,kumbuka,utepe,hasira","kumba","f","4","html-keyboard-response","966","f","kumba","true","",""
"1074.4000000953674","","","","","4","html-slider-response","967","","","","2",""
"1809","curtain","mchanga,lisud,bulwawan,chubani","mchanga","f","4","html-keyboard-response","968","f","mchanga","true","",""
"840.1999998092651","","","","","4","html-slider-response","969","","","","2",""
"1945","perfume","bino,sungura,ndogo,katuyoan","katuyoan","n","4","html-keyboard-response","970","n","katuyoan","true","",""
"1182.2000000476837","","","","","4","html-slider-response","971","","","","2",""
"2757","key","miaka,chombo,goma,ahos","chombo","v","4","html-keyboard-response","972","j","goma","false","",""
"737.9000000953674","","","","","4","html-slider-response","973","","","","2",""
"2440","olive","bata,siagi,welder,jiwe","jiwe","n","4","html-keyboard-response","974","n","jiwe","true","",""
"1083","","","","","4","html-slider-response","975","","","","5",""
"3831","rose","singizi,mwanake,paghalad,amani","paghalad","j","4","html-keyboard-response","976","j","paghalad","true","",""
"993.5","","","","","4","html-slider-response","977","","","","2",""
"4437","bridge","daima,ngono,panya,sahani","sahani","n","4","html-keyboard-response","978","f","daima","false","",""
"732.0999999046326","","","","","4","html-slider-response","979","","","","2",""
"2157","hill","kushoto,kukimba,sweta,matumbo","matumbo","n","4","html-keyboard-response","980","n","matumbo","true","",""
"948.1000001430511","","","","","4","html-slider-response","981","","","","5",""
"2925","letter","filimbi,chuma,uhuru,kifua","kifua","n","4","html-keyboard-response","982","f","filimbi","false","",""
"1129.8000001907349","","","","","4","html-slider-response","983","","","","2",""
"1617","sock","ndoora,kimysa,mamba,mtirka","mamba","j","4","html-keyboard-response","984","j","mamba","true","",""
"1165","","","","","4","html-slider-response","985","","","","5",""
"6046","fork","baboy,mgonjwa,paghago,gorisi","mgonjwa","v","4","html-keyboard-response","986","v","mgonjwa","true","",""
"1796.5","","","","","4","html-slider-response","987","","","","5",""
"2399","box","kuacha,adui,rafiki,kitande","adui","v","4","html-keyboard-response","988","v","adui","true","",""
"815","","","","","4","html-slider-response","989","","","","2",""
"5040","gift","baba,nyange,baso,pagtawag","pagtawag","n","4","html-keyboard-response","990","n","pagtawag","true","",""
"825.7000000476837","","","","","4","html-slider-response","991","","","","2",""
"2645","bucket","kiatu,baga,ijayo,init","kiatu","f","4","html-keyboard-response","992","f","kiatu","true","",""
"891.2999999523163","","","","","4","html-slider-response","993","","","","4",""
"2540","shop","samaki,nopya,kerida,ndezu","samaki","f","4","html-keyboard-response","994","f","samaki","true","",""
"1491.5","","","","","4","html-slider-response","995","","","","2",""
"3234","puppet","napulo,mazishi,lamok,godoro","mazishi","v","4","html-keyboard-response","996","v","mazishi","true","",""
"864.5999999046326","","","","","4","html-slider-response","997","","","","4",""
"4309","nose","gubat,kopa,sehemu,kidole","sehemu","j","4","html-keyboard-response","998","j","sehemu","true","",""
"801.7000000476837","","","","","4","html-slider-response","999","","","","2",""
"2624","music","mraba,baiski,mageho,tumbo","baiski","v","4","html-keyboard-response","1000","v","baiski","true","",""
"803.1000001430511","","","","","4","html-slider-response","1001","","","","4",""
"1925","dog","lubi,washia,bahari,kalamu","bahari","j","4","html-keyboard-response","1002","j","bahari","true","",""
"1379.3999998569489","","","","","4","html-slider-response","1003","","","","5",""
"2199","eel","msumari,ishara,kunywa,kabuang","msumari","f","4","html-keyboard-response","1004","f","msumari","true","",""
"1411.5","","","","","4","html-slider-response","1005","","","","4",""
"1924","number","shule,kengele,mundamo,choori","mundamo","j","4","html-keyboard-response","1006","j","mundamo","true","",""
"1177.7999999523163","","","","","4","html-slider-response","1007","","","","4",""
"4656","tomato","chupi,chupa,mvua,takatak","mvua","j","4","html-keyboard-response","1008","n","takatak","false","",""
"842.9000000953674","","","","","4","html-slider-response","1009","","","","4",""
"1910","coffin","barua,kioo,tubag,hulma","kioo","v","4","html-keyboard-response","1010","v","kioo","true","",""
"892.7999999523163","","","","","4","html-slider-response","1011","","","","5",""
"2535","knee","mvuke,duka,kubale,bili","duka","v","4","html-keyboard-response","1012","f","mvuke","false","",""
"792.6000001430511","","","","","4","html-slider-response","1013","","","","2",""
"2885","woman","bandari,bituin,pagtabon,kovuli","pagtabon","j","4","html-keyboard-response","1014","j","pagtabon","true","",""
"900.5","","","","","4","html-slider-response","1015","","","","4",""
"3158","stone","ulimwengu,wingi,mkasi,asili","wingi","v","4","html-keyboard-response","1016","n","asili","false","",""
"1537.8999998569489","","","","","4","html-slider-response","1017","","","","2",""
"2050","bread","kaili,dizeli,bugas,dari","dari","n","4","html-keyboard-response","1018","n","dari","true","",""
"996","","","","","4","html-slider-response","1019","","","","4",""
"5277","triangle","kihozi,bentaha,liog,kasadpan","kasadpan","n","4","html-keyboard-response","1020","v","bentaha","false","",""
"849.3000001907349","","","","","4","html-slider-response","1021","","","","2",""
"5270","scissors","tanuri,duga,mtawa,suga","tanuri","f","4","html-keyboard-response","1022","v","duga","false","",""
"1126.2000000476837","","","","","4","html-slider-response","1023","","","","2",""
"3446","giraffe","daraja,mahitabo,jumatu,hangyo","mahitabo","v","4","html-keyboard-response","1024","v","mahitabo","true","",""
"792.2000000476837","","","","","4","html-slider-response","1025","","","","2",""
"5237","flower","tamasha,lobo,usiku,bega","bega","n","4","html-keyboard-response","1026","f","tamasha","false","",""
"1850.2000000476837","","","","","4","html-slider-response","1027","","","","2",""
"2765","candle","gabi,farasi,kupanda,geza","geza","n","4","html-keyboard-response","1028","f","gabi","false","",""
"987","","","","","4","html-slider-response","1029","","","","2",""
"3254","mother","kahawa,mbuzi,jokofu,babaye","babaye","n","4","html-keyboard-response","1030","n","babaye","true","",""
"969.4000000953674","","","","","4","html-slider-response","1031","","","","4",""
"2482","towel","tembo,pagpalit,funzi,pito","pagpalit","v","4","html-keyboard-response","1032","n","pito","false","",""
"1238.5","","","","","4","html-slider-response","1033","","","","2",""
"3785","elephant","kito,petye,pagduol,suka","kito","f","4","html-keyboard-response","1034","j","pagduol","false","",""
"789.6000001430511","","","","","4","html-slider-response","1035","","","","2",""
"2623","shelf","bungtod,kadaot,awit,pamahaw","pamahaw","n","4","html-keyboard-response","1036","v","kadaot","false","",""
"746.4000000953674","","","","","4","html-slider-response","1037","","","","2",""
"1817","mosquito","isda,taras,martilyo,gutom","martilyo","j","4","html-keyboard-response","1038","j","martilyo","true","",""
"1666.5","","","","","4","html-slider-response","1039","","","","5",""
"4895","column","pundok,ufagio,dila,pala","ufagio","v","4","html-keyboard-response","1040","v","ufagio","true","",""
"932.2000000476837","","","","","4","html-slider-response","1041","","","","4",""
"12630","pants","pintal,chuki,haki,hari","haki","j","4","html-keyboard-response","1042","j","haki","true","",""
"2248.9000000953674","","","","","4","html-slider-response","1043","","","","2",""
"3806","list","alizeti,kuzama,kaso,wingu","wingu","n","4","html-keyboard-response","1044","n","wingu","true","",""
"1885.3999998569489","","","","","4","html-slider-response","1045","","","","2",""
"2664","bank","silingan,kudhibi,tualya,ofisi","silingan","f","4","html-keyboard-response","1046","n","ofisi","false","",""
"1020.2999999523163","","","","","4","html-slider-response","1047","","","","2",""
"5299","clock","mbwa,kartasi,abang,osha","mbwa","f","4","html-keyboard-response","1048","f","mbwa","true","",""
"866.5999999046326","","","","","4","html-slider-response","1049","","","","4",""
"2740","ceiling","kugita,kawaida,rayna,maua","maua","n","4","html-keyboard-response","1050","j","rayna","false","",""
"1085.2999999523163","","","","","4","html-slider-response","1051","","","","2",""
"2450","train","sayari,itik,dakika,mungu","sayari","f","4","html-keyboard-response","1052","f","sayari","true","",""
"948.3999998569489","","","","","4","html-slider-response","1053","","","","2",""
"2559","magazine","gundi,mchawi,bahandi,kiti","kiti","n","4","html-keyboard-response","1054","v","mchawi","false","",""
"1000.2999999523163","","","","","4","html-slider-response","1055","","","","2",""
"2748","office","hazini,leso,yatima,kuna","leso","v","4","html-keyboard-response","1056","v","leso","true","",""
"1362.7999999523163","","","","","4","html-slider-response","1057","","","","4",""
"2536","wheel","punda,tawo,baadaye,bafuni","bafuni","n","4","html-keyboard-response","1058","n","bafuni","true","",""
"1574.5","","","","","4","html-slider-response","1059","","","","2",""
"2606","spoon","betri,nzuri,pagsulod,ngazi","pagsulod","j","4","html-keyboard-response","1060","j","pagsulod","true","",""
"894","","","","","4","html-slider-response","1061","","","","2",""
"2535","hammer","napakyas,mekno,kitovu,layag","napakyas","f","4","html-keyboard-response","1062","f","napakyas","true","",""
"870.4000000953674","","","","","4","html-slider-response","1063","","","","2",""
"6428","cigar","ndugu,kuta,mlango,adhabu","adhabu","n","4","html-keyboard-response","1064","n","adhabu","true","",""
"784.5999999046326","","","","","4","html-slider-response","1065","","","","2",""
"2500","shoe","nyeusi,hatua,kama,uyoga","uyoga","n","4","html-keyboard-response","1066","n","uyoga","true","",""
"767.1999998092651","","","","","4","html-slider-response","1067","","","","2",""
"3120","list","wingu,alizeti,kuzama,kaso","wingu","f","5","html-keyboard-response","1069","f","wingu","true","",""
"1248.8000001907349","","","","","5","html-slider-response","1070","","","","2",""
"2056","number","shule,kengele,choori,mundamo","mundamo","n","5","html-keyboard-response","1071","n","mundamo","true","",""
"765.8999998569489","","","","","5","html-slider-response","1072","","","","5",""
"1599","apple","ukame,estante,kisu,edad","kisu","j","5","html-keyboard-response","1073","j","kisu","true","",""
"1017.0999999046326","","","","","5","html-slider-response","1074","","","","5",""
"2686","knee","mvuke,kubale,bili,duka","duka","n","5","html-keyboard-response","1075","f","mvuke","false","",""
"1076.6999998092651","","","","","5","html-slider-response","1076","","","","2",""
"1723","tooth","kijiko,uadui,pahiyum,kabalaka","kabalaka","n","5","html-keyboard-response","1077","n","kabalaka","true","",""
"1010.5","","","","","5","html-slider-response","1078","","","","5",""
"1529","berry","kofia,abogado,nogozi,kinywa","kofia","f","5","html-keyboard-response","1079","f","kofia","true","",""
"950.2999999523163","","","","","5","html-slider-response","1080","","","","5",""
"5025","bridge","daima,sahani,ngono,panya","sahani","v","5","html-keyboard-response","1081","f","daima","false","",""
"902.6000001430511","","","","","5","html-slider-response","1082","","","","2",""
"3128","perfume","bino,katuyoan,sungura,ndogo","katuyoan","v","5","html-keyboard-response","1083","v","katuyoan","true","",""
"833.1000001430511","","","","","5","html-slider-response","1084","","","","2",""
"5625","ladder","mashua,mwanga,kamba,pangalan","pangalan","n","5","html-keyboard-response","1085","n","pangalan","true","",""
"820.3999998569489","","","","","5","html-slider-response","1086","","","","2",""
"3067","pants","pintal,haki,chuki,hari","haki","v","5","html-keyboard-response","1087","v","haki","true","",""
"895","","","","","5","html-slider-response","1088","","","","2",""
"1485","salmon","mzungu,seri,baharia,sensilyo","sensilyo","n","5","html-keyboard-response","1089","n","sensilyo","true","",""
"1124.6000001430511","","","","","5","html-slider-response","1090","","","","5",""
"1472","coffin","kioo,barua,tubag,hulma","kioo","f","5","html-keyboard-response","1091","f","kioo","true","",""
"965.5999999046326","","","","","5","html-slider-response","1092","","","","5",""
"4516","park","tambok,bunifu,pwani,ihalas","bunifu","v","5","html-keyboard-response","1093","v","bunifu","true","",""
"875.8999998569489","","","","","5","html-slider-response","1094","","","","2",""
"3354","giraffe","daraja,jumatu,hangyo,mahitabo","mahitabo","n","5","html-keyboard-response","1095","n","mahitabo","true","",""
"959.8999998569489","","","","","5","html-slider-response","1096","","","","4",""
"3226","mirror","rangi,kanding,furaha,sulagma","sulagma","n","5","html-keyboard-response","1097","n","sulagma","true","",""
"1477.4000000953674","","","","","5","html-slider-response","1098","","","","4",""
"2808","ceiling","kugita,kawaida,maua,rayna","maua","j","5","html-keyboard-response","1099","n","rayna","false","",""
"808.5","","","","","5","html-slider-response","1100","","","","2",""
"4124","marker","mapafu,salita,atay,maji","maji","n","5","html-keyboard-response","1101","f","mapafu","false","",""
"727.4000000953674","","","","","5","html-slider-response","1102","","","","2",""
"1483","sock","ndoora,kimysa,mamba,mtirka","mamba","j","5","html-keyboard-response","1103","j","mamba","true","",""
"778.5999999046326","","","","","5","html-slider-response","1104","","","","5",""
"1916","cop","bustani,mechezo,jikoni,bakus","mechezo","v","5","html-keyboard-response","1105","v","mechezo","true","",""
"793","","","","","5","html-slider-response","1106","","","","5",""
"2233","gift","baba,pagtawag,nyange,baso","pagtawag","v","5","html-keyboard-response","1107","v","pagtawag","true","",""
"954","","","","","5","html-slider-response","1108","","","","2",""
"5521","notebook","msitu,kila,kemia,mdudu","kemia","j","5","html-keyboard-response","1109","j","kemia","true","",""
"943.5","","","","","5","html-slider-response","1110","","","","2",""
"2435","bank","kudhibi,tualya,silingan,ofisi","silingan","j","5","html-keyboard-response","1111","n","ofisi","false","",""
"2045.7999999523163","","","","","5","html-slider-response","1112","","","","2",""
"4151","letter","filimbi,chuma,uhuru,kifua","kifua","n","5","html-keyboard-response","1113","n","kifua","true","",""
"1241.2000000476837","","","","","5","html-slider-response","1114","","","","2",""
"2903","candle","gabi,farasi,geza,kupanda","geza","j","5","html-keyboard-response","1115","f","gabi","false","",""
"1671.8999998569489","","","","","5","html-slider-response","1116","","","","2",""
"2687","bread","kaili,dari,dizeli,bugas","dari","v","5","html-keyboard-response","1117","v","dari","true","",""
"958.9000000953674","","","","","5","html-slider-response","1118","","","","4",""
"2427","snake","pagtukod,jansa,karon,mvringo","pagtukod","f","5","html-keyboard-response","1119","f","pagtukod","true","",""
"1130.3999998569489","","","","","5","html-slider-response","1120","","","","4",""
"3024","rose","singizi,mwanake,amani,paghalad","paghalad","n","5","html-keyboard-response","1121","n","paghalad","true","",""
"789.4000000953674","","","","","5","html-slider-response","1122","","","","2",""
"2022","hill","kushoto,kukimba,matumbo,sweta","matumbo","j","5","html-keyboard-response","1123","j","matumbo","true","",""
"1006.5","","","","","5","html-slider-response","1124","","","","5",""
"2616","train","itik,dakika,mungu,sayari","sayari","n","5","html-keyboard-response","1125","n","sayari","true","",""
"875.7000000476837","","","","","5","html-slider-response","1126","","","","2",""
"4667","shop","nopya,kerida,ndezu,samaki","samaki","n","5","html-keyboard-response","1127","f","nopya","false","",""
"985.8999998569489","","","","","5","html-slider-response","1128","","","","2",""
"1626","nose","gubat,kopa,kidole,sehemu","sehemu","n","5","html-keyboard-response","1129","n","sehemu","true","",""
"785.3999998569489","","","","","5","html-slider-response","1130","","","","2",""
"2111","boat","hamsi,pombe,agalon,kitanda","agalon","j","5","html-keyboard-response","1131","j","agalon","true","",""
"1080","","","","","5","html-slider-response","1132","","","","4",""
"2196","body","nyundu,jibini,kununa,tindashan","tindashan","n","5","html-keyboard-response","1133","n","tindashan","true","",""
"1295.2000000476837","","","","","5","html-slider-response","1134","","","","5",""
"2058","bed","kalipay,haraka,mapintas,starehe","mapintas","j","5","html-keyboard-response","1135","j","mapintas","true","",""
"1479.9000000953674","","","","","5","html-slider-response","1136","","","","2",""
"4238","squirrel","hofu,mahugaw,ukweli,kichwa","hofu","f","5","html-keyboard-response","1137","v","mahugaw","false","",""
"1256.5","","","","","5","html-slider-response","1138","","","","2",""
"3377","window","nanga,kujenga,kweli,umaga","kweli","j","5","html-keyboard-response","1139","v","kujenga","false","",""
"1782.1000001430511","","","","","5","html-slider-response","1140","","","","2",""
"1375","bonfire","mwezi,mfuko,goti,kusanya","goti","j","5","html-keyboard-response","1141","j","goti","true","",""
"1280.1000001430511","","","","","5","html-slider-response","1142","","","","5",""
"6855","fish","bala,baho,imani,buli","buli","n","5","html-keyboard-response","1143","f","bala","false","",""
"1102.4000000953674","","","","","5","html-slider-response","1144","","","","2",""
"4598","cat","neyemba,baki,paghukom,akili","paghukom","j","5","html-keyboard-response","1145","j","paghukom","true","",""
"1293.8999998569489","","","","","5","html-slider-response","1146","","","","2",""
"3846","spider","bunyag,mkboa,kamwe,atop","kamwe","j","5","html-keyboard-response","1147","j","kamwe","true","",""
"766.3999998569489","","","","","5","html-slider-response","1148","","","","2",""
"2346","eel","ishara,msumari,kunywa,kabuang","msumari","v","5","html-keyboard-response","1149","v","msumari","true","",""
"1693.9000000953674","","","","","5","html-slider-response","1150","","","","2",""
"2651","woman","bandari,bituin,pagtabon,kovuli","pagtabon","j","5","html-keyboard-response","1151","j","pagtabon","true","",""
"1002","","","","","5","html-slider-response","1152","","","","4",""
"3904","magazine","gundi,kiti,mchawi,bahandi","kiti","v","5","html-keyboard-response","1153","j","mchawi","false","",""
"902.9000000953674","","","","","5","html-slider-response","1154","","","","2",""
"3085","pudding","abug,mpishi,iring,aibu","aibu","n","5","html-keyboard-response","1155","n","aibu","true","",""
"1159.2000000476837","","","","","5","html-slider-response","1156","","","","2",""
"1561","lamp","daub,bilaska,mbolea,afya","afya","n","5","html-keyboard-response","1157","n","afya","true","",""
"710.5999999046326","","","","","5","html-slider-response","1158","","","","2",""
"2289","cave","ganti,kesho,maisha,nyundo","kesho","v","5","html-keyboard-response","1159","v","kesho","true","",""
"1211.2000000476837","","","","","5","html-slider-response","1160","","","","5",""
"3469","shoulder","mkuu,kelele,ndaniya,guruwe","mkuu","f","5","html-keyboard-response","1161","f","mkuu","true","",""
"816.0999999046326","","","","","5","html-slider-response","1162","","","","2",""
"6366","stone","wingi,ulimwengu,mkasi,asili","wingi","f","5","html-keyboard-response","1163","f","wingi","true","",""
"1132.1000001430511","","","","","5","html-slider-response","1164","","","","2",""
"1853","column","pundok,dila,ufagio,pala","ufagio","j","5","html-keyboard-response","1165","j","ufagio","true","",""
"1057.7999999523163","","","","","5","html-slider-response","1166","","","","4",""
"3577","page","wimbo,wakala,ishiri,skina","wimbo","f","5","html-keyboard-response","1167","f","wimbo","true","",""
"734.8999998569489","","","","","5","html-slider-response","1168","","","","4",""
"2149","shoe","uyoga,nyeusi,hatua,kama","uyoga","f","5","html-keyboard-response","1169","f","uyoga","true","",""
"871.9000000953674","","","","","5","html-slider-response","1170","","","","2",""
"2772","clock","kartasi,mbwa,abang,osha","mbwa","v","5","html-keyboard-response","1171","v","mbwa","true","",""
"958.0999999046326","","","","","5","html-slider-response","1172","","","","5",""
"3684","towel","pagpalit,tembo,funzi,pito","pagpalit","f","5","html-keyboard-response","1173","n","pito","false","",""
"1055.6000001430511","","","","","5","html-slider-response","1174","","","","2",""
"9083","tomato","mvua,chupi,chupa,takatak","mvua","f","5","html-keyboard-response","1175","n","takatak","false","",""
"1439.8000001907349","","","","","5","html-slider-response","1176","","","","2",""
"2785","bucket","baga,kiatu,ijayo,init","kiatu","v","5","html-keyboard-response","1177","v","kiatu","true","",""
"868.7000000476837","","","","","5","html-slider-response","1178","","","","2",""
"3266","finger","moyo,simu,sufuria,lima","moyo","f","5","html-keyboard-response","1179","j","sufuria","false","",""
"927.5999999046326","","","","","5","html-slider-response","1180","","","","4",""
"1591","mother","kahawa,mbuzi,jokofu,babaye","babaye","n","5","html-keyboard-response","1181","n","babaye","true","",""
"1306.2999999523163","","","","","5","html-slider-response","1182","","","","5",""
"1874","human","tinapay,bado,kikapu,punguza","tinapay","f","5","html-keyboard-response","1183","f","tinapay","true","",""
"1667","","","","","5","html-slider-response","1184","","","","5",""
"2062","sun","bendi,basi,luha,uongo","basi","v","5","html-keyboard-response","1185","v","basi","true","",""
"967.3999998569489","","","","","5","html-slider-response","1186","","","","5",""
"3722","fork","baboy,paghago,gorisi,mgonjwa","mgonjwa","n","5","html-keyboard-response","1187","n","mgonjwa","true","",""
"1264.5","","","","","5","html-slider-response","1188","","","","5",""
"2908","donkey","bloke,lalake,rombus,elfu","elfu","n","5","html-keyboard-response","1189","n","elfu","true","",""
"1160.9000000953674","","","","","5","html-slider-response","1190","","","","4",""
"1878","wolf","kaburi,lugha,ndizi,mchuzi","lugha","v","5","html-keyboard-response","1191","v","lugha","true","",""
"876","","","","","5","html-slider-response","1192","","","","2",""
"6809","cigar","ndugu,kuta,adhabu,mlango","adhabu","j","5","html-keyboard-response","1193","j","adhabu","true","",""
"1090.7999999523163","","","","","5","html-slider-response","1194","","","","2",""
"1898","olive","jiwe,bata,siagi,welder","jiwe","f","5","html-keyboard-response","1195","f","jiwe","true","",""
"1129.0999999046326","","","","","5","html-slider-response","1196","","","","5",""
"3020","key","chombo,miaka,goma,ahos","chombo","f","5","html-keyboard-response","1197","f","chombo","true","",""
"1115.5999999046326","","","","","5","html-slider-response","1198","","","","2",""
"2599","door","tena,soko,nyota,surali","surali","n","5","html-keyboard-response","1199","n","surali","true","",""
"930.5999999046326","","","","","5","html-slider-response","1200","","","","2",""
"2738","wheel","punda,tawo,bafuni,baadaye","bafuni","j","5","html-keyboard-response","1201","j","bafuni","true","",""
"901.7999999523163","","","","","5","html-slider-response","1202","","","","2",""
"4195","basket","kumbuka,kumba,utepe,hasira","kumba","v","5","html-keyboard-response","1203","v","kumba","true","",""
"1125","","","","","5","html-slider-response","1204","","","","2",""
"1997","elephant","petye,pagduol,kito,suka","kito","j","5","html-keyboard-response","1205","v","pagduol","false","",""
"871.1000001430511","","","","","5","html-slider-response","1206","","","","4",""
"2180","office","leso,hazini,yatima,kuna","leso","f","5","html-keyboard-response","1207","f","leso","true","",""
"909.1000001430511","","","","","5","html-slider-response","1208","","","","5",""
"2098","music","baiski,mraba,mageho,tumbo","baiski","f","5","html-keyboard-response","1209","f","baiski","true","",""
"1103.9000000953674","","","","","5","html-slider-response","1210","","","","5",""
"3378","tissue","ugomvi,lamigas,kisiwa,katika","ugomvi","f","5","html-keyboard-response","1211","n","katika","false","",""
"814.3999998569489","","","","","5","html-slider-response","1212","","","","2",""
"3212","curtain","mchanga,lisud,bulwawan,chubani","mchanga","f","5","html-keyboard-response","1213","f","mchanga","true","",""
"1139.4000000953674","","","","","5","html-slider-response","1214","","","","2",""
"2039","flag","ndege,mkate,kawa,trekta","trekta","n","5","html-keyboard-response","1215","n","trekta","true","",""
"876.1999998092651","","","","","5","html-slider-response","1216","","","","5",""
"1473","dog","lubi,washia,bahari,kalamu","bahari","j","5","html-keyboard-response","1217","j","bahari","true","",""
"1380","","","","","5","html-slider-response","1218","","","","5",""
"2918","cup","dagat,shimoni,matumai,jeraha","matumai","j","5","html-keyboard-response","1219","f","dagat","false","",""
"793","","","","","5","html-slider-response","1220","","","","2",""
"3111","sheet","juuya,watu,bililhon,kamantis","bililhon","j","5","html-keyboard-response","1221","n","kamantis","false","",""
"753","","","","","5","html-slider-response","1222","","","","2",""
"1351","spoon","betri,nzuri,pagsulod,ngazi","pagsulod","j","5","html-keyboard-response","1223","j","pagsulod","true","",""
"765.2999999523163","","","","","5","html-slider-response","1224","","","","2",""
"5205","flower","tamasha,bega,lobo,usiku","bega","v","5","html-keyboard-response","1225","f","tamasha","false","",""
"785.9000000953674","","","","","5","html-slider-response","1226","","","","2",""
"3851","picture","silya,chaki,asin,kubwa","kubwa","n","5","html-keyboard-response","1227","n","kubwa","true","",""
"1316.2000000476837","","","","","5","html-slider-response","1228","","","","1",""
"2042","puppet","napulo,lamok,mazishi,godoro","mazishi","j","5","html-keyboard-response","1229","j","mazishi","true","",""
"1238.8999998569489","","","","","5","html-slider-response","1230","","","","5",""
"1768","banana","kazi,kasamok,hagdan,twai","kazi","f","5","html-keyboard-response","1231","f","kazi","true","",""
"863.5","","","","","5","html-slider-response","1232","","","","5",""
"2913","book","kuhesa,mali,picha,mara","mali","v","5","html-keyboard-response","1233","j","picha","false","",""
"845.4000000953674","","","","","5","html-slider-response","1234","","","","2",""
"3203","triangle","kihozi,kasadpan,bentaha,liog","kasadpan","v","5","html-keyboard-response","1235","f","kihozi","false","",""
"787.4000000953674","","","","","5","html-slider-response","1236","","","","2",""
"3196","poster","nchi,madungog,fedha,kasuko","madungog","v","5","html-keyboard-response","1237","v","madungog","true","",""
"725.3999998569489","","","","","5","html-slider-response","1238","","","","2",""
"1693","box","kuacha,adui,rafiki,kitande","adui","v","5","html-keyboard-response","1239","v","adui","true","",""
"818.5","","","","","5","html-slider-response","1240","","","","2",""
"1358","mosquito","isda,taras,martilyo,gutom","martilyo","j","5","html-keyboard-response","1241","j","martilyo","true","",""
"752","","","","","5","html-slider-response","1242","","","","5",""
"2694","shelf","bungtod,pamahaw,kadaot,awit","pamahaw","v","5","html-keyboard-response","1243","j","kadaot","false","",""
"1162.2999999523163","","","","","5","html-slider-response","1244","","","","2",""
"3028","scissors","duga,mtawa,tanuri,suga","tanuri","j","5","html-keyboard-response","1245","f","duga","false","",""
"823.2000000476837","","","","","5","html-slider-response","1246","","","","2",""
"2710","hammer","mekno,napakyas,kitovu,layag","napakyas","v","5","html-keyboard-response","1247","v","napakyas","true","",""
"865.5999999046326","","","","","5","html-slider-response","1248","","","","2",""
