"rt","en_word","options","swa_word","correct_answer","phase","trial_type","trial_index","input_answer","input_word","accuracy","certainty","amt_choices"
"65151","bonfire","mwezi,goti,mfuko,kusanya","goti","v","2","html-keyboard-response","106","j","mfuko","false","",""
"3874.1999999284744","","","","","2","html-slider-response","107","","","","2",""
"42168","flower","bega,tamasha,lobo,usiku","bega","f","2","html-keyboard-response","108","f","bega","true","",""
"5279.400000095367","","","","","2","html-slider-response","109","","","","2",""
"95626","column","pundok,dila,ufagio,pala","ufagio","j","2","html-keyboard-response","110","n","pala","false","",""
"11625.899999976158","","","","","2","html-slider-response","111","","","","4",""
"27388","music","mraba,mageho,tumbo,baiski","baiski","n","2","html-keyboard-response","112","n","baiski","true","",""
"6455.300000071526","","","","","2","html-slider-response","113","","","","5",""
"5193","spider","bunyag,kamwe,mkboa,atop","kamwe","v","2","html-keyboard-response","114","v","kamwe","true","",""
"3393.7000000476837","","","","","2","html-slider-response","115","","","","5",""
"6921","fork","mgonjwa,baboy,paghago,gorisi","mgonjwa","f","2","html-keyboard-response","116","f","mgonjwa","true","",""
"13771","","","","","2","html-slider-response","117","","","","5",""
"3576","mosquito","martilyo,isda,taras,gutom","martilyo","f","2","html-keyboard-response","118","f","martilyo","true","",""
"3413","","","","","2","html-slider-response","119","","","","5",""
"14126","banana","kasamok,hagdan,twai,kazi","kazi","n","2","html-keyboard-response","120","n","kazi","true","",""
"4485.299999952316","","","","","2","html-slider-response","121","","","","5",""
"4795","cup","dagat,shimoni,jeraha,matumai","matumai","n","2","html-keyboard-response","122","n","matumai","true","",""
"3237","","","","","2","html-slider-response","123","","","","5",""
"98037","shop","nopya,kerida,samaki,ndezu","samaki","j","2","html-keyboard-response","124","v","kerida","false","",""
"7840.900000095367","","","","","2","html-slider-response","125","","","","3",""
"97035","elephant","kito,petye,pagduol,suka","kito","f","2","html-keyboard-response","126","f","kito","true","",""
"5262.700000047684","","","","","2","html-slider-response","127","","","","5",""
"36060","bucket","baga,ijayo,init,kiatu","kiatu","n","2","html-keyboard-response","128","n","kiatu","true","",""
"4186.199999928474","","","","","2","html-slider-response","129","","","","5",""
"5964","book","mali,kuhesa,picha,mara","mali","f","2","html-keyboard-response","130","f","mali","true","",""
"4308.5","","","","","2","html-slider-response","131","","","","5",""
"7430","mirror","sulagma,rangi,kanding,furaha","sulagma","f","2","html-keyboard-response","132","f","sulagma","true","",""
"17333.799999952316","","","","","2","html-slider-response","133","","","","5",""
"23032","office","hazini,yatima,leso,kuna","leso","j","2","html-keyboard-response","134","j","leso","true","",""
"12475.899999976158","","","","","2","html-slider-response","135","","","","5",""
"13468","body","nyundu,jibini,kununa,tindashan","tindashan","n","2","html-keyboard-response","136","n","tindashan","true","",""
"24479.900000095367","","","","","2","html-slider-response","137","","","","5",""
"33386","perfume","bino,katuyoan,sungura,ndogo","katuyoan","v","2","html-keyboard-response","138","v","katuyoan","true","",""
"3306","","","","","2","html-slider-response","139","","","","5",""
"5674","olive","bata,siagi,welder,jiwe","jiwe","n","2","html-keyboard-response","140","n","jiwe","true","",""
"23416.599999904633","","","","","2","html-slider-response","141","","","","5",""
"14664","magazine","gundi,mchawi,kiti,bahandi","kiti","j","2","html-keyboard-response","142","j","kiti","true","",""
"6259.100000023842","","","","","2","html-slider-response","143","","","","5",""
"10325","bread","kaili,dari,dizeli,bugas","dari","v","2","html-keyboard-response","144","v","dari","true","",""
"4011.6999999284744","","","","","2","html-slider-response","145","","","","5",""
"11137","cave","kesho,ganti,maisha,nyundo","kesho","f","2","html-keyboard-response","146","f","kesho","true","",""
"3807","","","","","2","html-slider-response","147","","","","4",""
"55521","ladder","mashua,pangalan,mwanga,kamba","pangalan","v","2","html-keyboard-response","148","v","pangalan","true","",""
"3738.7000000476837","","","","","2","html-slider-response","149","","","","4",""
"175878","human","bado,tinapay,kikapu,punguza","tinapay","v","2","html-keyboard-response","150","v","tinapay","true","",""
"4070.1999999284744","","","","","2","html-slider-response","151","","","","5",""
"5637","clock","kartasi,abang,osha,mbwa","mbwa","n","2","html-keyboard-response","152","n","mbwa","true","",""
"4389.199999928474","","","","","2","html-slider-response","153","","","","5",""
"4980","shelf","bungtod,kadaot,pamahaw,awit","pamahaw","j","2","html-keyboard-response","154","j","pamahaw","true","",""
"7396.100000023842","","","","","2","html-slider-response","155","","","","5",""
"5358","salmon","mzungu,sensilyo,seri,baharia","sensilyo","v","2","html-keyboard-response","156","v","sensilyo","true","",""
"5184.399999976158","","","","","2","html-slider-response","157","","","","5",""
"41447","coffin","kioo,barua,tubag,hulma","kioo","f","2","html-keyboard-response","158","f","kioo","true","",""
"5129.700000047684","","","","","2","html-slider-response","159","","","","5",""
"4716","notebook","kemia,msitu,kila,mdudu","kemia","f","2","html-keyboard-response","160","f","kemia","true","",""
"4574.100000023842","","","","","2","html-slider-response","161","","","","5",""
"12295","shoulder","kelele,mkuu,ndaniya,guruwe","mkuu","v","2","html-keyboard-response","162","v","mkuu","true","",""
"4556.899999976158","","","","","2","html-slider-response","163","","","","5",""
"5254","park","tambok,pwani,bunifu,ihalas","bunifu","j","2","html-keyboard-response","164","j","bunifu","true","",""
"4406.600000023842","","","","","2","html-slider-response","165","","","","5",""
"3173","number","shule,kengele,choori,mundamo","mundamo","n","2","html-keyboard-response","166","n","mundamo","true","",""
"6041.899999976158","","","","","2","html-slider-response","167","","","","5",""
"3915","apple","ukame,estante,edad,kisu","kisu","n","2","html-keyboard-response","168","n","kisu","true","",""
"4872","","","","","2","html-slider-response","169","","","","5",""
"4087","letter","filimbi,kifua,chuma,uhuru","kifua","v","2","html-keyboard-response","170","v","kifua","true","",""
"10370.199999928474","","","","","2","html-slider-response","171","","","","5",""
"4665","eel","ishara,msumari,kunywa,kabuang","msumari","v","2","html-keyboard-response","172","v","msumari","true","",""
"3863.600000023842","","","","","2","html-slider-response","173","","","","5",""
"50300","cop","bustani,jikoni,bakus,mechezo","mechezo","n","2","html-keyboard-response","174","n","mechezo","true","",""
"2732.899999976158","","","","","2","html-slider-response","175","","","","5",""
"3712","wolf","kaburi,ndizi,lugha,mchuzi","lugha","j","2","html-keyboard-response","176","j","lugha","true","",""
"3820.0999999046326","","","","","2","html-slider-response","177","","","","5",""
"2868","squirrel","mahugaw,ukweli,hofu,kichwa","hofu","j","2","html-keyboard-response","178","j","hofu","true","",""
"5573.700000047684","","","","","2","html-slider-response","179","","","","5",""
"3035","nose","gubat,kopa,sehemu,kidole","sehemu","j","2","html-keyboard-response","180","j","sehemu","true","",""
"3587.2999999523163","","","","","2","html-slider-response","181","","","","5",""
"5809","sock","mamba,ndoora,kimysa,mtirka","mamba","f","2","html-keyboard-response","182","f","mamba","true","",""
"6753.600000023842","","","","","2","html-slider-response","183","","","","5",""
"3994","bank","silingan,kudhibi,tualya,ofisi","silingan","f","2","html-keyboard-response","184","f","silingan","true","",""
"4534.700000047684","","","","","2","html-slider-response","185","","","","5",""
"5127","donkey","bloke,elfu,lalake,rombus","elfu","v","2","html-keyboard-response","186","v","elfu","true","",""
"4189","","","","","2","html-slider-response","187","","","","5",""
"3647","poster","madungog,nchi,fedha,kasuko","madungog","f","2","html-keyboard-response","188","f","madungog","true","",""
"3461.2999999523163","","","","","2","html-slider-response","189","","","","5",""
"4152","puppet","mazishi,napulo,lamok,godoro","mazishi","f","2","html-keyboard-response","190","f","mazishi","true","",""
"4063.399999976158","","","","","2","html-slider-response","191","","","","5",""
"3723","hill","kushoto,kukimba,matumbo,sweta","matumbo","j","2","html-keyboard-response","192","j","matumbo","true","",""
"3812.8000000715256","","","","","2","html-slider-response","193","","","","5",""
"7449","tooth","kijiko,kabalaka,uadui,pahiyum","kabalaka","v","2","html-keyboard-response","194","v","kabalaka","true","",""
"3988.4000000953674","","","","","2","html-slider-response","195","","","","5",""
"3598","woman","bandari,bituin,pagtabon,kovuli","pagtabon","j","2","html-keyboard-response","196","j","pagtabon","true","",""
"3472.600000023842","","","","","2","html-slider-response","197","","","","5",""
"13700","wheel","punda,tawo,bafuni,baadaye","bafuni","j","2","html-keyboard-response","198","j","bafuni","true","",""
"4009.6999999284744","","","","","2","html-slider-response","199","","","","5",""
"3314","mother","kahawa,mbuzi,jokofu,babaye","babaye","n","2","html-keyboard-response","200","n","babaye","true","",""
"3602.3000000715256","","","","","2","html-slider-response","201","","","","5",""
"4410","bed","kalipay,haraka,starehe,mapintas","mapintas","n","2","html-keyboard-response","202","n","mapintas","true","",""
"3761.100000023842","","","","","2","html-slider-response","203","","","","5",""
"4137","key","chombo,miaka,goma,ahos","chombo","f","2","html-keyboard-response","204","f","chombo","true","",""
"3726.4000000953674","","","","","2","html-slider-response","205","","","","5",""
"3262","page","wakala,ishiri,wimbo,skina","wimbo","j","2","html-keyboard-response","206","j","wimbo","true","",""
"3548.5","","","","","2","html-slider-response","207","","","","5",""
"3117","pants","pintal,chuki,haki,hari","haki","j","2","html-keyboard-response","208","n","hari","false","",""
"3662.600000023842","","","","","2","html-slider-response","209","","","","5",""
"3366","sun","bendi,basi,luha,uongo","basi","v","2","html-keyboard-response","210","v","basi","true","",""
"3786.5999999046326","","","","","2","html-slider-response","211","","","","5",""
"8463","finger","moyo,simu,sufuria,lima","moyo","f","2","html-keyboard-response","212","f","moyo","true","",""
"5007.700000047684","","","","","2","html-slider-response","213","","","","5",""
"3034","shoe","nyeusi,hatua,uyoga,kama","uyoga","j","2","html-keyboard-response","214","j","uyoga","true","",""
"3454.100000023842","","","","","2","html-slider-response","215","","","","5",""
"3312","giraffe","daraja,jumatu,hangyo,mahitabo","mahitabo","n","2","html-keyboard-response","216","n","mahitabo","true","",""
"3253.899999976158","","","","","2","html-slider-response","217","","","","5",""
"6153","dog","bahari,lubi,washia,kalamu","bahari","f","2","html-keyboard-response","218","f","bahari","true","",""
"3422.5","","","","","2","html-slider-response","219","","","","5",""
"3022","box","kuacha,rafiki,kitande,adui","adui","n","2","html-keyboard-response","220","n","adui","true","",""
"2928","","","","","2","html-slider-response","221","","","","5",""
"4629","scissors","duga,mtawa,suga,tanuri","tanuri","n","2","html-keyboard-response","222","n","tanuri","true","",""
"3441.2000000476837","","","","","2","html-slider-response","223","","","","5",""
"2928","cat","paghukom,neyemba,baki,akili","paghukom","f","2","html-keyboard-response","224","f","paghukom","true","",""
"3491.7000000476837","","","","","2","html-slider-response","225","","","","5",""
"5835","basket","kumbuka,utepe,hasira,kumba","kumba","n","2","html-keyboard-response","226","n","kumba","true","",""
"3194.3000000715256","","","","","2","html-slider-response","227","","","","5",""
"4483","snake","jansa,karon,mvringo,pagtukod","pagtukod","n","2","html-keyboard-response","228","n","pagtukod","true","",""
"4043.100000023842","","","","","2","html-slider-response","229","","","","5",""
"2581","gift","baba,nyange,baso,pagtawag","pagtawag","n","2","html-keyboard-response","230","n","pagtawag","true","",""
"3867.7000000476837","","","","","2","html-slider-response","231","","","","5",""
"3882","train","itik,sayari,dakika,mungu","sayari","v","2","html-keyboard-response","232","v","sayari","true","",""
"3623.7999999523163","","","","","2","html-slider-response","233","","","","5",""
"2742","pudding","aibu,abug,mpishi,iring","aibu","f","2","html-keyboard-response","234","f","aibu","true","",""
"3280","","","","","2","html-slider-response","235","","","","5",""
"2528","tomato","chupi,chupa,takatak,mvua","mvua","n","2","html-keyboard-response","236","n","mvua","true","",""
"4290.199999928474","","","","","2","html-slider-response","237","","","","5",""
"3266","stone","ulimwengu,mkasi,wingi,asili","wingi","j","2","html-keyboard-response","238","j","wingi","true","",""
"4260.800000071526","","","","","2","html-slider-response","239","","","","5",""
"7119","hammer","mekno,kitovu,napakyas,layag","napakyas","j","2","html-keyboard-response","240","j","napakyas","true","",""
"6711","","","","","2","html-slider-response","241","","","","5",""
"2942","knee","mvuke,duka,kubale,bili","duka","v","2","html-keyboard-response","242","v","duka","true","",""
"3488.5","","","","","2","html-slider-response","243","","","","5",""
"117673","ceiling","kugita,kawaida,maua,rayna","maua","j","2","html-keyboard-response","244","j","maua","true","",""
"4746.199999928474","","","","","2","html-slider-response","245","","","","5",""
"2638","spoon","betri,nzuri,pagsulod,ngazi","pagsulod","j","2","html-keyboard-response","246","j","pagsulod","true","",""
"3744.600000023842","","","","","2","html-slider-response","247","","","","5",""
"2698","marker","mapafu,salita,atay,maji","maji","n","2","html-keyboard-response","248","n","maji","true","",""
"3963.1999999284744","","","","","2","html-slider-response","249","","","","5",""
"2017","candle","gabi,farasi,geza,kupanda","geza","j","2","html-keyboard-response","250","j","geza","true","",""
"3713.7999999523163","","","","","2","html-slider-response","251","","","","5",""
"11889","tissue","lamigas,kisiwa,ugomvi,katika","ugomvi","j","2","html-keyboard-response","252","j","ugomvi","true","",""
"3426.399999976158","","","","","2","html-slider-response","253","","","","5",""
"2429","bridge","sahani,daima,ngono,panya","sahani","f","2","html-keyboard-response","254","f","sahani","true","",""
"4060.600000023842","","","","","2","html-slider-response","255","","","","5",""
"2256","berry","abogado,kofia,nogozi,kinywa","kofia","v","2","html-keyboard-response","256","v","kofia","true","",""
"7439.200000047684","","","","","2","html-slider-response","257","","","","5",""
"3260","triangle","kasadpan,kihozi,bentaha,liog","kasadpan","f","2","html-keyboard-response","258","f","kasadpan","true","",""
"3670.8000000715256","","","","","2","html-slider-response","259","","","","5",""
"11741","door","tena,surali,soko,nyota","surali","v","2","html-keyboard-response","260","v","surali","true","",""
"4427.400000095367","","","","","2","html-slider-response","261","","","","5",""
"3855","fish","bala,buli,baho,imani","buli","v","2","html-keyboard-response","262","v","buli","true","",""
"3856.2000000476837","","","","","2","html-slider-response","263","","","","5",""
"3344","curtain","mchanga,lisud,bulwawan,chubani","mchanga","f","2","html-keyboard-response","264","f","mchanga","true","",""
"3438","","","","","2","html-slider-response","265","","","","5",""
"8505","flag","ndege,trekta,mkate,kawa","trekta","v","2","html-keyboard-response","266","v","trekta","true","",""
"3315.100000023842","","","","","2","html-slider-response","267","","","","5",""
"4336","boat","hamsi,pombe,kitanda,agalon","agalon","n","2","html-keyboard-response","268","n","agalon","true","",""
"3401.2999999523163","","","","","2","html-slider-response","269","","","","5",""
"3490","rose","singizi,mwanake,amani,paghalad","paghalad","n","2","html-keyboard-response","270","n","paghalad","true","",""
"3800.2999999523163","","","","","2","html-slider-response","271","","","","5",""
"6869","lamp","daub,bilaska,afya,mbolea","afya","j","2","html-keyboard-response","272","j","afya","true","",""
"3934.7999999523163","","","","","2","html-slider-response","273","","","","5",""
"3291","cigar","ndugu,kuta,adhabu,mlango","adhabu","j","2","html-keyboard-response","274","j","adhabu","true","",""
"4818.5","","","","","2","html-slider-response","275","","","","5",""
"2879","list","alizeti,wingu,kuzama,kaso","wingu","v","2","html-keyboard-response","276","v","wingu","true","",""
"3915.399999976158","","","","","2","html-slider-response","277","","","","5",""
"21235","sheet","juuya,watu,bililhon,kamantis","bililhon","j","2","html-keyboard-response","278","v","watu","false","",""
"12512.5","","","","","2","html-slider-response","279","","","","3",""
"6681","picture","silya,chaki,kubwa,asin","kubwa","j","2","html-keyboard-response","280","j","kubwa","true","",""
"3925","","","","","2","html-slider-response","281","","","","5",""
"3171","towel","tembo,pagpalit,funzi,pito","pagpalit","v","2","html-keyboard-response","282","v","pagpalit","true","",""
"2920.7999999523163","","","","","2","html-slider-response","283","","","","5",""
"2519","window","nanga,kujenga,kweli,umaga","kweli","j","2","html-keyboard-response","284","j","kweli","true","",""
"4153.299999952316","","","","","2","html-slider-response","285","","","","5",""
"8610","box","kuacha,adui,rafiki,kitande","adui","v","3","html-keyboard-response","293","f","kuacha","false","","4"
"3936.8000000715256","","","","","3","html-slider-response","294","","","","5",""
"6264","","","","","3","html-keyboard-response","295","","","","",""
"11622","pants","pintal,chuki,haki,hari","haki","j","3","html-keyboard-response","296","n","hari","false","","4"
"4865.100000023842","","","","","3","html-slider-response","297","","","","2",""
"4183","","","","","3","html-keyboard-response","298","","","","",""
"41440","cup","dagat,matumai,shimoni,jeraha","matumai","v","3","html-keyboard-response","299","j","shimoni","false","","4"
"4089.6999999284744","","","","","3","html-slider-response","300","","","","2",""
"2568","","","","","3","html-keyboard-response","301","","","","",""
"2507","triangle","kihozi,kasadpan,bentaha,liog","kasadpan","v","3","html-keyboard-response","302","v","kasadpan","true","","4"
"4326.300000071526","","","","","3","html-slider-response","303","","","","2",""
"2004","","","","","3","html-keyboard-response","304","","","","",""
"4057","curtain","mchanga,lisud,bulwawan,chubani","mchanga","f","3","html-keyboard-response","305","j","bulwawan","false","","4"
"3232.5","","","","","3","html-slider-response","306","","","","2",""
"1618","","","","","3","html-keyboard-response","307","","","","",""
"7344","clock","kartasi,mbwa,abang,osha","mbwa","v","3","html-keyboard-response","308","f","kartasi","false","","4"
"4089.1999999284744","","","","","3","html-slider-response","309","","","","2",""
"2120","","","","","3","html-keyboard-response","310","","","","",""
"68811","mirror","rangi,kanding,sulagma,furaha","sulagma","j","3","html-keyboard-response","311","j","sulagma","true","","4"
"3403.5","","","","","3","html-slider-response","312","","","","5",""
"1618","","","","","3","html-keyboard-response","313","","","","",""
"34620","coffin","barua,tubag,kioo,hulma","kioo","j","3","html-keyboard-response","314","j","kioo","true","","1"
"5312.399999976158","","","","","3","html-slider-response","315","","","","5",""
"1172","","","","","3","html-keyboard-response","316","","","","",""
"100365","magazine","gundi,mchawi,kiti,bahandi","kiti","j","3","html-keyboard-response","317","j","kiti","true","","4"
"4218.5","","","","","3","html-slider-response","318","","","","5",""
"888","","","","","3","html-keyboard-response","319","","","","",""
"10162","column","pundok,dila,ufagio,pala","ufagio","j","3","html-keyboard-response","320","j","ufagio","true","","1"
"3819","","","","","3","html-slider-response","321","","","","5",""
"1160","","","","","3","html-keyboard-response","322","","","","",""
"19073","number","mundamo,shule,kengele,choori","mundamo","f","3","html-keyboard-response","323","f","mundamo","true","","4"
"3725.399999976158","","","","","3","html-slider-response","324","","","","5",""
"4599","","","","","3","html-keyboard-response","325","","","","",""
"27621","rose","paghalad,singizi,mwanake,amani","paghalad","f","3","html-keyboard-response","326","f","paghalad","true","","4"
"3554.5","","","","","3","html-slider-response","327","","","","5",""
"1252","","","","","3","html-keyboard-response","328","","","","",""
"39304","eel","ishara,kunywa,kabuang,msumari","msumari","n","3","html-keyboard-response","329","n","msumari","true","","4"
"5955.299999952316","","","","","3","html-slider-response","330","","","","5",""
"1108","","","","","3","html-keyboard-response","331","","","","",""
"44295","gift","baba,nyange,baso,pagtawag","pagtawag","n","3","html-keyboard-response","332","n","pagtawag","true","","4"
"4667.399999976158","","","","","3","html-slider-response","333","","","","5",""
"25829","","","","","3","html-keyboard-response","334","","","","",""
"34856","apple","ukame,kisu,estante,edad","kisu","v","3","html-keyboard-response","335","v","kisu","true","","1"
"3537.100000023842","","","","","3","html-slider-response","336","","","","5",""
"3985","","","","","3","html-keyboard-response","337","","","","",""
"35526","wheel","punda,bafuni,tawo,baadaye","bafuni","v","3","html-keyboard-response","338","v","bafuni","true","","1"
"3758.7000000476837","","","","","3","html-slider-response","339","","","","5",""
"1166","","","","","3","html-keyboard-response","340","","","","",""
"24190","knee","duka,mvuke,kubale,bili","duka","f","3","html-keyboard-response","341","f","duka","true","","4"
"3568.8000000715256","","","","","3","html-slider-response","342","","","","5",""
"27269","","","","","3","html-keyboard-response","343","","","","",""
"62220","basket","kumbuka,kumba,utepe,hasira","kumba","v","3","html-keyboard-response","344","v","kumba","true","","1"
"4687.399999976158","","","","","3","html-slider-response","345","","","","5",""
"1064","","","","","3","html-keyboard-response","346","","","","",""
"43196","park","tambok,bunifu,pwani,ihalas","bunifu","v","3","html-keyboard-response","347","v","bunifu","true","","4"
"3396.399999976158","","","","","3","html-slider-response","348","","","","5",""
"1147","","","","","3","html-keyboard-response","349","","","","",""
"111256","finger","simu,moyo,sufuria,lima","moyo","v","3","html-keyboard-response","350","v","moyo","true","","4"
"4359.5","","","","","3","html-slider-response","351","","","","5",""
"3965","","","","","3","html-keyboard-response","352","","","","",""
"108209","boat","hamsi,pombe,kitanda,agalon","agalon","n","3","html-keyboard-response","353","n","agalon","true","","4"
"3823.100000023842","","","","","3","html-slider-response","354","","","","5",""
"1095","","","","","3","html-keyboard-response","355","","","","",""
"33714","hill","kushoto,matumbo,kukimba,sweta","matumbo","v","3","html-keyboard-response","356","v","matumbo","true","","4"
"3232.7000000476837","","","","","3","html-slider-response","357","","","","5",""
"1075","","","","","3","html-keyboard-response","358","","","","",""
"62097","train","sayari,itik,dakika,mungu","sayari","f","3","html-keyboard-response","359","f","sayari","true","","4"
"4074.7000000476837","","","","","3","html-slider-response","360","","","","5",""
"1098","","","","","3","html-keyboard-response","361","","","","",""
"47448","wolf","kaburi,lugha,ndizi,mchuzi","lugha","v","3","html-keyboard-response","362","j","ndizi","false","","4"
"3263.600000023842","","","","","3","html-slider-response","363","","","","4",""
"977","","","","","3","html-keyboard-response","364","","","","",""
"37059","snake","pagtukod,jansa,karon,mvringo","pagtukod","f","3","html-keyboard-response","365","f","pagtukod","true","","4"
"3162.6999999284744","","","","","3","html-slider-response","366","","","","5",""
"161076","","","","","3","html-keyboard-response","367","","","","",""
"35336","tooth","kabalaka,kijiko,uadui,pahiyum","kabalaka","f","3","html-keyboard-response","368","f","kabalaka","true","","4"
"4336.800000071526","","","","","3","html-slider-response","369","","","","4",""
"1590","","","","","3","html-keyboard-response","370","","","","",""
"87972","notebook","msitu,kemia,kila,mdudu","kemia","v","3","html-keyboard-response","371","v","kemia","true","","4"
"6693.899999976158","","","","","3","html-slider-response","372","","","","3",""
"4590","","","","","3","html-keyboard-response","373","","","","",""
"45496","flag","trekta,ndege,mkate,kawa","trekta","f","3","html-keyboard-response","374","f","trekta","true","","4"
"4383.299999952316","","","","","3","html-slider-response","375","","","","4",""
"2965","","","","","3","html-keyboard-response","376","","","","",""
"73906","squirrel","mahugaw,hofu,ukweli,kichwa","hofu","v","3","html-keyboard-response","377","v","hofu","true","","4"
"3487.4000000953674","","","","","3","html-slider-response","378","","","","4",""
"1248","","","","","3","html-keyboard-response","379","","","","",""
"42771","door","tena,soko,surali,nyota","surali","j","3","html-keyboard-response","380","j","surali","true","","4"
"4189.399999976158","","","","","3","html-slider-response","381","","","","4",""
"18307","","","","","3","html-keyboard-response","382","","","","",""
"64245","salmon","sensilyo,mzungu,seri,baharia","sensilyo","f","3","html-keyboard-response","383","f","sensilyo","true","","4"
"4117.299999952316","","","","","3","html-slider-response","384","","","","4",""
"4429","","","","","3","html-keyboard-response","385","","","","",""
"7877","shoulder","kelele,ndaniya,guruwe,mkuu","mkuu","n","3","html-keyboard-response","386","n","mkuu","true","","4"
"7706.600000023842","","","","","3","html-slider-response","387","","","","5",""
"7808","","","","","3","html-keyboard-response","388","","","","",""
"32649","lamp","daub,bilaska,afya,mbolea","afya","j","3","html-keyboard-response","389","j","afya","true","","4"
"3579.2999999523163","","","","","3","html-slider-response","390","","","","4",""
"1819","","","","","3","html-keyboard-response","391","","","","",""
"33881","shelf","pamahaw,bungtod,kadaot,awit","pamahaw","f","3","html-keyboard-response","392","f","pamahaw","true","","1"
"4422.599999904633","","","","","3","html-slider-response","393","","","","4",""
"1002","","","","","3","html-keyboard-response","394","","","","",""
"45089","human","tinapay,bado,kikapu,punguza","tinapay","f","3","html-keyboard-response","395","v","bado","false","","4"
"4765.399999976158","","","","","3","html-slider-response","396","","","","3",""
"1794","","","","","3","html-keyboard-response","397","","","","",""
"4455","towel","tembo,funzi,pito,pagpalit","pagpalit","n","3","html-keyboard-response","398","n","pagpalit","true","","4"
"3086.5","","","","","3","html-slider-response","399","","","","4",""
"1084","","","","","3","html-keyboard-response","400","","","","",""
"10849","cat","paghukom,neyemba,baki,akili","paghukom","f","3","html-keyboard-response","401","f","paghukom","true","","4"
"4512.300000071526","","","","","3","html-slider-response","402","","","","5",""
"6683","","","","","3","html-keyboard-response","403","","","","",""
"24022","spider","bunyag,mkboa,kamwe,atop","kamwe","j","3","html-keyboard-response","404","j","kamwe","true","","4"
"3520.399999976158","","","","","3","html-slider-response","405","","","","5",""
"1322","","","","","3","html-keyboard-response","406","","","","",""
"44199","window","nanga,kujenga,umaga,kweli","kweli","n","3","html-keyboard-response","407","n","kweli","true","","4"
"3319.399999976158","","","","","3","html-slider-response","408","","","","5",""
"4227","","","","","3","html-keyboard-response","409","","","","",""
"8287","woman","pagtabon,bandari,bituin,kovuli","pagtabon","f","3","html-keyboard-response","410","f","pagtabon","true","","1"
"5087.899999976158","","","","","3","html-slider-response","411","","","","5",""
"3432","","","","","3","html-keyboard-response","412","","","","",""
"14147","giraffe","mahitabo,daraja,jumatu,hangyo","mahitabo","f","3","html-keyboard-response","413","f","mahitabo","true","","4"
"6874.199999928474","","","","","3","html-slider-response","414","","","","5",""
"7728","","","","","3","html-keyboard-response","415","","","","",""
"26505","elephant","petye,kito,pagduol,suka","kito","v","3","html-keyboard-response","416","v","kito","true","","4"
"3582.3000000715256","","","","","3","html-slider-response","417","","","","5",""
"1223","","","","","3","html-keyboard-response","418","","","","",""
"15678","cave","ganti,maisha,nyundo,kesho","kesho","n","3","html-keyboard-response","419","n","kesho","true","","4"
"5957.200000047684","","","","","3","html-slider-response","420","","","","5",""
"7652","","","","","3","html-keyboard-response","421","","","","",""
"63776","bread","kaili,dizeli,dari,bugas","dari","j","3","html-keyboard-response","422","j","dari","true","","4"
"7064.100000023842","","","","","3","html-slider-response","423","","","","5",""
"3936","","","","","3","html-keyboard-response","424","","","","",""
"95449","stone","ulimwengu,wingi,mkasi,asili","wingi","v","3","html-keyboard-response","425","j","mkasi","false","","4"
"4098.699999928474","","","","","3","html-slider-response","426","","","","4",""
"1018","","","","","3","html-keyboard-response","427","","","","",""
"30425","donkey","bloke,elfu,lalake,rombus","elfu","v","3","html-keyboard-response","428","v","elfu","true","","4"
"3494.600000023842","","","","","3","html-slider-response","429","","","","5",""
"992","","","","","3","html-keyboard-response","430","","","","",""
"41773","bridge","sahani,daima,ngono,panya","sahani","f","3","html-keyboard-response","431","v","daima","false","","4"
"4043.399999976158","","","","","3","html-slider-response","432","","","","4",""
"925","","","","","3","html-keyboard-response","433","","","","",""
"59239","bonfire","mwezi,mfuko,goti,kusanya","goti","j","3","html-keyboard-response","434","n","kusanya","false","","4"
"3450.100000023842","","","","","3","html-slider-response","435","","","","4",""
"865","","","","","3","html-keyboard-response","436","","","","",""
"20343","book","kuhesa,picha,mali,mara","mali","j","3","html-keyboard-response","437","j","mali","true","","4"
"4920.399999976158","","","","","3","html-slider-response","438","","","","4",""
"1155","","","","","3","html-keyboard-response","439","","","","",""
"30139","fish","bala,baho,buli,imani","buli","j","3","html-keyboard-response","440","j","buli","true","","4"
"3304.899999976158","","","","","3","html-slider-response","441","","","","5",""
"1472","","","","","3","html-keyboard-response","442","","","","",""
"19783","spoon","betri,pagsulod,nzuri,ngazi","pagsulod","v","3","html-keyboard-response","443","v","pagsulod","true","","4"
"3460.1999999284744","","","","","3","html-slider-response","444","","","","5",""
"1007","","","","","3","html-keyboard-response","445","","","","",""
"48931","scissors","duga,mtawa,suga,tanuri","tanuri","n","3","html-keyboard-response","446","n","tanuri","true","","4"
"4401.900000095367","","","","","3","html-slider-response","447","","","","4",""
"1170","","","","","3","html-keyboard-response","448","","","","",""
"8982","page","wimbo,wakala,ishiri,skina","wimbo","f","3","html-keyboard-response","449","f","wimbo","true","","4"
"3613.4000000953674","","","","","3","html-slider-response","450","","","","5",""
"987","","","","","3","html-keyboard-response","451","","","","",""
"3194","nose","gubat,sehemu,kopa,kidole","sehemu","v","3","html-keyboard-response","452","v","sehemu","true","","1"
"3434.5","","","","","3","html-slider-response","453","","","","5",""
"1042","","","","","3","html-keyboard-response","454","","","","",""
"36727","ceiling","kugita,kawaida,rayna,maua","maua","n","3","html-keyboard-response","455","v","kawaida","false","","4"
"4646.100000023842","","","","","3","html-slider-response","456","","","","5",""
"1087","","","","","3","html-keyboard-response","457","","","","",""
"41548","bucket","baga,ijayo,kiatu,init","kiatu","j","3","html-keyboard-response","458","n","init","false","","4"
"4270.799999952316","","","","","3","html-slider-response","459","","","","5",""
"1053","","","","","3","html-keyboard-response","460","","","","",""
"4307","berry","abogado,kofia,nogozi,kinywa","kofia","v","3","html-keyboard-response","461","v","kofia","true","","1"
"3718.899999976158","","","","","3","html-slider-response","462","","","","5",""
"1274","","","","","3","html-keyboard-response","463","","","","",""
"2506","mother","kahawa,mbuzi,jokofu,babaye","babaye","n","3","html-keyboard-response","464","n","babaye","true","","1"
"4840","","","","","3","html-slider-response","465","","","","5",""
"1185","","","","","3","html-keyboard-response","466","","","","",""
"175904","mosquito","isda,martilyo,taras,gutom","martilyo","v","3","html-keyboard-response","467","f","isda","false","","4"
"5814.899999976158","","","","","3","html-slider-response","468","","","","3",""
"6337","","","","","3","html-keyboard-response","469","","","","",""
"5620","perfume","bino,katuyoan,sungura,ndogo","katuyoan","v","3","html-keyboard-response","470","j","sungura","false","","4"
"4287.399999976158","","","","","3","html-slider-response","471","","","","3",""
"2528","","","","","3","html-keyboard-response","472","","","","",""
"77579","sheet","juuya,watu,bililhon,kamantis","bililhon","j","3","html-keyboard-response","473","v","watu","false","","4"
"4890.200000047684","","","","","3","html-slider-response","474","","","","3",""
"1875","","","","","3","html-keyboard-response","475","","","","",""
"30214","puppet","napulo,lamok,mazishi,godoro","mazishi","j","3","html-keyboard-response","476","j","mazishi","true","","1"
"5788.100000023842","","","","","3","html-slider-response","477","","","","3",""
"871","","","","","3","html-keyboard-response","478","","","","",""
"6996","poster","nchi,fedha,kasuko,madungog","madungog","n","3","html-keyboard-response","479","n","madungog","true","","4"
"3721.100000023842","","","","","3","html-slider-response","480","","","","4",""
"1188","","","","","3","html-keyboard-response","481","","","","",""
"24739","music","baiski,mraba,mageho,tumbo","baiski","f","3","html-keyboard-response","482","f","baiski","true","","4"
"4550.600000023842","","","","","3","html-slider-response","483","","","","4",""
"1520","","","","","3","html-keyboard-response","484","","","","",""
"20625","key","miaka,chombo,goma,ahos","chombo","v","3","html-keyboard-response","485","v","chombo","true","","4"
"3813.600000023842","","","","","3","html-slider-response","486","","","","4",""
"1561","","","","","3","html-keyboard-response","487","","","","",""
"96062","sock","ndoora,kimysa,mtirka,mamba","mamba","n","3","html-keyboard-response","488","n","mamba","true","","4"
"4626","","","","","3","html-slider-response","489","","","","4",""
"1830","","","","","3","html-keyboard-response","490","","","","",""
"5292","marker","mapafu,salita,maji,atay","maji","j","3","html-keyboard-response","491","n","atay","false","","4"
"4045.899999976158","","","","","3","html-slider-response","492","","","","2",""
"1678","","","","","3","html-keyboard-response","493","","","","",""
"3918","office","leso,hazini,yatima,kuna","leso","f","3","html-keyboard-response","494","f","leso","true","","4"
"4361.5","","","","","3","html-slider-response","495","","","","4",""
"1890","","","","","3","html-keyboard-response","496","","","","",""
"36233","shoe","nyeusi,uyoga,hatua,kama","uyoga","v","3","html-keyboard-response","497","v","uyoga","true","","4"
"4409.799999952316","","","","","3","html-slider-response","498","","","","4",""
"1163","","","","","3","html-keyboard-response","499","","","","",""
"16192","cop","mechezo,bustani,jikoni,bakus","mechezo","f","3","html-keyboard-response","500","f","mechezo","true","","4"
"3516.5","","","","","3","html-slider-response","501","","","","4",""
"1135","","","","","3","html-keyboard-response","502","","","","",""
"23578","bank","kudhibi,tualya,ofisi,silingan","silingan","n","3","html-keyboard-response","503","n","silingan","true","","4"
"9904","","","","","3","html-slider-response","504","","","","4",""
"124187","","","","","3","html-keyboard-response","505","","","","",""
"6088","letter","filimbi,kifua,chuma,uhuru","kifua","v","3","html-keyboard-response","506","v","kifua","true","","1"
"6285.199999928474","","","","","3","html-slider-response","507","","","","4",""
"1036","","","","","3","html-keyboard-response","508","","","","",""
"1601","dog","lubi,washia,kalamu,bahari","bahari","n","3","html-keyboard-response","509","n","bahari","true","","1"
"3642.5","","","","","3","html-slider-response","510","","","","4",""
"1415","","","","","3","html-keyboard-response","511","","","","",""
"48102","shop","samaki,nopya,kerida,ndezu","samaki","f","3","html-keyboard-response","512","f","samaki","true","","4"
"5442.800000071526","","","","","3","html-slider-response","513","","","","3",""
"1505","","","","","3","html-keyboard-response","514","","","","",""
"56907","flower","tamasha,lobo,usiku,bega","bega","n","3","html-keyboard-response","515","v","lobo","false","","4"
"5151.700000047684","","","","","3","html-slider-response","516","","","","2",""
"1109","","","","","3","html-keyboard-response","517","","","","",""
"1694","cigar","ndugu,kuta,mlango,adhabu","adhabu","n","3","html-keyboard-response","518","n","adhabu","true","","1"
"3522.899999976158","","","","","3","html-slider-response","519","","","","4",""
"670","","","","","3","html-keyboard-response","520","","","","",""
"63266","hammer","napakyas,mekno,kitovu,layag","napakyas","f","3","html-keyboard-response","521","f","napakyas","true","","4"
"4717.5","","","","","3","html-slider-response","522","","","","3",""
"1420","","","","","3","html-keyboard-response","523","","","","",""
"64951","fork","baboy,paghago,mgonjwa,gorisi","mgonjwa","j","3","html-keyboard-response","524","j","mgonjwa","true","","4"
"2835","","","","","3","html-slider-response","525","","","","4",""
"758","","","","","3","html-keyboard-response","526","","","","",""
"1261","sun","bendi,basi,luha,uongo","basi","v","3","html-keyboard-response","527","v","basi","true","","1"
"2754.0999999046326","","","","","3","html-slider-response","528","","","","4",""
"651","","","","","3","html-keyboard-response","529","","","","",""
"10951","ladder","mashua,mwanga,kamba,pangalan","pangalan","n","3","html-keyboard-response","530","n","pangalan","true","","4"
"2946.600000023842","","","","","3","html-slider-response","531","","","","4",""
"800","","","","","3","html-keyboard-response","532","","","","",""
"1243","banana","kazi,kasamok,hagdan,twai","kazi","f","3","html-keyboard-response","533","f","kazi","true","","1"
"3363","","","","","3","html-slider-response","534","","","","4",""
"739","","","","","3","html-keyboard-response","535","","","","",""
"29281","pudding","abug,mpishi,aibu,iring","aibu","j","3","html-keyboard-response","536","j","aibu","true","","4"
"5960.300000071526","","","","","3","html-slider-response","537","","","","4",""
"1177","","","","","3","html-keyboard-response","538","","","","",""
"35711","body","tindashan,nyundu,jibini,kununa","tindashan","f","3","html-keyboard-response","539","f","tindashan","true","","4"
"3027.8000000715256","","","","","3","html-slider-response","540","","","","4",""
"1026","","","","","3","html-keyboard-response","541","","","","",""
"41909","bed","kalipay,mapintas,haraka,starehe","mapintas","v","3","html-keyboard-response","542","v","mapintas","true","","4"
"3843.1999999284744","","","","","3","html-slider-response","543","","","","4",""
"685","","","","","3","html-keyboard-response","544","","","","",""
"47383","tissue","lamigas,ugomvi,kisiwa,katika","ugomvi","v","3","html-keyboard-response","545","v","ugomvi","true","","4"
"2894.600000023842","","","","","3","html-slider-response","546","","","","4",""
"1455","","","","","3","html-keyboard-response","547","","","","",""
"3156","candle","geza,gabi,farasi,kupanda","geza","f","3","html-keyboard-response","548","f","geza","true","","4"
"3487.8000000715256","","","","","3","html-slider-response","549","","","","4",""
"791","","","","","3","html-keyboard-response","550","","","","",""
"2195","tomato","chupi,mvua,chupa,takatak","mvua","v","3","html-keyboard-response","551","v","mvua","true","","1"
"3357.5","","","","","3","html-slider-response","552","","","","4",""
"1546","","","","","3","html-keyboard-response","553","","","","",""
"5439","list","alizeti,wingu,kuzama,kaso","wingu","v","3","html-keyboard-response","554","f","alizeti","false","","4"
"2839.2000000476837","","","","","3","html-slider-response","555","","","","4",""
"647","","","","","3","html-keyboard-response","556","","","","",""
"8228","olive","bata,siagi,jiwe,welder","jiwe","j","3","html-keyboard-response","557","j","jiwe","true","","4"
"2996.2999999523163","","","","","3","html-slider-response","558","","","","4",""
"602","","","","","3","html-keyboard-response","559","","","","",""
"34118","picture","silya,chaki,kubwa,asin","kubwa","j","3","html-keyboard-response","560","j","kubwa","true","","1"
"4310.599999904633","","","","","3","html-slider-response","561","","","","4",""
"818","","","","","3","html-keyboard-response","562","","","","",""
"88696","page","wakala,ishiri,skina,wimbo","wimbo","n","4","html-keyboard-response","888","n","wimbo","true","",""
"4961.199999928474","","","","","4","html-slider-response","889","","","","4",""
"5740","sheet","juuya,watu,kamantis,bililhon","bililhon","n","4","html-keyboard-response","890","v","watu","false","",""
"2782.899999976158","","","","","4","html-slider-response","891","","","","4",""
"17961","ladder","mashua,mwanga,pangalan,kamba","pangalan","j","4","html-keyboard-response","892","j","pangalan","true","",""
"4439.399999976158","","","","","4","html-slider-response","893","","","","4",""
"41202","door","surali,tena,soko,nyota","surali","f","4","html-keyboard-response","894","j","soko","false","",""
"5012.200000047684","","","","","4","html-slider-response","895","","","","3",""
"42645","spider","bunyag,kamwe,mkboa,atop","kamwe","v","4","html-keyboard-response","896","v","kamwe","true","",""
"3112.7000000476837","","","","","4","html-slider-response","897","","","","4",""
"43391","picture","silya,chaki,asin,kubwa","kubwa","n","4","html-keyboard-response","898","n","kubwa","true","",""
"8782.399999976158","","","","","4","html-slider-response","899","","","","4",""
"4690","boat","hamsi,pombe,kitanda,agalon","agalon","n","4","html-keyboard-response","900","n","agalon","true","",""
"3155.899999976158","","","","","4","html-slider-response","901","","","","4",""
"29222","donkey","elfu,bloke,lalake,rombus","elfu","f","4","html-keyboard-response","902","f","elfu","true","",""
"2756.2000000476837","","","","","4","html-slider-response","903","","","","4",""
"7069","book","kuhesa,mali,picha,mara","mali","v","4","html-keyboard-response","904","v","mali","true","",""
"3635.5","","","","","4","html-slider-response","905","","","","4",""
"3686","cup","dagat,shimoni,jeraha,matumai","matumai","n","4","html-keyboard-response","906","f","dagat","false","",""
"2718.399999976158","","","","","4","html-slider-response","907","","","","4",""
"22969","sun","bendi,luha,basi,uongo","basi","j","4","html-keyboard-response","908","j","basi","true","",""
"4360.799999952316","","","","","4","html-slider-response","909","","","","4",""
"4168","pudding","abug,mpishi,iring,aibu","aibu","n","4","html-keyboard-response","910","f","abug","false","",""
"3247.2000000476837","","","","","4","html-slider-response","911","","","","4",""
"15114","human","bado,tinapay,kikapu,punguza","tinapay","v","4","html-keyboard-response","912","v","tinapay","true","",""
"3498.7000000476837","","","","","4","html-slider-response","913","","","","4",""
"23735","squirrel","mahugaw,hofu,ukweli,kichwa","hofu","v","4","html-keyboard-response","914","v","hofu","true","",""
"4480.600000023842","","","","","4","html-slider-response","915","","","","4",""
"3962","park","bunifu,tambok,pwani,ihalas","bunifu","f","4","html-keyboard-response","916","j","pwani","false","",""
"3999.5999999046326","","","","","4","html-slider-response","917","","","","4",""
"10634","poster","nchi,madungog,fedha,kasuko","madungog","v","4","html-keyboard-response","918","f","nchi","false","",""
"3662.5","","","","","4","html-slider-response","919","","","","4",""
"14237","wolf","kaburi,lugha,ndizi,mchuzi","lugha","v","4","html-keyboard-response","920","f","kaburi","false","",""
"5016.600000023842","","","","","4","html-slider-response","921","","","","4",""
"38352","cat","neyemba,paghukom,baki,akili","paghukom","v","4","html-keyboard-response","922","v","paghukom","true","",""
"2851","","","","","4","html-slider-response","923","","","","4",""
"2834","fish","bala,baho,imani,buli","buli","n","4","html-keyboard-response","924","f","bala","false","",""
"2874.7999999523163","","","","","4","html-slider-response","925","","","","4",""
"20267","tooth","kijiko,kabalaka,uadui,pahiyum","kabalaka","v","4","html-keyboard-response","926","v","kabalaka","true","",""
"4308.399999976158","","","","","4","html-slider-response","927","","","","4",""
"4066","cave","kesho,ganti,maisha,nyundo","kesho","f","4","html-keyboard-response","928","f","kesho","true","",""
"3825.5","","","","","4","html-slider-response","929","","","","4",""
"44492","lamp","afya,daub,bilaska,mbolea","afya","f","4","html-keyboard-response","930","f","afya","true","",""
"3357.2999999523163","","","","","4","html-slider-response","931","","","","4",""
"34230","banana","kazi,kasamok,hagdan,twai","kazi","f","4","html-keyboard-response","932","f","kazi","true","",""
"3336.8000000715256","","","","","4","html-slider-response","933","","","","4",""
"3526","bonfire","mwezi,mfuko,goti,kusanya","goti","j","4","html-keyboard-response","934","f","mwezi","false","",""
"3739","","","","","4","html-slider-response","935","","","","4",""
"13887","cop","bustani,jikoni,mechezo,bakus","mechezo","j","4","html-keyboard-response","936","j","mechezo","true","",""
"3319.7999999523163","","","","","4","html-slider-response","937","","","","4",""
"2785","marker","mapafu,maji,salita,atay","maji","v","4","html-keyboard-response","938","f","mapafu","false","",""
"3185.1999999284744","","","","","4","html-slider-response","939","","","","4",""
"7831","window","nanga,kujenga,umaga,kweli","kweli","n","4","html-keyboard-response","940","n","kweli","true","",""
"2950.7999999523163","","","","","4","html-slider-response","941","","","","4",""
"2628","body","nyundu,jibini,tindashan,kununa","tindashan","j","4","html-keyboard-response","942","f","nyundu","false","",""
"2693.399999976158","","","","","4","html-slider-response","943","","","","4",""
"26390","apple","ukame,kisu,estante,edad","kisu","v","4","html-keyboard-response","944","v","kisu","true","",""
"2765.899999976158","","","","","4","html-slider-response","945","","","","4",""
"20023","salmon","sensilyo,mzungu,seri,baharia","sensilyo","f","4","html-keyboard-response","946","f","sensilyo","true","",""
"4043.0999999046326","","","","","4","html-slider-response","947","","","","4",""
"2577","bed","mapintas,kalipay,haraka,starehe","mapintas","f","4","html-keyboard-response","948","f","mapintas","true","",""
"3063.399999976158","","","","","4","html-slider-response","949","","","","4",""
"1519","berry","kofia,abogado,nogozi,kinywa","kofia","f","4","html-keyboard-response","950","f","kofia","true","",""
"3182","","","","","4","html-slider-response","951","","","","4",""
"10121","mirror","rangi,kanding,furaha,sulagma","sulagma","n","4","html-keyboard-response","952","n","sulagma","true","",""
"3250.5","","","","","4","html-slider-response","953","","","","4",""
"23089","flag","ndege,mkate,trekta,kawa","trekta","j","4","html-keyboard-response","954","j","trekta","true","",""
"3550.1999999284744","","","","","4","html-slider-response","955","","","","4",""
"42763","shoulder","mkuu,kelele,ndaniya,guruwe","mkuu","f","4","html-keyboard-response","956","f","mkuu","true","",""
"3436","","","","","4","html-slider-response","957","","","","4",""
"5488","tissue","lamigas,ugomvi,kisiwa,katika","ugomvi","v","4","html-keyboard-response","958","v","ugomvi","true","",""
"2892.7999999523163","","","","","4","html-slider-response","959","","","","4",""
"4887","notebook","msitu,kila,kemia,mdudu","kemia","j","4","html-keyboard-response","960","j","kemia","true","",""
"3022.5","","","","","4","html-slider-response","961","","","","4",""
"3031","snake","jansa,karon,mvringo,pagtukod","pagtukod","n","4","html-keyboard-response","962","f","jansa","false","",""
"2762.5","","","","","4","html-slider-response","963","","","","4",""
"4904","finger","simu,sufuria,moyo,lima","moyo","j","4","html-keyboard-response","964","j","moyo","true","",""
"3976.399999976158","","","","","4","html-slider-response","965","","","","4",""
"27686","basket","kumbuka,utepe,kumba,hasira","kumba","j","4","html-keyboard-response","966","v","utepe","false","",""
"2780.899999976158","","","","","4","html-slider-response","967","","","","4",""
"55203","curtain","mchanga,lisud,bulwawan,chubani","mchanga","f","4","html-keyboard-response","968","f","mchanga","true","",""
"2621.600000023842","","","","","4","html-slider-response","969","","","","4",""
"4832","perfume","katuyoan,bino,sungura,ndogo","katuyoan","f","4","html-keyboard-response","970","v","bino","false","",""
"3007.1999999284744","","","","","4","html-slider-response","971","","","","4",""
"3200","key","chombo,miaka,goma,ahos","chombo","f","4","html-keyboard-response","972","f","chombo","true","",""
"2533.600000023842","","","","","4","html-slider-response","973","","","","4",""
"79066","olive","bata,siagi,welder,jiwe","jiwe","n","4","html-keyboard-response","974","f","bata","false","",""
"4501.899999976158","","","","","4","html-slider-response","975","","","","2",""
"3000","rose","singizi,mwanake,amani,paghalad","paghalad","n","4","html-keyboard-response","976","f","singizi","false","",""
"4125.899999976158","","","","","4","html-slider-response","977","","","","2",""
"45531","bridge","daima,ngono,sahani,panya","sahani","j","4","html-keyboard-response","978","n","panya","false","",""
"5344.5","","","","","4","html-slider-response","979","","","","2",""
"5827","hill","kushoto,kukimba,matumbo,sweta","matumbo","j","4","html-keyboard-response","980","f","kushoto","false","",""
"3489.7999999523163","","","","","4","html-slider-response","981","","","","4",""
"2359","letter","filimbi,chuma,uhuru,kifua","kifua","n","4","html-keyboard-response","982","f","filimbi","false","",""
"123014.5","","","","","4","html-slider-response","983","","","","4",""
"9483","sock","ndoora,kimysa,mtirka,mamba","mamba","n","4","html-keyboard-response","984","f","ndoora","false","",""
"3795.100000023842","","","","","4","html-slider-response","985","","","","4",""
"3867","fork","baboy,paghago,mgonjwa,gorisi","mgonjwa","j","4","html-keyboard-response","986","v","paghago","false","",""
"4223.100000023842","","","","","4","html-slider-response","987","","","","4",""
"3215","box","kuacha,rafiki,adui,kitande","adui","j","4","html-keyboard-response","988","j","adui","true","",""
"5668.100000023842","","","","","4","html-slider-response","989","","","","4",""
"40158","gift","baba,nyange,baso,pagtawag","pagtawag","n","4","html-keyboard-response","990","j","baso","false","",""
"5401.399999976158","","","","","4","html-slider-response","991","","","","4",""
"35120","bucket","baga,kiatu,ijayo,init","kiatu","v","4","html-keyboard-response","992","f","baga","false","",""
"18305.899999976158","","","","","4","html-slider-response","993","","","","4",""
"5509","shop","nopya,kerida,ndezu,samaki","samaki","n","4","html-keyboard-response","994","n","samaki","true","",""
"4756.5","","","","","4","html-slider-response","995","","","","2",""
"5446","puppet","napulo,mazishi,lamok,godoro","mazishi","v","4","html-keyboard-response","996","v","mazishi","true","",""
"3865.7000000476837","","","","","4","html-slider-response","997","","","","2",""
"15877","nose","sehemu,gubat,kopa,kidole","sehemu","f","4","html-keyboard-response","998","f","sehemu","true","",""
"4164.699999928474","","","","","4","html-slider-response","999","","","","2",""
"6670","music","baiski,mraba,mageho,tumbo","baiski","f","4","html-keyboard-response","1000","f","baiski","true","",""
"3808.399999976158","","","","","4","html-slider-response","1001","","","","4",""
"4247","dog","lubi,washia,bahari,kalamu","bahari","j","4","html-keyboard-response","1002","j","bahari","true","",""
"2877.0999999046326","","","","","4","html-slider-response","1003","","","","4",""
"16964","eel","ishara,msumari,kunywa,kabuang","msumari","v","4","html-keyboard-response","1004","v","msumari","true","",""
"3508.5","","","","","4","html-slider-response","1005","","","","4",""
"19782","number","shule,mundamo,kengele,choori","mundamo","v","4","html-keyboard-response","1006","f","shule","false","",""
"3769","","","","","4","html-slider-response","1007","","","","2",""
"103157","tomato","chupi,chupa,mvua,takatak","mvua","j","4","html-keyboard-response","1008","v","chupa","false","",""
"5168.200000047684","","","","","4","html-slider-response","1009","","","","2",""
"3007","coffin","kioo,barua,tubag,hulma","kioo","f","4","html-keyboard-response","1010","f","kioo","true","",""
"3011.5","","","","","4","html-slider-response","1011","","","","2",""
"24082","knee","mvuke,duka,kubale,bili","duka","v","4","html-keyboard-response","1012","v","duka","true","",""
"3176.6999999284744","","","","","4","html-slider-response","1013","","","","2",""
"30192","woman","bandari,bituin,pagtabon,kovuli","pagtabon","j","4","html-keyboard-response","1014","f","bandari","false","",""
"5709.399999976158","","","","","4","html-slider-response","1015","","","","2",""
"103553","stone","wingi,ulimwengu,mkasi,asili","wingi","f","4","html-keyboard-response","1016","f","wingi","true","",""
"3803","","","","","4","html-slider-response","1017","","","","5",""
"38819","bread","kaili,dizeli,dari,bugas","dari","j","4","html-keyboard-response","1018","j","dari","true","",""
"3748.399999976158","","","","","4","html-slider-response","1019","","","","5",""
"46457","triangle","kihozi,bentaha,liog,kasadpan","kasadpan","n","4","html-keyboard-response","1020","n","kasadpan","true","",""
"4254.600000023842","","","","","4","html-slider-response","1021","","","","5",""
"20681","scissors","tanuri,duga,mtawa,suga","tanuri","f","4","html-keyboard-response","1022","f","tanuri","true","",""
"3811.6999999284744","","","","","4","html-slider-response","1023","","","","5",""
"10072","giraffe","mahitabo,daraja,jumatu,hangyo","mahitabo","f","4","html-keyboard-response","1024","f","mahitabo","true","",""
"3906.3000000715256","","","","","4","html-slider-response","1025","","","","5",""
"74849","flower","bega,tamasha,lobo,usiku","bega","f","4","html-keyboard-response","1026","n","usiku","false","",""
"3318.399999976158","","","","","4","html-slider-response","1027","","","","4",""
"14182","candle","gabi,geza,farasi,kupanda","geza","v","4","html-keyboard-response","1028","v","geza","true","",""
"4009","","","","","4","html-slider-response","1029","","","","5",""
"19675","mother","kahawa,babaye,mbuzi,jokofu","babaye","v","4","html-keyboard-response","1030","v","babaye","true","",""
"3571","","","","","4","html-slider-response","1031","","","","5",""
"69333","towel","pagpalit,tembo,funzi,pito","pagpalit","f","4","html-keyboard-response","1032","f","pagpalit","true","",""
"3298.2999999523163","","","","","4","html-slider-response","1033","","","","5",""
"38038","elephant","petye,pagduol,suka,kito","kito","n","4","html-keyboard-response","1034","n","kito","true","",""
"3673.5","","","","","4","html-slider-response","1035","","","","5",""
"40390","shelf","pamahaw,bungtod,kadaot,awit","pamahaw","f","4","html-keyboard-response","1036","f","pamahaw","true","",""
"3738","","","","","4","html-slider-response","1037","","","","5",""
"69045","mosquito","martilyo,isda,taras,gutom","martilyo","f","4","html-keyboard-response","1038","f","martilyo","true","",""
"3526","","","","","4","html-slider-response","1039","","","","5",""
"10769","column","ufagio,pundok,dila,pala","ufagio","f","4","html-keyboard-response","1040","f","ufagio","true","",""
"4438.100000023842","","","","","4","html-slider-response","1041","","","","5",""
"25290","pants","pintal,chuki,haki,hari","haki","j","4","html-keyboard-response","1042","j","haki","true","",""
"3938.600000023842","","","","","4","html-slider-response","1043","","","","5",""
"16578","list","alizeti,kuzama,kaso,wingu","wingu","n","4","html-keyboard-response","1044","n","wingu","true","",""
"4058.2000000476837","","","","","4","html-slider-response","1045","","","","5",""
"47695","bank","silingan,kudhibi,tualya,ofisi","silingan","f","4","html-keyboard-response","1046","v","kudhibi","false","",""
"4754","","","","","4","html-slider-response","1047","","","","5",""
"16670","clock","kartasi,mbwa,abang,osha","mbwa","v","4","html-keyboard-response","1048","v","mbwa","true","",""
"3367.100000023842","","","","","4","html-slider-response","1049","","","","5",""
"68975","ceiling","maua,kugita,kawaida,rayna","maua","f","4","html-keyboard-response","1050","v","kugita","false","",""
"3526.2000000476837","","","","","4","html-slider-response","1051","","","","5",""
"123111","train","sayari,itik,dakika,mungu","sayari","f","4","html-keyboard-response","1052","f","sayari","true","",""
"5259.200000047684","","","","","4","html-slider-response","1053","","","","5",""
"46983","magazine","kiti,gundi,mchawi,bahandi","kiti","f","4","html-keyboard-response","1054","f","kiti","true","",""
"3736.2000000476837","","","","","4","html-slider-response","1055","","","","5",""
"13533","office","leso,hazini,yatima,kuna","leso","f","4","html-keyboard-response","1056","v","hazini","false","",""
"3242.600000023842","","","","","4","html-slider-response","1057","","","","5",""
"3721","wheel","bafuni,punda,tawo,baadaye","bafuni","f","4","html-keyboard-response","1058","f","bafuni","true","",""
"4116.5","","","","","4","html-slider-response","1059","","","","5",""
"1624","spoon","pagsulod,betri,nzuri,ngazi","pagsulod","f","4","html-keyboard-response","1060","v","betri","false","",""
"3253.2000000476837","","","","","4","html-slider-response","1061","","","","5",""
"1085","hammer","mekno,napakyas,kitovu,layag","napakyas","v","4","html-keyboard-response","1062","v","napakyas","true","",""
"3863.7999999523163","","","","","4","html-slider-response","1063","","","","5",""
"994","cigar","ndugu,kuta,mlango,adhabu","adhabu","n","4","html-keyboard-response","1064","v","kuta","false","",""
"2982.7000000476837","","","","","4","html-slider-response","1065","","","","5",""
"1336","shoe","nyeusi,hatua,uyoga,kama","uyoga","j","4","html-keyboard-response","1066","v","hatua","false","",""
"4328.200000047684","","","","","4","html-slider-response","1067","","","","5",""
"1816","list","wingu,alizeti,kuzama,kaso","wingu","f","5","html-keyboard-response","1069","v","alizeti","false","",""
"7652.100000023842","","","","","5","html-slider-response","1070","","","","5",""
"4640","number","shule,kengele,choori,mundamo","mundamo","n","5","html-keyboard-response","1071","f","shule","false","",""
"3750.899999976158","","","","","5","html-slider-response","1072","","","","5",""
"609","apple","ukame,estante,kisu,edad","kisu","j","5","html-keyboard-response","1073","f","ukame","false","",""
"3864.5","","","","","5","html-slider-response","1074","","","","5",""
"386","knee","duka,mvuke,kubale,bili","duka","f","5","html-keyboard-response","1075","f","duka","true","",""
"3778.100000023842","","","","","5","html-slider-response","1076","","","","5",""
"526","tooth","kijiko,kabalaka,uadui,pahiyum","kabalaka","v","5","html-keyboard-response","1077","f","kijiko","false","",""
"3311.9000000953674","","","","","5","html-slider-response","1078","","","","5",""
"424","berry","abogado,nogozi,kofia,kinywa","kofia","j","5","html-keyboard-response","1079","f","abogado","false","",""
"3988.100000023842","","","","","5","html-slider-response","1080","","","","5",""
"471","bridge","daima,ngono,panya,sahani","sahani","n","5","html-keyboard-response","1081","f","daima","false","",""
"3482","","","","","5","html-slider-response","1082","","","","5",""
"776","perfume","bino,katuyoan,sungura,ndogo","katuyoan","v","5","html-keyboard-response","1083","f","bino","false","",""
"3718.7000000476837","","","","","5","html-slider-response","1084","","","","5",""
"318","ladder","mashua,mwanga,pangalan,kamba","pangalan","j","5","html-keyboard-response","1085","v","mwanga","false","",""
"4520.199999928474","","","","","5","html-slider-response","1086","","","","5",""
"377","pants","pintal,chuki,haki,hari","haki","j","5","html-keyboard-response","1087","v","chuki","false","",""
"4149.5","","","","","5","html-slider-response","1088","","","","5",""
"752","salmon","mzungu,seri,baharia,sensilyo","sensilyo","n","5","html-keyboard-response","1089","v","seri","false","",""
"3689.899999976158","","","","","5","html-slider-response","1090","","","","5",""
"628","coffin","barua,tubag,kioo,hulma","kioo","j","5","html-keyboard-response","1091","v","tubag","false","",""
"3413.1999999284744","","","","","5","html-slider-response","1092","","","","5",""
"286","park","tambok,pwani,bunifu,ihalas","bunifu","j","5","html-keyboard-response","1093","v","pwani","false","",""
"4290.900000095367","","","","","5","html-slider-response","1094","","","","5",""
"3009","giraffe","daraja,jumatu,hangyo,mahitabo","mahitabo","n","5","html-keyboard-response","1095","j","hangyo","false","",""
"3391.600000023842","","","","","5","html-slider-response","1096","","","","5",""
"297","mirror","rangi,kanding,sulagma,furaha","sulagma","j","5","html-keyboard-response","1097","j","sulagma","true","",""
"3518.2000000476837","","","","","5","html-slider-response","1098","","","","5",""
"292","ceiling","maua,kugita,kawaida,rayna","maua","f","5","html-keyboard-response","1099","j","kawaida","false","",""
"2979.5999999046326","","","","","5","html-slider-response","1100","","","","5",""
"265","marker","mapafu,salita,maji,atay","maji","j","5","html-keyboard-response","1101","j","maji","true","",""
"3066.7999999523163","","","","","5","html-slider-response","1102","","","","5",""
"299","sock","mamba,ndoora,kimysa,mtirka","mamba","f","5","html-keyboard-response","1103","j","kimysa","false","",""
"3308.7000000476837","","","","","5","html-slider-response","1104","","","","5",""
"335","cop","bustani,jikoni,bakus,mechezo","mechezo","n","5","html-keyboard-response","1105","j","bakus","false","",""
"4410.5","","","","","5","html-slider-response","1106","","","","5",""
"546","gift","baba,nyange,baso,pagtawag","pagtawag","n","5","html-keyboard-response","1107","j","baso","false","",""
"3763.1999999284744","","","","","5","html-slider-response","1108","","","","5",""
"2130","notebook","msitu,kila,kemia,mdudu","kemia","j","5","html-keyboard-response","1109","v","kila","false","",""
"4129.399999976158","","","","","5","html-slider-response","1110","","","","5",""
"662","bank","kudhibi,silingan,tualya,ofisi","silingan","v","5","html-keyboard-response","1111","v","silingan","true","",""
"3408.7000000476837","","","","","5","html-slider-response","1112","","","","5",""
"246","letter","filimbi,chuma,kifua,uhuru","kifua","j","5","html-keyboard-response","1113","v","chuma","false","",""
"3817","","","","","5","html-slider-response","1114","","","","5",""
"258","candle","geza,gabi,farasi,kupanda","geza","f","5","html-keyboard-response","1115","v","gabi","false","",""
"3210.2999999523163","","","","","5","html-slider-response","1116","","","","5",""
"1916","bread","dari,kaili,dizeli,bugas","dari","f","5","html-keyboard-response","1117","f","dari","true","",""
"3005.2999999523163","","","","","5","html-slider-response","1118","","","","5",""
"557","snake","jansa,karon,pagtukod,mvringo","pagtukod","j","5","html-keyboard-response","1119","f","jansa","false","",""
"4242.299999952316","","","","","5","html-slider-response","1120","","","","5",""
"267","rose","singizi,mwanake,amani,paghalad","paghalad","n","5","html-keyboard-response","1121","f","singizi","false","",""
"3729.6999999284744","","","","","5","html-slider-response","1122","","","","5",""
"239","hill","kushoto,kukimba,matumbo,sweta","matumbo","j","5","html-keyboard-response","1123","f","kushoto","false","",""
"4512.200000047684","","","","","5","html-slider-response","1124","","","","5",""
"318","train","itik,sayari,dakika,mungu","sayari","v","5","html-keyboard-response","1125","f","itik","false","",""
"4259.200000047684","","","","","5","html-slider-response","1126","","","","5",""
"276","shop","nopya,kerida,ndezu,samaki","samaki","n","5","html-keyboard-response","1127","f","nopya","false","",""
"3066.899999976158","","","","","5","html-slider-response","1128","","","","5",""
"287","nose","sehemu,gubat,kopa,kidole","sehemu","f","5","html-keyboard-response","1129","f","sehemu","true","",""
"3078.399999976158","","","","","5","html-slider-response","1130","","","","5",""
"261","boat","hamsi,agalon,pombe,kitanda","agalon","v","5","html-keyboard-response","1131","f","hamsi","false","",""
"3956.4000000953674","","","","","5","html-slider-response","1132","","","","5",""
"980","body","nyundu,jibini,kununa,tindashan","tindashan","n","5","html-keyboard-response","1133","f","nyundu","false","",""
"3673.899999976158","","","","","5","html-slider-response","1134","","","","5",""
"384","bed","kalipay,haraka,starehe,mapintas","mapintas","n","5","html-keyboard-response","1135","f","kalipay","false","",""
"4215","","","","","5","html-slider-response","1136","","","","5",""
"386","squirrel","mahugaw,ukweli,hofu,kichwa","hofu","j","5","html-keyboard-response","1137","f","mahugaw","false","",""
"3151.7000000476837","","","","","5","html-slider-response","1138","","","","5",""
"390","window","kweli,nanga,kujenga,umaga","kweli","f","5","html-keyboard-response","1139","f","kweli","true","",""
"3096","","","","","5","html-slider-response","1140","","","","5",""
"575","bonfire","goti,mwezi,mfuko,kusanya","goti","f","5","html-keyboard-response","1141","f","goti","true","",""
"6170.700000047684","","","","","5","html-slider-response","1142","","","","5",""
"1003","fish","bala,buli,baho,imani","buli","v","5","html-keyboard-response","1143","f","bala","false","",""
"4405.899999976158","","","","","5","html-slider-response","1144","","","","5",""
"271","cat","neyemba,baki,paghukom,akili","paghukom","j","5","html-keyboard-response","1145","f","neyemba","false","",""
"4106.299999952316","","","","","5","html-slider-response","1146","","","","5",""
"613","spider","bunyag,kamwe,mkboa,atop","kamwe","v","5","html-keyboard-response","1147","f","bunyag","false","",""
"3551.899999976158","","","","","5","html-slider-response","1148","","","","5",""
"333","eel","ishara,msumari,kunywa,kabuang","msumari","v","5","html-keyboard-response","1149","f","ishara","false","",""
"3435.5","","","","","5","html-slider-response","1150","","","","5",""
"1828","woman","bandari,pagtabon,bituin,kovuli","pagtabon","v","5","html-keyboard-response","1151","n","kovuli","false","",""
"3060.5","","","","","5","html-slider-response","1152","","","","5",""
"366","magazine","gundi,kiti,mchawi,bahandi","kiti","v","5","html-keyboard-response","1153","n","bahandi","false","",""
"3001.100000023842","","","","","5","html-slider-response","1154","","","","5",""
"464","pudding","abug,mpishi,iring,aibu","aibu","n","5","html-keyboard-response","1155","n","aibu","true","",""
"3553.100000023842","","","","","5","html-slider-response","1156","","","","5",""
"417","lamp","daub,bilaska,afya,mbolea","afya","j","5","html-keyboard-response","1157","n","mbolea","false","",""
"2970.0999999046326","","","","","5","html-slider-response","1158","","","","5",""
"313","cave","kesho,ganti,maisha,nyundo","kesho","f","5","html-keyboard-response","1159","n","nyundo","false","",""
"3589.899999976158","","","","","5","html-slider-response","1160","","","","5",""
"281","shoulder","kelele,mkuu,ndaniya,guruwe","mkuu","v","5","html-keyboard-response","1161","n","guruwe","false","",""
"3765","","","","","5","html-slider-response","1162","","","","5",""
"304","stone","ulimwengu,wingi,mkasi,asili","wingi","v","5","html-keyboard-response","1163","n","asili","false","",""
"2876","","","","","5","html-slider-response","1164","","","","5",""
"303","column","pundok,ufagio,dila,pala","ufagio","v","5","html-keyboard-response","1165","n","pala","false","",""
"4654.5","","","","","5","html-slider-response","1166","","","","5",""
"310","page","wakala,ishiri,wimbo,skina","wimbo","j","5","html-keyboard-response","1167","n","skina","false","",""
"3265","","","","","5","html-slider-response","1168","","","","5",""
"335","shoe","nyeusi,hatua,kama,uyoga","uyoga","n","5","html-keyboard-response","1169","n","uyoga","true","",""
"3478.9000000953674","","","","","5","html-slider-response","1170","","","","5",""
"361","clock","kartasi,abang,mbwa,osha","mbwa","j","5","html-keyboard-response","1171","n","osha","false","",""
"3632.3000000715256","","","","","5","html-slider-response","1172","","","","5",""
"287","towel","pagpalit,tembo,funzi,pito","pagpalit","f","5","html-keyboard-response","1173","n","pito","false","",""
"3647.899999976158","","","","","5","html-slider-response","1174","","","","5",""
"309","tomato","chupi,mvua,chupa,takatak","mvua","v","5","html-keyboard-response","1175","n","takatak","false","",""
"4066.7000000476837","","","","","5","html-slider-response","1176","","","","5",""
"324","bucket","baga,ijayo,kiatu,init","kiatu","j","5","html-keyboard-response","1177","n","init","false","",""
"3634","","","","","5","html-slider-response","1178","","","","5",""
"287","finger","simu,sufuria,lima,moyo","moyo","n","5","html-keyboard-response","1179","n","moyo","true","",""
"4015.399999976158","","","","","5","html-slider-response","1180","","","","5",""
"310","mother","kahawa,babaye,mbuzi,jokofu","babaye","v","5","html-keyboard-response","1181","n","jokofu","false","",""
"3371.6999999284744","","","","","5","html-slider-response","1182","","","","5",""
"486","human","tinapay,bado,kikapu,punguza","tinapay","f","5","html-keyboard-response","1183","n","punguza","false","",""
"2967.7999999523163","","","","","5","html-slider-response","1184","","","","5",""
"336","sun","bendi,luha,uongo,basi","basi","n","5","html-keyboard-response","1185","n","basi","true","",""
"3623.3000000715256","","","","","5","html-slider-response","1186","","","","5",""
"334","fork","baboy,mgonjwa,paghago,gorisi","mgonjwa","v","5","html-keyboard-response","1187","n","gorisi","false","",""
"3517.1999999284744","","","","","5","html-slider-response","1188","","","","5",""
"847","donkey","bloke,elfu,lalake,rombus","elfu","v","5","html-keyboard-response","1189","f","bloke","false","",""
"3745.7999999523163","","","","","5","html-slider-response","1190","","","","5",""
"359","wolf","kaburi,ndizi,mchuzi,lugha","lugha","n","5","html-keyboard-response","1191","f","kaburi","false","",""
"3316.0999999046326","","","","","5","html-slider-response","1192","","","","5",""
"304","cigar","ndugu,kuta,mlango,adhabu","adhabu","n","5","html-keyboard-response","1193","f","ndugu","false","",""
"6802.100000023842","","","","","5","html-slider-response","1194","","","","5",""
"701","olive","bata,siagi,welder,jiwe","jiwe","n","5","html-keyboard-response","1195","f","bata","false","",""
"3284.6999999284744","","","","","5","html-slider-response","1196","","","","5",""
"274","key","miaka,goma,ahos,chombo","chombo","n","5","html-keyboard-response","1197","f","miaka","false","",""
"4056.100000023842","","","","","5","html-slider-response","1198","","","","5",""
"261","door","tena,surali,soko,nyota","surali","v","5","html-keyboard-response","1199","f","tena","false","",""
"3549.2000000476837","","","","","5","html-slider-response","1200","","","","5",""
"509","wheel","punda,bafuni,tawo,baadaye","bafuni","v","5","html-keyboard-response","1201","f","punda","false","",""
"3525.6999999284744","","","","","5","html-slider-response","1202","","","","5",""
"250","basket","kumbuka,utepe,hasira,kumba","kumba","n","5","html-keyboard-response","1203","f","kumbuka","false","",""
"3944.6999999284744","","","","","5","html-slider-response","1204","","","","5",""
"271","elephant","kito,petye,pagduol,suka","kito","f","5","html-keyboard-response","1205","f","kito","true","",""
"3837.100000023842","","","","","5","html-slider-response","1206","","","","5",""
"352","office","hazini,yatima,leso,kuna","leso","j","5","html-keyboard-response","1207","f","hazini","false","",""
"4518.600000023842","","","","","5","html-slider-response","1208","","","","5",""
"319","music","mraba,baiski,mageho,tumbo","baiski","v","5","html-keyboard-response","1209","f","mraba","false","",""
"3701.2000000476837","","","","","5","html-slider-response","1210","","","","5",""
"251","tissue","lamigas,ugomvi,kisiwa,katika","ugomvi","v","5","html-keyboard-response","1211","f","lamigas","false","",""
"4766.700000047684","","","","","5","html-slider-response","1212","","","","4",""
"292","curtain","mchanga,lisud,bulwawan,chubani","mchanga","f","5","html-keyboard-response","1213","f","mchanga","true","",""
"3007.2999999523163","","","","","5","html-slider-response","1214","","","","5",""
"249","flag","trekta,ndege,mkate,kawa","trekta","f","5","html-keyboard-response","1215","f","trekta","true","",""
"3505.2999999523163","","","","","5","html-slider-response","1216","","","","5",""
"321","dog","lubi,bahari,washia,kalamu","bahari","v","5","html-keyboard-response","1217","f","lubi","false","",""
"5056.600000023842","","","","","5","html-slider-response","1218","","","","5",""
"601","cup","dagat,matumai,shimoni,jeraha","matumai","v","5","html-keyboard-response","1219","f","dagat","false","",""
"5308.600000023842","","","","","5","html-slider-response","1220","","","","5",""
"278","sheet","juuya,watu,bililhon,kamantis","bililhon","j","5","html-keyboard-response","1221","f","juuya","false","",""
"3998.7000000476837","","","","","5","html-slider-response","1222","","","","5",""
"270","spoon","betri,nzuri,pagsulod,ngazi","pagsulod","j","5","html-keyboard-response","1223","f","betri","false","",""
"2938.899999976158","","","","","5","html-slider-response","1224","","","","5",""
"254","flower","tamasha,bega,lobo,usiku","bega","v","5","html-keyboard-response","1225","f","tamasha","false","",""
"3580","","","","","5","html-slider-response","1226","","","","5",""
"948","picture","silya,chaki,asin,kubwa","kubwa","n","5","html-keyboard-response","1227","f","silya","false","",""
"4156.299999952316","","","","","5","html-slider-response","1228","","","","5",""
"475","puppet","napulo,lamok,godoro,mazishi","mazishi","n","5","html-keyboard-response","1229","f","napulo","false","",""
"4296.899999976158","","","","","5","html-slider-response","1230","","","","5",""
"725","banana","kasamok,hagdan,twai,kazi","kazi","n","5","html-keyboard-response","1231","f","kasamok","false","",""
"4104.5","","","","","5","html-slider-response","1232","","","","5",""
"1467","book","kuhesa,mali,picha,mara","mali","v","5","html-keyboard-response","1233","f","kuhesa","false","",""
"3529.2000000476837","","","","","5","html-slider-response","1234","","","","5",""
"367","triangle","kihozi,bentaha,kasadpan,liog","kasadpan","j","5","html-keyboard-response","1235","f","kihozi","false","",""
"3643.7999999523163","","","","","5","html-slider-response","1236","","","","5",""
"1857","poster","nchi,madungog,fedha,kasuko","madungog","v","5","html-keyboard-response","1237","f","nchi","false","",""
"4723.699999928474","","","","","5","html-slider-response","1238","","","","5",""
"492","box","kuacha,rafiki,kitande,adui","adui","n","5","html-keyboard-response","1239","f","kuacha","false","",""
"6104.899999976158","","","","","5","html-slider-response","1240","","","","5",""
"355","mosquito","martilyo,isda,taras,gutom","martilyo","f","5","html-keyboard-response","1241","f","martilyo","true","",""
"8112","","","","","5","html-slider-response","1242","","","","5",""
"754","shelf","bungtod,pamahaw,kadaot,awit","pamahaw","v","5","html-keyboard-response","1243","f","bungtod","false","",""
"3653.9000000953674","","","","","5","html-slider-response","1244","","","","5",""
"322","scissors","duga,mtawa,tanuri,suga","tanuri","j","5","html-keyboard-response","1245","f","duga","false","",""
"4010.600000023842","","","","","5","html-slider-response","1246","","","","5",""
"343","hammer","mekno,kitovu,napakyas,layag","napakyas","j","5","html-keyboard-response","1247","f","mekno","false","",""
"3087.8000000715256","","","","","5","html-slider-response","1248","","","","5",""
