"rt","en_word","options","swa_word","correct_answer","phase","trial_type","trial_index","input_answer","input_word","accuracy","certainty","amt_choices"
"39783","bonfire","mwezi,goti,mfuko,kusanya","goti","v","2","html-keyboard-response","106","v","goti","true","",""
"2702.5","","","","","2","html-slider-response","107","","","","2",""
"2429","flower","tamasha,bega,lobo,usiku","bega","v","2","html-keyboard-response","108","v","bega","true","",""
"3064.39999999851","","","","","2","html-slider-response","109","","","","5",""
"5715","column","pundok,dila,pala,ufagio","ufagio","n","2","html-keyboard-response","110","n","ufagio","true","",""
"5239","","","","","2","html-slider-response","111","","","","3",""
"4248","music","mraba,mageho,tumbo,baiski","baiski","n","2","html-keyboard-response","112","f","mraba","false","",""
"3142.60000000149","","","","","2","html-slider-response","113","","","","2",""
"3417","spider","bunyag,kamwe,mkboa,atop","kamwe","v","2","html-keyboard-response","114","v","kamwe","true","",""
"2191.8000000044703","","","","","2","html-slider-response","115","","","","5",""
"5903","fork","baboy,paghago,gorisi,mgonjwa","mgonjwa","n","2","html-keyboard-response","116","n","mgonjwa","true","",""
"1865.6000000014901","","","","","2","html-slider-response","117","","","","5",""
"5372","mosquito","isda,martilyo,taras,gutom","martilyo","v","2","html-keyboard-response","118","v","martilyo","true","",""
"1897.1999999955297","","","","","2","html-slider-response","119","","","","4",""
"9178","banana","kasamok,hagdan,kazi,twai","kazi","j","2","html-keyboard-response","120","f","kasamok","false","",""
"2143.6999999955297","","","","","2","html-slider-response","121","","","","2",""
"4141","cup","dagat,matumai,shimoni,jeraha","matumai","v","2","html-keyboard-response","122","f","dagat","false","",""
"2008.2000000029802","","","","","2","html-slider-response","123","","","","4",""
"5911","shop","nopya,kerida,samaki,ndezu","samaki","j","2","html-keyboard-response","124","j","samaki","true","",""
"2291.89999999851","","","","","2","html-slider-response","125","","","","4",""
"2850","elephant","petye,pagduol,suka,kito","kito","n","2","html-keyboard-response","126","n","kito","true","",""
"2497.39999999851","","","","","2","html-slider-response","127","","","","5",""
"7040","bucket","kiatu,baga,ijayo,init","kiatu","f","2","html-keyboard-response","128","f","kiatu","true","",""
"1982","","","","","2","html-slider-response","129","","","","4",""
"5275","book","kuhesa,picha,mali,mara","mali","j","2","html-keyboard-response","130","j","mali","true","",""
"4431.79999999702","","","","","2","html-slider-response","131","","","","2",""
"5119","mirror","sulagma,rangi,kanding,furaha","sulagma","f","2","html-keyboard-response","132","f","sulagma","true","",""
"1945.6999999955297","","","","","2","html-slider-response","133","","","","4",""
"3279","office","leso,hazini,yatima,kuna","leso","f","2","html-keyboard-response","134","f","leso","true","",""
"2310.89999999851","","","","","2","html-slider-response","135","","","","5",""
"5525","body","nyundu,jibini,kununa,tindashan","tindashan","n","2","html-keyboard-response","136","n","tindashan","true","",""
"2072.39999999851","","","","","2","html-slider-response","137","","","","2",""
"6971","perfume","bino,sungura,ndogo,katuyoan","katuyoan","n","2","html-keyboard-response","138","v","sungura","false","",""
"2180.5","","","","","2","html-slider-response","139","","","","1",""
"4463","olive","jiwe,bata,siagi,welder","jiwe","f","2","html-keyboard-response","140","f","jiwe","true","",""
"1962.3999999985099","","","","","2","html-slider-response","141","","","","4",""
"2277","magazine","kiti,gundi,mchawi,bahandi","kiti","f","2","html-keyboard-response","142","f","kiti","true","",""
"2399.39999999851","","","","","2","html-slider-response","143","","","","5",""
"9024","bread","kaili,dizeli,bugas,dari","dari","n","2","html-keyboard-response","144","j","bugas","false","",""
"2744.89999999851","","","","","2","html-slider-response","145","","","","1",""
"50494","cave","ganti,maisha,kesho,nyundo","kesho","j","2","html-keyboard-response","146","v","maisha","false","",""
"3221.5","","","","","2","html-slider-response","147","","","","1",""
"4411","ladder","mashua,mwanga,kamba,pangalan","pangalan","n","2","html-keyboard-response","148","j","kamba","false","",""
"1974.7999999970198","","","","","2","html-slider-response","149","","","","2",""
"8717","human","bado,kikapu,tinapay,punguza","tinapay","j","2","html-keyboard-response","150","f","bado","false","",""
"3079.5","","","","","2","html-slider-response","151","","","","3",""
"5121","clock","mbwa,kartasi,abang,osha","mbwa","f","2","html-keyboard-response","152","f","mbwa","true","",""
"2024.6999999955297","","","","","2","html-slider-response","153","","","","5",""
"6069","shelf","bungtod,kadaot,pamahaw,awit","pamahaw","j","2","html-keyboard-response","154","j","pamahaw","true","",""
"1640.6000000014901","","","","","2","html-slider-response","155","","","","4",""
"2394","salmon","mzungu,seri,baharia,sensilyo","sensilyo","n","2","html-keyboard-response","156","n","sensilyo","true","",""
"2002.7000000029802","","","","","2","html-slider-response","157","","","","5",""
"8394","coffin","barua,tubag,hulma,kioo","kioo","n","2","html-keyboard-response","158","v","tubag","false","",""
"3917.10000000149","","","","","2","html-slider-response","159","","","","3",""
"5847","notebook","msitu,kemia,kila,mdudu","kemia","v","2","html-keyboard-response","160","v","kemia","true","",""
"2282.10000000149","","","","","2","html-slider-response","161","","","","2",""
"4756","shoulder","kelele,ndaniya,mkuu,guruwe","mkuu","j","2","html-keyboard-response","162","n","guruwe","false","",""
"1891.3999999985099","","","","","2","html-slider-response","163","","","","2",""
"6478","park","bunifu,tambok,pwani,ihalas","bunifu","f","2","html-keyboard-response","164","j","pwani","false","",""
"2109.1999999955297","","","","","2","html-slider-response","165","","","","2",""
"4178","number","shule,kengele,choori,mundamo","mundamo","n","2","html-keyboard-response","166","n","mundamo","true","",""
"2354.89999999851","","","","","2","html-slider-response","167","","","","3",""
"5322","apple","kisu,ukame,estante,edad","kisu","f","2","html-keyboard-response","168","v","ukame","false","",""
"2284.7999999970198","","","","","2","html-slider-response","169","","","","3",""
"24360","letter","kifua,filimbi,chuma,uhuru","kifua","f","2","html-keyboard-response","170","v","filimbi","false","",""
"2698.1999999955297","","","","","2","html-slider-response","171","","","","2",""
"4232","eel","ishara,msumari,kunywa,kabuang","msumari","v","2","html-keyboard-response","172","v","msumari","true","",""
"1736.5999999940395","","","","","2","html-slider-response","173","","","","4",""
"19661","cop","mechezo,bustani,jikoni,bakus","mechezo","f","2","html-keyboard-response","174","v","bustani","false","",""
"1719.5","","","","","2","html-slider-response","175","","","","2",""
"9450","wolf","kaburi,ndizi,lugha,mchuzi","lugha","j","2","html-keyboard-response","176","f","kaburi","false","",""
"2595.2999999970198","","","","","2","html-slider-response","177","","","","1",""
"14111","squirrel","hofu,mahugaw,ukweli,kichwa","hofu","f","2","html-keyboard-response","178","j","ukweli","false","",""
"1990.2999999970198","","","","","2","html-slider-response","179","","","","2",""
"4768","nose","sehemu,gubat,kopa,kidole","sehemu","f","2","html-keyboard-response","180","f","sehemu","true","",""
"2418.3000000044703","","","","","2","html-slider-response","181","","","","1",""
"4205","sock","ndoora,kimysa,mamba,mtirka","mamba","j","2","html-keyboard-response","182","v","kimysa","false","",""
"2573.9000000059605","","","","","2","html-slider-response","183","","","","4",""
"5266","bank","silingan,kudhibi,tualya,ofisi","silingan","f","2","html-keyboard-response","184","v","kudhibi","false","",""
"1575","","","","","2","html-slider-response","185","","","","2",""
"4498","donkey","bloke,lalake,elfu,rombus","elfu","j","2","html-keyboard-response","186","j","elfu","true","",""
"1740.6000000014901","","","","","2","html-slider-response","187","","","","5",""
"8184","poster","nchi,fedha,kasuko,madungog","madungog","n","2","html-keyboard-response","188","v","fedha","false","",""
"3452.5","","","","","2","html-slider-response","189","","","","5",""
"4328","puppet","napulo,lamok,godoro,mazishi","mazishi","n","2","html-keyboard-response","190","n","mazishi","true","",""
"2073.5999999940395","","","","","2","html-slider-response","191","","","","2",""
"5951","hill","kushoto,kukimba,sweta,matumbo","matumbo","n","2","html-keyboard-response","192","v","kukimba","false","",""
"2103.60000000149","","","","","2","html-slider-response","193","","","","2",""
"4822","tooth","kijiko,uadui,kabalaka,pahiyum","kabalaka","j","2","html-keyboard-response","194","v","uadui","false","",""
"2152.8000000044703","","","","","2","html-slider-response","195","","","","1",""
"7838","woman","pagtabon,bandari,bituin,kovuli","pagtabon","f","2","html-keyboard-response","196","f","pagtabon","true","",""
"2572.2000000029802","","","","","2","html-slider-response","197","","","","4",""
"5470","wheel","bafuni,punda,tawo,baadaye","bafuni","f","2","html-keyboard-response","198","f","bafuni","true","",""
"1626.1999999955297","","","","","2","html-slider-response","199","","","","4",""
"5492","mother","kahawa,babaye,mbuzi,jokofu","babaye","v","2","html-keyboard-response","200","f","kahawa","false","",""
"2094.2999999970198","","","","","2","html-slider-response","201","","","","2",""
"6912","bed","kalipay,haraka,mapintas,starehe","mapintas","j","2","html-keyboard-response","202","n","starehe","false","",""
"2158.5","","","","","2","html-slider-response","203","","","","1",""
"4100","key","chombo,miaka,goma,ahos","chombo","f","2","html-keyboard-response","204","j","goma","false","",""
"2734.2999999970198","","","","","2","html-slider-response","205","","","","3",""
"19097","page","wakala,wimbo,ishiri,skina","wimbo","v","2","html-keyboard-response","206","n","skina","false","",""
"1852.2999999970198","","","","","2","html-slider-response","207","","","","2",""
"4469","pants","pintal,chuki,hari,haki","haki","n","2","html-keyboard-response","208","j","hari","false","",""
"4848.30000000447","","","","","2","html-slider-response","209","","","","4",""
"6200","sun","bendi,luha,basi,uongo","basi","j","2","html-keyboard-response","210","n","uongo","false","",""
"2928.39999999851","","","","","2","html-slider-response","211","","","","2",""
"13777","finger","moyo,simu,sufuria,lima","moyo","f","2","html-keyboard-response","212","f","moyo","true","",""
"2339.89999999851","","","","","2","html-slider-response","213","","","","4",""
"6283","shoe","nyeusi,hatua,kama,uyoga","uyoga","n","2","html-keyboard-response","214","n","uyoga","true","",""
"5108.30000000447","","","","","2","html-slider-response","215","","","","1",""
"5591","giraffe","daraja,jumatu,mahitabo,hangyo","mahitabo","j","2","html-keyboard-response","216","f","daraja","false","",""
"1982.7000000029802","","","","","2","html-slider-response","217","","","","4",""
"4798","dog","lubi,bahari,washia,kalamu","bahari","v","2","html-keyboard-response","218","v","bahari","true","",""
"3183.5999999940395","","","","","2","html-slider-response","219","","","","1",""
"6542","box","adui,kuacha,rafiki,kitande","adui","f","2","html-keyboard-response","220","f","adui","true","",""
"2266","","","","","2","html-slider-response","221","","","","2",""
"7902","scissors","tanuri,duga,mtawa,suga","tanuri","f","2","html-keyboard-response","222","v","duga","false","",""
"2321.5","","","","","2","html-slider-response","223","","","","4",""
"4343","cat","paghukom,neyemba,baki,akili","paghukom","f","2","html-keyboard-response","224","n","akili","false","",""
"3857","","","","","2","html-slider-response","225","","","","1",""
"11182","basket","kumbuka,utepe,kumba,hasira","kumba","j","2","html-keyboard-response","226","f","kumbuka","false","",""
"1580.7999999970198","","","","","2","html-slider-response","227","","","","4",""
"4957","snake","jansa,pagtukod,karon,mvringo","pagtukod","v","2","html-keyboard-response","228","v","pagtukod","true","",""
"2255","","","","","2","html-slider-response","229","","","","4",""
"6197","gift","pagtawag,baba,nyange,baso","pagtawag","f","2","html-keyboard-response","230","f","pagtawag","true","",""
"2516","","","","","2","html-slider-response","231","","","","5",""
"11576","train","sayari,itik,dakika,mungu","sayari","f","2","html-keyboard-response","232","n","mungu","false","",""
"2675.10000000149","","","","","2","html-slider-response","233","","","","1",""
"4303","pudding","abug,mpishi,iring,aibu","aibu","n","2","html-keyboard-response","234","v","mpishi","false","",""
"2090.0999999940395","","","","","2","html-slider-response","235","","","","3",""
"5089","tomato","chupi,chupa,takatak,mvua","mvua","n","2","html-keyboard-response","236","f","chupi","false","",""
"2610.7000000029802","","","","","2","html-slider-response","237","","","","2",""
"5400","stone","ulimwengu,mkasi,wingi,asili","wingi","j","2","html-keyboard-response","238","n","asili","false","",""
"2080.2999999970198","","","","","2","html-slider-response","239","","","","1",""
"14444","hammer","mekno,kitovu,napakyas,layag","napakyas","j","2","html-keyboard-response","240","f","mekno","false","",""
"2598.0999999940395","","","","","2","html-slider-response","241","","","","1",""
"5643","knee","mvuke,kubale,bili,duka","duka","n","2","html-keyboard-response","242","n","duka","true","",""
"2570","","","","","2","html-slider-response","243","","","","1",""
"5817","ceiling","kugita,maua,kawaida,rayna","maua","v","2","html-keyboard-response","244","n","rayna","false","",""
"2340.60000000149","","","","","2","html-slider-response","245","","","","1",""
"3937","spoon","betri,nzuri,pagsulod,ngazi","pagsulod","j","2","html-keyboard-response","246","j","pagsulod","true","",""
"1670.8999999985099","","","","","2","html-slider-response","247","","","","4",""
"9711","marker","mapafu,salita,atay,maji","maji","n","2","html-keyboard-response","248","f","mapafu","false","",""
"4101.39999999851","","","","","2","html-slider-response","249","","","","1",""
"3677","candle","gabi,farasi,kupanda,geza","geza","n","2","html-keyboard-response","250","n","geza","true","",""
"1621.0999999940395","","","","","2","html-slider-response","251","","","","4",""
"8438","tissue","lamigas,kisiwa,katika,ugomvi","ugomvi","n","2","html-keyboard-response","252","j","katika","false","",""
"1973.7000000029802","","","","","2","html-slider-response","253","","","","1",""
"8121","bridge","daima,ngono,panya,sahani","sahani","n","2","html-keyboard-response","254","v","ngono","false","",""
"3013.8000000044703","","","","","2","html-slider-response","255","","","","1",""
"4294","berry","abogado,nogozi,kofia,kinywa","kofia","j","2","html-keyboard-response","256","j","kofia","true","",""
"2114.10000000149","","","","","2","html-slider-response","257","","","","4",""
"10415","triangle","kihozi,bentaha,kasadpan,liog","kasadpan","j","2","html-keyboard-response","258","f","kihozi","false","",""
"2911.39999999851","","","","","2","html-slider-response","259","","","","1",""
"5223","door","surali,tena,soko,nyota","surali","f","2","html-keyboard-response","260","j","soko","false","",""
"2160.39999999851","","","","","2","html-slider-response","261","","","","1",""
"4149","fish","bala,buli,baho,imani","buli","v","2","html-keyboard-response","262","v","buli","true","",""
"1589.8999999985099","","","","","2","html-slider-response","263","","","","4",""
"12185","curtain","lisud,bulwawan,chubani,mchanga","mchanga","n","2","html-keyboard-response","264","v","bulwawan","false","",""
"1891.1999999955297","","","","","2","html-slider-response","265","","","","1",""
"4677","flag","trekta,ndege,mkate,kawa","trekta","f","2","html-keyboard-response","266","n","kawa","false","",""
"1985.3000000044703","","","","","2","html-slider-response","267","","","","4",""
"8770","boat","hamsi,agalon,pombe,kitanda","agalon","v","2","html-keyboard-response","268","v","agalon","true","",""
"1840","","","","","2","html-slider-response","269","","","","2",""
"3850","rose","singizi,mwanake,amani,paghalad","paghalad","n","2","html-keyboard-response","270","v","mwanake","false","",""
"3256.0999999940395","","","","","2","html-slider-response","271","","","","1",""
"4644","lamp","daub,afya,bilaska,mbolea","afya","v","2","html-keyboard-response","272","n","mbolea","false","",""
"3011.10000000149","","","","","2","html-slider-response","273","","","","1",""
"4215","cigar","ndugu,kuta,adhabu,mlango","adhabu","j","2","html-keyboard-response","274","v","kuta","false","",""
"2465.7000000029802","","","","","2","html-slider-response","275","","","","2",""
"7859","list","alizeti,wingu,kuzama,kaso","wingu","v","2","html-keyboard-response","276","n","kaso","false","",""
"2619.2000000029802","","","","","2","html-slider-response","277","","","","1",""
"7211","sheet","juuya,watu,bililhon,kamantis","bililhon","j","2","html-keyboard-response","278","n","kamantis","false","",""
"2146.60000000149","","","","","2","html-slider-response","279","","","","1",""
"15277","picture","silya,chaki,asin,kubwa","kubwa","n","2","html-keyboard-response","280","v","chaki","false","",""
"2010.4000000059605","","","","","2","html-slider-response","281","","","","1",""
"11447","towel","tembo,pagpalit,funzi,pito","pagpalit","v","2","html-keyboard-response","282","f","tembo","false","",""
"1982.8999999985099","","","","","2","html-slider-response","283","","","","1",""
"4257","window","nanga,kujenga,umaga,kweli","kweli","n","2","html-keyboard-response","284","v","kujenga","false","",""
"1693","","","","","2","html-slider-response","285","","","","4",""
"10296","box","kuacha,rafiki,kitande,adui","adui","n","3","html-keyboard-response","293","v","rafiki","false","","4"
"3291.4000000059605","","","","","3","html-slider-response","294","","","","1",""
"4258","","","","","3","html-keyboard-response","295","","","","",""
"4281","pants","pintal,chuki,haki,hari","haki","j","3","html-keyboard-response","296","j","haki","true","","4"
"3239.6999999955297","","","","","3","html-slider-response","297","","","","2",""
"2826","","","","","3","html-keyboard-response","298","","","","",""
"4107","cup","dagat,shimoni,matumai,jeraha","matumai","j","3","html-keyboard-response","299","n","jeraha","false","","4"
"2175.39999999851","","","","","3","html-slider-response","300","","","","2",""
"6727","","","","","3","html-keyboard-response","301","","","","",""
"4401","triangle","kihozi,bentaha,kasadpan,liog","kasadpan","j","3","html-keyboard-response","302","v","bentaha","false","","4"
"2357.39999999851","","","","","3","html-slider-response","303","","","","1",""
"5574","","","","","3","html-keyboard-response","304","","","","",""
"7121","curtain","lisud,mchanga,bulwawan,chubani","mchanga","v","3","html-keyboard-response","305","n","chubani","false","","4"
"2617.60000000149","","","","","3","html-slider-response","306","","","","1",""
"3865","","","","","3","html-keyboard-response","307","","","","",""
"5886","clock","kartasi,abang,mbwa,osha","mbwa","j","3","html-keyboard-response","308","n","osha","false","","4"
"2474.5","","","","","3","html-slider-response","309","","","","4",""
"3317","","","","","3","html-keyboard-response","310","","","","",""
"5744","mirror","rangi,sulagma,kanding,furaha","sulagma","v","3","html-keyboard-response","311","v","sulagma","true","","4"
"2137.5","","","","","3","html-slider-response","312","","","","2",""
"2820","","","","","3","html-keyboard-response","313","","","","",""
"3298","coffin","barua,kioo,tubag,hulma","kioo","v","3","html-keyboard-response","314","v","kioo","true","","1"
"2596.39999999851","","","","","3","html-slider-response","315","","","","5",""
"1425","","","","","3","html-keyboard-response","316","","","","",""
"2242","magazine","gundi,mchawi,bahandi,kiti","kiti","n","3","html-keyboard-response","317","n","kiti","true","","4"
"2486.10000000149","","","","","3","html-slider-response","318","","","","5",""
"1704","","","","","3","html-keyboard-response","319","","","","",""
"2920","column","pundok,dila,ufagio,pala","ufagio","j","3","html-keyboard-response","320","j","ufagio","true","","1"
"1865.7999999970198","","","","","3","html-slider-response","321","","","","5",""
"4230","","","","","3","html-keyboard-response","322","","","","",""
"5358","number","shule,mundamo,kengele,choori","mundamo","v","3","html-keyboard-response","323","v","mundamo","true","","4"
"2147.39999999851","","","","","3","html-slider-response","324","","","","1",""
"1586","","","","","3","html-keyboard-response","325","","","","",""
"12230","rose","singizi,mwanake,paghalad,amani","paghalad","j","3","html-keyboard-response","326","j","paghalad","true","","4"
"1914.5","","","","","3","html-slider-response","327","","","","1",""
"2105","","","","","3","html-keyboard-response","328","","","","",""
"4674","eel","ishara,msumari,kunywa,kabuang","msumari","v","3","html-keyboard-response","329","v","msumari","true","","4"
"2082.7999999970198","","","","","3","html-slider-response","330","","","","4",""
"1755","","","","","3","html-keyboard-response","331","","","","",""
"2273","gift","baba,nyange,pagtawag,baso","pagtawag","j","3","html-keyboard-response","332","j","pagtawag","true","","4"
"2075.2999999970198","","","","","3","html-slider-response","333","","","","5",""
"1200","","","","","3","html-keyboard-response","334","","","","",""
"1885","apple","kisu,ukame,estante,edad","kisu","f","3","html-keyboard-response","335","f","kisu","true","","1"
"2223.39999999851","","","","","3","html-slider-response","336","","","","5",""
"1533","","","","","3","html-keyboard-response","337","","","","",""
"2918","wheel","punda,bafuni,tawo,baadaye","bafuni","v","3","html-keyboard-response","338","v","bafuni","true","","1"
"2242.60000000149","","","","","3","html-slider-response","339","","","","5",""
"2645","","","","","3","html-keyboard-response","340","","","","",""
"4211","knee","duka,mvuke,kubale,bili","duka","f","3","html-keyboard-response","341","v","mvuke","false","","4"
"2282.4000000059605","","","","","3","html-slider-response","342","","","","2",""
"3258","","","","","3","html-keyboard-response","343","","","","",""
"2088","basket","kumbuka,kumba,utepe,hasira","kumba","v","3","html-keyboard-response","344","v","kumba","true","","1"
"2138.89999999851","","","","","3","html-slider-response","345","","","","5",""
"3033","","","","","3","html-keyboard-response","346","","","","",""
"3858","park","tambok,bunifu,pwani,ihalas","bunifu","v","3","html-keyboard-response","347","j","pwani","false","","4"
"1804.1000000014901","","","","","3","html-slider-response","348","","","","2",""
"3109","","","","","3","html-keyboard-response","349","","","","",""
"5052","finger","simu,moyo,sufuria,lima","moyo","v","3","html-keyboard-response","350","v","moyo","true","","4"
"2073.9000000059605","","","","","3","html-slider-response","351","","","","2",""
"1462","","","","","3","html-keyboard-response","352","","","","",""
"5269","boat","hamsi,pombe,kitanda,agalon","agalon","n","3","html-keyboard-response","353","n","agalon","true","","4"
"3388.2000000029802","","","","","3","html-slider-response","354","","","","4",""
"1249","","","","","3","html-keyboard-response","355","","","","",""
"7551","hill","kushoto,matumbo,kukimba,sweta","matumbo","v","3","html-keyboard-response","356","v","matumbo","true","","4"
"1709.1000000014901","","","","","3","html-slider-response","357","","","","2",""
"1998","","","","","3","html-keyboard-response","358","","","","",""
"9567","train","itik,dakika,mungu,sayari","sayari","n","3","html-keyboard-response","359","v","dakika","false","","4"
"2281.89999999851","","","","","3","html-slider-response","360","","","","1",""
"2158","","","","","3","html-keyboard-response","361","","","","",""
"4511","wolf","kaburi,ndizi,lugha,mchuzi","lugha","j","3","html-keyboard-response","362","n","mchuzi","false","","4"
"1751.7999999970198","","","","","3","html-slider-response","363","","","","2",""
"989","","","","","3","html-keyboard-response","364","","","","",""
"6409","snake","jansa,karon,mvringo,pagtukod","pagtukod","n","3","html-keyboard-response","365","n","pagtukod","true","","4"
"1924","","","","","3","html-slider-response","366","","","","1",""
"1044","","","","","3","html-keyboard-response","367","","","","",""
"4342","tooth","kijiko,kabalaka,uadui,pahiyum","kabalaka","v","3","html-keyboard-response","368","j","uadui","false","","4"
"2239.10000000149","","","","","3","html-slider-response","369","","","","1",""
"3363","","","","","3","html-keyboard-response","370","","","","",""
"4523","notebook","msitu,kemia,kila,mdudu","kemia","v","3","html-keyboard-response","371","f","msitu","false","","4"
"1556.1999999955297","","","","","3","html-slider-response","372","","","","4",""
"2066","","","","","3","html-keyboard-response","373","","","","",""
"3100","flag","ndege,mkate,trekta,kawa","trekta","j","3","html-keyboard-response","374","n","kawa","false","","4"
"1952","","","","","3","html-slider-response","375","","","","4",""
"2261","","","","","3","html-keyboard-response","376","","","","",""
"5016","squirrel","mahugaw,ukweli,kichwa,hofu","hofu","n","3","html-keyboard-response","377","v","ukweli","false","","4"
"1524.6000000014901","","","","","3","html-slider-response","378","","","","4",""
"1466","","","","","3","html-keyboard-response","379","","","","",""
"5827","door","tena,surali,soko,nyota","surali","v","3","html-keyboard-response","380","f","tena","false","","4"
"1575.0999999940395","","","","","3","html-slider-response","381","","","","2",""
"1690","","","","","3","html-keyboard-response","382","","","","",""
"2190","salmon","mzungu,seri,baharia,sensilyo","sensilyo","n","3","html-keyboard-response","383","n","sensilyo","true","","4"
"2202.2999999970198","","","","","3","html-slider-response","384","","","","5",""
"1588","","","","","3","html-keyboard-response","385","","","","",""
"6965","shoulder","mkuu,kelele,ndaniya,guruwe","mkuu","f","3","html-keyboard-response","386","n","guruwe","false","","4"
"2643","","","","","3","html-slider-response","387","","","","3",""
"1655","","","","","3","html-keyboard-response","388","","","","",""
"10862","lamp","afya,daub,bilaska,mbolea","afya","f","3","html-keyboard-response","389","j","bilaska","false","","4"
"1452.8999999985099","","","","","3","html-slider-response","390","","","","4",""
"1512","","","","","3","html-keyboard-response","391","","","","",""
"3680","shelf","bungtod,kadaot,pamahaw,awit","pamahaw","j","3","html-keyboard-response","392","j","pamahaw","true","","1"
"2548.5999999940395","","","","","3","html-slider-response","393","","","","5",""
"2168","","","","","3","html-keyboard-response","394","","","","",""
"5504","human","bado,kikapu,punguza,tinapay","tinapay","n","3","html-keyboard-response","395","f","bado","false","","4"
"2195.2999999970198","","","","","3","html-slider-response","396","","","","2",""
"1335","","","","","3","html-keyboard-response","397","","","","",""
"4944","towel","pagpalit,tembo,funzi,pito","pagpalit","f","3","html-keyboard-response","398","v","tembo","false","","4"
"2091.8000000044703","","","","","3","html-slider-response","399","","","","2",""
"1391","","","","","3","html-keyboard-response","400","","","","",""
"3264","cat","neyemba,paghukom,baki,akili","paghukom","v","3","html-keyboard-response","401","n","akili","false","","4"
"2471.8000000044703","","","","","3","html-slider-response","402","","","","1",""
"1870","","","","","3","html-keyboard-response","403","","","","",""
"2927","spider","bunyag,mkboa,kamwe,atop","kamwe","j","3","html-keyboard-response","404","j","kamwe","true","","4"
"2009.2000000029802","","","","","3","html-slider-response","405","","","","5",""
"1144","","","","","3","html-keyboard-response","406","","","","",""
"4986","window","nanga,kujenga,umaga,kweli","kweli","n","3","html-keyboard-response","407","n","kweli","true","","4"
"1584.8999999985099","","","","","3","html-slider-response","408","","","","2",""
"1379","","","","","3","html-keyboard-response","409","","","","",""
"2887","woman","pagtabon,bandari,bituin,kovuli","pagtabon","f","3","html-keyboard-response","410","f","pagtabon","true","","1"
"2327.39999999851","","","","","3","html-slider-response","411","","","","5",""
"3130","","","","","3","html-keyboard-response","412","","","","",""
"3051","giraffe","mahitabo,daraja,jumatu,hangyo","mahitabo","f","3","html-keyboard-response","413","v","daraja","false","","4"
"1668.8999999985099","","","","","3","html-slider-response","414","","","","5",""
"2162","","","","","3","html-keyboard-response","415","","","","",""
"2417","elephant","petye,pagduol,kito,suka","kito","j","3","html-keyboard-response","416","j","kito","true","","4"
"2015.6999999955297","","","","","3","html-slider-response","417","","","","5",""
"1067","","","","","3","html-keyboard-response","418","","","","",""
"5295","cave","ganti,maisha,kesho,nyundo","kesho","j","3","html-keyboard-response","419","v","maisha","false","","4"
"2160.5999999940395","","","","","3","html-slider-response","420","","","","1",""
"1231","","","","","3","html-keyboard-response","421","","","","",""
"3538","bread","kaili,dizeli,dari,bugas","dari","j","3","html-keyboard-response","422","v","dizeli","false","","4"
"2152.7999999970198","","","","","3","html-slider-response","423","","","","4",""
"1312","","","","","3","html-keyboard-response","424","","","","",""
"6753","stone","ulimwengu,wingi,mkasi,asili","wingi","v","3","html-keyboard-response","425","f","ulimwengu","false","","4"
"1718.2000000029802","","","","","3","html-slider-response","426","","","","2",""
"2541","","","","","3","html-keyboard-response","427","","","","",""
"6569","donkey","elfu,bloke,lalake,rombus","elfu","f","3","html-keyboard-response","428","f","elfu","true","","4"
"1868.8000000044703","","","","","3","html-slider-response","429","","","","5",""
"1293","","","","","3","html-keyboard-response","430","","","","",""
"6206","bridge","daima,sahani,ngono,panya","sahani","v","3","html-keyboard-response","431","v","sahani","true","","4"
"2436.89999999851","","","","","3","html-slider-response","432","","","","1",""
"2025","","","","","3","html-keyboard-response","433","","","","",""
"5866","bonfire","goti,mwezi,mfuko,kusanya","goti","f","3","html-keyboard-response","434","f","goti","true","","4"
"2101.3000000044703","","","","","3","html-slider-response","435","","","","4",""
"1246","","","","","3","html-keyboard-response","436","","","","",""
"4199","book","kuhesa,mali,picha,mara","mali","v","3","html-keyboard-response","437","v","mali","true","","4"
"1697.8999999985099","","","","","3","html-slider-response","438","","","","4",""
"969","","","","","3","html-keyboard-response","439","","","","",""
"3847","fish","bala,baho,imani,buli","buli","n","3","html-keyboard-response","440","n","buli","true","","4"
"2351.2999999970198","","","","","3","html-slider-response","441","","","","5",""
"910","","","","","3","html-keyboard-response","442","","","","",""
"7817","spoon","pagsulod,betri,nzuri,ngazi","pagsulod","f","3","html-keyboard-response","443","f","pagsulod","true","","4"
"2567.10000000149","","","","","3","html-slider-response","444","","","","2",""
"1012","","","","","3","html-keyboard-response","445","","","","",""
"5119","scissors","duga,tanuri,mtawa,suga","tanuri","v","3","html-keyboard-response","446","j","mtawa","false","","4"
"1911.2000000029802","","","","","3","html-slider-response","447","","","","2",""
"1198","","","","","3","html-keyboard-response","448","","","","",""
"4727","page","wakala,ishiri,wimbo,skina","wimbo","j","3","html-keyboard-response","449","n","skina","false","","4"
"1716.6000000014901","","","","","3","html-slider-response","450","","","","1",""
"900","","","","","3","html-keyboard-response","451","","","","",""
"2572","nose","gubat,kopa,kidole,sehemu","sehemu","n","3","html-keyboard-response","452","n","sehemu","true","","1"
"2786.2000000029802","","","","","3","html-slider-response","453","","","","5",""
"2593","","","","","3","html-keyboard-response","454","","","","",""
"5688","ceiling","kugita,kawaida,maua,rayna","maua","j","3","html-keyboard-response","455","n","rayna","false","","4"
"1955.2999999970198","","","","","3","html-slider-response","456","","","","1",""
"1306","","","","","3","html-keyboard-response","457","","","","",""
"5719","bucket","kiatu,baga,ijayo,init","kiatu","f","3","html-keyboard-response","458","v","baga","false","","4"
"3014.7999999970198","","","","","3","html-slider-response","459","","","","4",""
"1336","","","","","3","html-keyboard-response","460","","","","",""
"2773","berry","kofia,abogado,nogozi,kinywa","kofia","f","3","html-keyboard-response","461","f","kofia","true","","1"
"2396.0999999940395","","","","","3","html-slider-response","462","","","","5",""
"1036","","","","","3","html-keyboard-response","463","","","","",""
"3995","mother","kahawa,babaye,mbuzi,jokofu","babaye","v","3","html-keyboard-response","464","v","babaye","true","","1"
"2280.5","","","","","3","html-slider-response","465","","","","5",""
"1115","","","","","3","html-keyboard-response","466","","","","",""
"5840","mosquito","isda,taras,gutom,martilyo","martilyo","n","3","html-keyboard-response","467","n","martilyo","true","","4"
"2398.0999999940395","","","","","3","html-slider-response","468","","","","3",""
"1025","","","","","3","html-keyboard-response","469","","","","",""
"5156","perfume","bino,katuyoan,sungura,ndogo","katuyoan","v","3","html-keyboard-response","470","v","katuyoan","true","","4"
"1818.7999999970198","","","","","3","html-slider-response","471","","","","2",""
"880","","","","","3","html-keyboard-response","472","","","","",""
"8545","sheet","juuya,watu,bililhon,kamantis","bililhon","j","3","html-keyboard-response","473","v","watu","false","","4"
"1961.7999999970198","","","","","3","html-slider-response","474","","","","1",""
"1106","","","","","3","html-keyboard-response","475","","","","",""
"3640","puppet","napulo,mazishi,lamok,godoro","mazishi","v","3","html-keyboard-response","476","v","mazishi","true","","1"
"2651.2000000029802","","","","","3","html-slider-response","477","","","","5",""
"2507","","","","","3","html-keyboard-response","478","","","","",""
"3759","poster","nchi,fedha,madungog,kasuko","madungog","j","3","html-keyboard-response","479","v","fedha","false","","4"
"3216.7000000029802","","","","","3","html-slider-response","480","","","","3",""
"1300","","","","","3","html-keyboard-response","481","","","","",""
"5127","music","baiski,mraba,mageho,tumbo","baiski","f","3","html-keyboard-response","482","n","tumbo","false","","4"
"1868.3999999985099","","","","","3","html-slider-response","483","","","","1",""
"1156","","","","","3","html-keyboard-response","484","","","","",""
"6539","key","miaka,goma,chombo,ahos","chombo","j","3","html-keyboard-response","485","n","ahos","false","","4"
"1713.8999999985099","","","","","3","html-slider-response","486","","","","4",""
"1142","","","","","3","html-keyboard-response","487","","","","",""
"5582","sock","ndoora,kimysa,mamba,mtirka","mamba","j","3","html-keyboard-response","488","n","mtirka","false","","4"
"1781.1999999955297","","","","","3","html-slider-response","489","","","","1",""
"1161","","","","","3","html-keyboard-response","490","","","","",""
"4968","marker","maji,mapafu,salita,atay","maji","f","3","html-keyboard-response","491","f","maji","true","","4"
"2181.1999999955297","","","","","3","html-slider-response","492","","","","2",""
"1132","","","","","3","html-keyboard-response","493","","","","",""
"12098","office","hazini,yatima,kuna,leso","leso","n","3","html-keyboard-response","494","n","leso","true","","4"
"2088.5","","","","","3","html-slider-response","495","","","","5",""
"975","","","","","3","html-keyboard-response","496","","","","",""
"4534","shoe","nyeusi,hatua,kama,uyoga","uyoga","n","3","html-keyboard-response","497","j","kama","false","","4"
"1817.6999999955297","","","","","3","html-slider-response","498","","","","4",""
"940","","","","","3","html-keyboard-response","499","","","","",""
"4343","cop","bustani,jikoni,bakus,mechezo","mechezo","n","3","html-keyboard-response","500","n","mechezo","true","","4"
"1640.3999999985099","","","","","3","html-slider-response","501","","","","2",""
"1303","","","","","3","html-keyboard-response","502","","","","",""
"4166","bank","silingan,kudhibi,tualya,ofisi","silingan","f","3","html-keyboard-response","503","f","silingan","true","","4"
"1995.2000000029802","","","","","3","html-slider-response","504","","","","4",""
"965","","","","","3","html-keyboard-response","505","","","","",""
"2595","letter","filimbi,chuma,uhuru,kifua","kifua","n","3","html-keyboard-response","506","n","kifua","true","","1"
"2503.7000000029802","","","","","3","html-slider-response","507","","","","5",""
"1016","","","","","3","html-keyboard-response","508","","","","",""
"2329","dog","lubi,washia,bahari,kalamu","bahari","j","3","html-keyboard-response","509","j","bahari","true","","1"
"2408.2000000029802","","","","","3","html-slider-response","510","","","","5",""
"1151","","","","","3","html-keyboard-response","511","","","","",""
"20893","shop","nopya,kerida,ndezu,samaki","samaki","n","3","html-keyboard-response","512","n","samaki","true","","4"
"3843.5","","","","","3","html-slider-response","513","","","","1",""
"1198","","","","","3","html-keyboard-response","514","","","","",""
"2615","flower","tamasha,lobo,bega,usiku","bega","j","3","html-keyboard-response","515","j","bega","true","","4"
"2243","","","","","3","html-slider-response","516","","","","5",""
"1226","","","","","3","html-keyboard-response","517","","","","",""
"1815","cigar","ndugu,kuta,adhabu,mlango","adhabu","j","3","html-keyboard-response","518","j","adhabu","true","","1"
"2718.7000000029802","","","","","3","html-slider-response","519","","","","5",""
"1142","","","","","3","html-keyboard-response","520","","","","",""
"5814","hammer","mekno,kitovu,layag,napakyas","napakyas","n","3","html-keyboard-response","521","n","napakyas","true","","4"
"1741.6000000014901","","","","","3","html-slider-response","522","","","","4",""
"976","","","","","3","html-keyboard-response","523","","","","",""
"3939","fork","baboy,mgonjwa,paghago,gorisi","mgonjwa","v","3","html-keyboard-response","524","j","paghago","false","","4"
"1980.5","","","","","3","html-slider-response","525","","","","2",""
"1632","","","","","3","html-keyboard-response","526","","","","",""
"2322","sun","bendi,basi,luha,uongo","basi","v","3","html-keyboard-response","527","v","basi","true","","1"
"1959.5","","","","","3","html-slider-response","528","","","","5",""
"836","","","","","3","html-keyboard-response","529","","","","",""
"3823","ladder","mashua,pangalan,mwanga,kamba","pangalan","v","3","html-keyboard-response","530","f","mashua","false","","4"
"3825.10000000149","","","","","3","html-slider-response","531","","","","2",""
"1356","","","","","3","html-keyboard-response","532","","","","",""
"4751","banana","kasamok,hagdan,twai,kazi","kazi","n","3","html-keyboard-response","533","n","kazi","true","","1"
"2060.60000000149","","","","","3","html-slider-response","534","","","","5",""
"913","","","","","3","html-keyboard-response","535","","","","",""
"4394","pudding","abug,mpishi,aibu,iring","aibu","j","3","html-keyboard-response","536","j","aibu","true","","4"
"1731.1999999955297","","","","","3","html-slider-response","537","","","","1",""
"966","","","","","3","html-keyboard-response","538","","","","",""
"4742","body","nyundu,jibini,kununa,tindashan","tindashan","n","3","html-keyboard-response","539","n","tindashan","true","","4"
"1583.6999999955297","","","","","3","html-slider-response","540","","","","2",""
"944","","","","","3","html-keyboard-response","541","","","","",""
"4904","bed","kalipay,mapintas,haraka,starehe","mapintas","v","3","html-keyboard-response","542","n","starehe","false","","4"
"1524.3999999985099","","","","","3","html-slider-response","543","","","","2",""
"1108","","","","","3","html-keyboard-response","544","","","","",""
"3144","tissue","lamigas,kisiwa,ugomvi,katika","ugomvi","j","3","html-keyboard-response","545","n","katika","false","","4"
"1574.0999999940395","","","","","3","html-slider-response","546","","","","4",""
"1232","","","","","3","html-keyboard-response","547","","","","",""
"4195","candle","geza,gabi,farasi,kupanda","geza","f","3","html-keyboard-response","548","f","geza","true","","4"
"2265.1999999955297","","","","","3","html-slider-response","549","","","","4",""
"953","","","","","3","html-keyboard-response","550","","","","",""
"5741","tomato","chupi,chupa,mvua,takatak","mvua","j","3","html-keyboard-response","551","j","mvua","true","","1"
"1898.6999999955297","","","","","3","html-slider-response","552","","","","5",""
"996","","","","","3","html-keyboard-response","553","","","","",""
"4796","list","alizeti,wingu,kuzama,kaso","wingu","v","3","html-keyboard-response","554","n","kaso","false","","4"
"2043.7999999970198","","","","","3","html-slider-response","555","","","","2",""
"916","","","","","3","html-keyboard-response","556","","","","",""
"4062","olive","jiwe,bata,siagi,welder","jiwe","f","3","html-keyboard-response","557","f","jiwe","true","","4"
"1609.1000000014901","","","","","3","html-slider-response","558","","","","5",""
"965","","","","","3","html-keyboard-response","559","","","","",""
"3291","picture","kubwa,silya,chaki,asin","kubwa","f","3","html-keyboard-response","560","f","kubwa","true","","1"
"3156","","","","","3","html-slider-response","561","","","","5",""
"844","","","","","3","html-keyboard-response","562","","","","",""
"4081","page","wimbo,wakala,ishiri,skina","wimbo","f","4","html-keyboard-response","888","f","wimbo","true","",""
"1858.1000000014901","","","","","4","html-slider-response","889","","","","4",""
"3041","sheet","juuya,bililhon,watu,kamantis","bililhon","v","4","html-keyboard-response","890","v","bililhon","true","",""
"2341.10000000149","","","","","4","html-slider-response","891","","","","5",""
"3190","ladder","pangalan,mashua,mwanga,kamba","pangalan","f","4","html-keyboard-response","892","f","pangalan","true","",""
"2011.7000000029802","","","","","4","html-slider-response","893","","","","5",""
"4049","door","surali,tena,soko,nyota","surali","f","4","html-keyboard-response","894","j","soko","false","",""
"1577.8999999985099","","","","","4","html-slider-response","895","","","","2",""
"2400","spider","bunyag,mkboa,kamwe,atop","kamwe","j","4","html-keyboard-response","896","j","kamwe","true","",""
"1850.5","","","","","4","html-slider-response","897","","","","5",""
"8237","picture","kubwa,silya,chaki,asin","kubwa","f","4","html-keyboard-response","898","f","kubwa","true","",""
"2391.39999999851","","","","","4","html-slider-response","899","","","","2",""
"3725","boat","hamsi,pombe,agalon,kitanda","agalon","j","4","html-keyboard-response","900","j","agalon","true","",""
"1717.1000000014901","","","","","4","html-slider-response","901","","","","5",""
"2811","donkey","elfu,bloke,lalake,rombus","elfu","f","4","html-keyboard-response","902","f","elfu","true","",""
"1610.7999999970198","","","","","4","html-slider-response","903","","","","5",""
"9093","book","kuhesa,picha,mali,mara","mali","j","4","html-keyboard-response","904","j","mali","true","",""
"1574.6000000014901","","","","","4","html-slider-response","905","","","","2",""
"4013","cup","dagat,matumai,shimoni,jeraha","matumai","v","4","html-keyboard-response","906","j","shimoni","false","",""
"1535.2000000029802","","","","","4","html-slider-response","907","","","","4",""
"2743","sun","basi,bendi,luha,uongo","basi","f","4","html-keyboard-response","908","f","basi","true","",""
"2520","","","","","4","html-slider-response","909","","","","5",""
"5787","pudding","abug,aibu,mpishi,iring","aibu","v","4","html-keyboard-response","910","v","aibu","true","",""
"1776","","","","","4","html-slider-response","911","","","","5",""
"4440","human","bado,kikapu,tinapay,punguza","tinapay","j","4","html-keyboard-response","912","j","tinapay","true","",""
"1765.1000000014901","","","","","4","html-slider-response","913","","","","5",""
"9397","squirrel","mahugaw,ukweli,kichwa,hofu","hofu","n","4","html-keyboard-response","914","v","ukweli","false","",""
"2629","","","","","4","html-slider-response","915","","","","3",""
"2146","park","bunifu,tambok,pwani,ihalas","bunifu","f","4","html-keyboard-response","916","f","bunifu","true","",""
"1956.6000000014901","","","","","4","html-slider-response","917","","","","5",""
"4886","poster","madungog,nchi,fedha,kasuko","madungog","f","4","html-keyboard-response","918","f","madungog","true","",""
"1647.6999999955297","","","","","4","html-slider-response","919","","","","5",""
"4681","wolf","kaburi,lugha,ndizi,mchuzi","lugha","v","4","html-keyboard-response","920","f","kaburi","false","",""
"1573.7999999970198","","","","","4","html-slider-response","921","","","","2",""
"5207","cat","neyemba,baki,akili,paghukom","paghukom","n","4","html-keyboard-response","922","n","paghukom","true","",""
"1759.8999999985099","","","","","4","html-slider-response","923","","","","5",""
"2175","fish","buli,bala,baho,imani","buli","f","4","html-keyboard-response","924","f","buli","true","",""
"1967.8000000044703","","","","","4","html-slider-response","925","","","","5",""
"3657","tooth","kijiko,kabalaka,uadui,pahiyum","kabalaka","v","4","html-keyboard-response","926","v","kabalaka","true","",""
"1712.6000000014901","","","","","4","html-slider-response","927","","","","5",""
"5762","cave","ganti,maisha,kesho,nyundo","kesho","j","4","html-keyboard-response","928","j","kesho","true","",""
"1382","","","","","4","html-slider-response","929","","","","2",""
"4050","lamp","daub,afya,bilaska,mbolea","afya","v","4","html-keyboard-response","930","v","afya","true","",""
"1826.2000000029802","","","","","4","html-slider-response","931","","","","5",""
"2203","banana","kasamok,hagdan,twai,kazi","kazi","n","4","html-keyboard-response","932","n","kazi","true","",""
"1464.5999999940395","","","","","4","html-slider-response","933","","","","5",""
"3989","bonfire","mwezi,mfuko,kusanya,goti","goti","n","4","html-keyboard-response","934","v","mfuko","false","",""
"2111.3000000044703","","","","","4","html-slider-response","935","","","","5",""
"4189","cop","bustani,mechezo,jikoni,bakus","mechezo","v","4","html-keyboard-response","936","v","mechezo","true","",""
"2171.7999999970198","","","","","4","html-slider-response","937","","","","4",""
"3981","marker","maji,mapafu,salita,atay","maji","f","4","html-keyboard-response","938","f","maji","true","",""
"1872.8000000044703","","","","","4","html-slider-response","939","","","","4",""
"4565","window","kweli,nanga,kujenga,umaga","kweli","f","4","html-keyboard-response","940","f","kweli","true","",""
"1820.3999999985099","","","","","4","html-slider-response","941","","","","2",""
"5875","body","nyundu,tindashan,jibini,kununa","tindashan","v","4","html-keyboard-response","942","v","tindashan","true","",""
"1503.3000000044703","","","","","4","html-slider-response","943","","","","1",""
"3844","apple","ukame,estante,edad,kisu","kisu","n","4","html-keyboard-response","944","n","kisu","true","",""
"1696.6000000014901","","","","","4","html-slider-response","945","","","","5",""
"2411","salmon","mzungu,sensilyo,seri,baharia","sensilyo","v","4","html-keyboard-response","946","v","sensilyo","true","",""
"1428.6000000014901","","","","","4","html-slider-response","947","","","","5",""
"4531","bed","kalipay,haraka,mapintas,starehe","mapintas","j","4","html-keyboard-response","948","j","mapintas","true","",""
"1868.7999999970198","","","","","4","html-slider-response","949","","","","4",""
"3176","berry","abogado,kofia,nogozi,kinywa","kofia","v","4","html-keyboard-response","950","v","kofia","true","",""
"1897.2000000029802","","","","","4","html-slider-response","951","","","","5",""
"5141","mirror","rangi,kanding,furaha,sulagma","sulagma","n","4","html-keyboard-response","952","n","sulagma","true","",""
"1955.1999999955297","","","","","4","html-slider-response","953","","","","2",""
"3284","flag","trekta,ndege,mkate,kawa","trekta","f","4","html-keyboard-response","954","f","trekta","true","",""
"1602.6000000014901","","","","","4","html-slider-response","955","","","","5",""
"3401","shoulder","mkuu,kelele,ndaniya,guruwe","mkuu","f","4","html-keyboard-response","956","f","mkuu","true","",""
"1741.8999999985099","","","","","4","html-slider-response","957","","","","5",""
"8505","tissue","lamigas,ugomvi,kisiwa,katika","ugomvi","v","4","html-keyboard-response","958","v","ugomvi","true","",""
"1326.2999999970198","","","","","4","html-slider-response","959","","","","4",""
"3646","notebook","kemia,msitu,kila,mdudu","kemia","f","4","html-keyboard-response","960","f","kemia","true","",""
"1551.1999999955297","","","","","4","html-slider-response","961","","","","5",""
"6081","snake","jansa,karon,pagtukod,mvringo","pagtukod","j","4","html-keyboard-response","962","j","pagtukod","true","",""
"2024.6000000014901","","","","","4","html-slider-response","963","","","","5",""
"2447","finger","simu,moyo,sufuria,lima","moyo","v","4","html-keyboard-response","964","v","moyo","true","",""
"2562.60000000149","","","","","4","html-slider-response","965","","","","5",""
"5824","basket","kumbuka,utepe,hasira,kumba","kumba","n","4","html-keyboard-response","966","f","kumbuka","false","",""
"2338.2000000029802","","","","","4","html-slider-response","967","","","","3",""
"5641","curtain","lisud,bulwawan,chubani,mchanga","mchanga","n","4","html-keyboard-response","968","n","mchanga","true","",""
"1604.1000000014901","","","","","4","html-slider-response","969","","","","5",""
"4455","perfume","bino,sungura,ndogo,katuyoan","katuyoan","n","4","html-keyboard-response","970","f","bino","false","",""
"1396","","","","","4","html-slider-response","971","","","","2",""
"6593","key","miaka,goma,chombo,ahos","chombo","j","4","html-keyboard-response","972","j","chombo","true","",""
"1542.7999999970198","","","","","4","html-slider-response","973","","","","5",""
"2806","olive","bata,siagi,welder,jiwe","jiwe","n","4","html-keyboard-response","974","n","jiwe","true","",""
"2062.5","","","","","4","html-slider-response","975","","","","5",""
"3154","rose","singizi,paghalad,mwanake,amani","paghalad","v","4","html-keyboard-response","976","v","paghalad","true","",""
"2774.6999999955297","","","","","4","html-slider-response","977","","","","3",""
"5826","bridge","daima,ngono,sahani,panya","sahani","j","4","html-keyboard-response","978","f","daima","false","",""
"1515.2000000029802","","","","","4","html-slider-response","979","","","","1",""
"4529","hill","kushoto,kukimba,sweta,matumbo","matumbo","n","4","html-keyboard-response","980","n","matumbo","true","",""
"1789.4000000059605","","","","","4","html-slider-response","981","","","","1",""
"6001","letter","filimbi,chuma,uhuru,kifua","kifua","n","4","html-keyboard-response","982","n","kifua","true","",""
"1333.6999999955297","","","","","4","html-slider-response","983","","","","4",""
"2793","sock","mamba,ndoora,kimysa,mtirka","mamba","f","4","html-keyboard-response","984","f","mamba","true","",""
"1734.6999999955297","","","","","4","html-slider-response","985","","","","5",""
"3801","fork","baboy,paghago,gorisi,mgonjwa","mgonjwa","n","4","html-keyboard-response","986","n","mgonjwa","true","",""
"1511.8999999985099","","","","","4","html-slider-response","987","","","","4",""
"2419","box","kuacha,rafiki,kitande,adui","adui","n","4","html-keyboard-response","988","n","adui","true","",""
"2215.60000000149","","","","","4","html-slider-response","989","","","","5",""
"1918","gift","pagtawag,baba,nyange,baso","pagtawag","f","4","html-keyboard-response","990","f","pagtawag","true","",""
"1634.2000000029802","","","","","4","html-slider-response","991","","","","5",""
"5040","bucket","kiatu,baga,ijayo,init","kiatu","f","4","html-keyboard-response","992","f","kiatu","true","",""
"1753.3999999985099","","","","","4","html-slider-response","993","","","","5",""
"6775","shop","nopya,kerida,samaki,ndezu","samaki","j","4","html-keyboard-response","994","j","samaki","true","",""
"1713","","","","","4","html-slider-response","995","","","","2",""
"2543","puppet","mazishi,napulo,lamok,godoro","mazishi","f","4","html-keyboard-response","996","f","mazishi","true","",""
"1524.3999999985099","","","","","4","html-slider-response","997","","","","5",""
"3475","nose","gubat,kopa,sehemu,kidole","sehemu","j","4","html-keyboard-response","998","j","sehemu","true","",""
"1911.8999999985099","","","","","4","html-slider-response","999","","","","5",""
"5325","music","mraba,mageho,tumbo,baiski","baiski","n","4","html-keyboard-response","1000","n","baiski","true","",""
"1567.5","","","","","4","html-slider-response","1001","","","","5",""
"4475","dog","lubi,bahari,washia,kalamu","bahari","v","4","html-keyboard-response","1002","f","lubi","false","",""
"2018.2999999970198","","","","","4","html-slider-response","1003","","","","2",""
"5800","eel","msumari,ishara,kunywa,kabuang","msumari","f","4","html-keyboard-response","1004","f","msumari","true","",""
"2355.7999999970198","","","","","4","html-slider-response","1005","","","","3",""
"4477","number","shule,kengele,mundamo,choori","mundamo","j","4","html-keyboard-response","1006","j","mundamo","true","",""
"1834.2999999970198","","","","","4","html-slider-response","1007","","","","4",""
"2071","tomato","chupi,chupa,mvua,takatak","mvua","j","4","html-keyboard-response","1008","j","mvua","true","",""
"1506.6000000014901","","","","","4","html-slider-response","1009","","","","5",""
"2888","coffin","barua,tubag,kioo,hulma","kioo","j","4","html-keyboard-response","1010","j","kioo","true","",""
"2007.0999999940395","","","","","4","html-slider-response","1011","","","","2",""
"4476","knee","duka,mvuke,kubale,bili","duka","f","4","html-keyboard-response","1012","f","duka","true","",""
"1785.8000000044703","","","","","4","html-slider-response","1013","","","","5",""
"2504","woman","bandari,bituin,kovuli,pagtabon","pagtabon","n","4","html-keyboard-response","1014","n","pagtabon","true","",""
"2037.5","","","","","4","html-slider-response","1015","","","","5",""
"3891","stone","ulimwengu,mkasi,wingi,asili","wingi","j","4","html-keyboard-response","1016","j","wingi","true","",""
"1870.3999999985099","","","","","4","html-slider-response","1017","","","","5",""
"5397","bread","dari,kaili,dizeli,bugas","dari","f","4","html-keyboard-response","1018","j","dizeli","false","",""
"1789","","","","","4","html-slider-response","1019","","","","4",""
"2439","triangle","kasadpan,kihozi,bentaha,liog","kasadpan","f","4","html-keyboard-response","1020","f","kasadpan","true","",""
"1818","","","","","4","html-slider-response","1021","","","","5",""
"3249","scissors","duga,mtawa,suga,tanuri","tanuri","n","4","html-keyboard-response","1022","f","duga","false","",""
"1440.7000000029802","","","","","4","html-slider-response","1023","","","","2",""
"6656","giraffe","daraja,mahitabo,jumatu,hangyo","mahitabo","v","4","html-keyboard-response","1024","v","mahitabo","true","",""
"2421.10000000149","","","","","4","html-slider-response","1025","","","","2",""
"2406","flower","tamasha,bega,lobo,usiku","bega","v","4","html-keyboard-response","1026","v","bega","true","",""
"2071.60000000149","","","","","4","html-slider-response","1027","","","","5",""
"1803","candle","geza,gabi,farasi,kupanda","geza","f","4","html-keyboard-response","1028","f","geza","true","",""
"1914.5","","","","","4","html-slider-response","1029","","","","5",""
"2159","mother","kahawa,mbuzi,jokofu,babaye","babaye","n","4","html-keyboard-response","1030","n","babaye","true","",""
"1966.8000000044703","","","","","4","html-slider-response","1031","","","","5",""
"3311","towel","tembo,pagpalit,funzi,pito","pagpalit","v","4","html-keyboard-response","1032","f","tembo","false","",""
"1487.1000000014901","","","","","4","html-slider-response","1033","","","","2",""
"2103","elephant","petye,pagduol,kito,suka","kito","j","4","html-keyboard-response","1034","j","kito","true","",""
"1777.8999999985099","","","","","4","html-slider-response","1035","","","","5",""
"7131","shelf","bungtod,pamahaw,kadaot,awit","pamahaw","v","4","html-keyboard-response","1036","v","pamahaw","true","",""
"1299.5","","","","","4","html-slider-response","1037","","","","2",""
"1961","mosquito","isda,taras,gutom,martilyo","martilyo","n","4","html-keyboard-response","1038","n","martilyo","true","",""
"1584.1999999955297","","","","","4","html-slider-response","1039","","","","5",""
"3411","column","pundok,ufagio,dila,pala","ufagio","v","4","html-keyboard-response","1040","j","dila","false","",""
"1745.7999999970198","","","","","4","html-slider-response","1041","","","","4",""
"4569","pants","haki,pintal,chuki,hari","haki","f","4","html-keyboard-response","1042","f","haki","true","",""
"1856.1000000014901","","","","","4","html-slider-response","1043","","","","4",""
"7224","list","alizeti,kuzama,kaso,wingu","wingu","n","4","html-keyboard-response","1044","n","wingu","true","",""
"1518","","","","","4","html-slider-response","1045","","","","2",""
"2325","bank","silingan,kudhibi,tualya,ofisi","silingan","f","4","html-keyboard-response","1046","f","silingan","true","",""
"1791.6000000014901","","","","","4","html-slider-response","1047","","","","5",""
"4373","clock","kartasi,abang,mbwa,osha","mbwa","j","4","html-keyboard-response","1048","j","mbwa","true","",""
"1635","","","","","4","html-slider-response","1049","","","","2",""
"2699","ceiling","kugita,kawaida,rayna,maua","maua","n","4","html-keyboard-response","1050","n","maua","true","",""
"1894.6000000014901","","","","","4","html-slider-response","1051","","","","5",""
"7419","train","itik,dakika,mungu,sayari","sayari","n","4","html-keyboard-response","1052","n","sayari","true","",""
"1724.6000000014901","","","","","4","html-slider-response","1053","","","","5",""
"2735","magazine","gundi,mchawi,kiti,bahandi","kiti","j","4","html-keyboard-response","1054","j","kiti","true","",""
"1694","","","","","4","html-slider-response","1055","","","","5",""
"1805","office","leso,hazini,yatima,kuna","leso","f","4","html-keyboard-response","1056","f","leso","true","",""
"1878.8999999985099","","","","","4","html-slider-response","1057","","","","5",""
"4455","wheel","bafuni,punda,tawo,baadaye","bafuni","f","4","html-keyboard-response","1058","f","bafuni","true","",""
"1767.1000000014901","","","","","4","html-slider-response","1059","","","","5",""
"3654","spoon","betri,nzuri,pagsulod,ngazi","pagsulod","j","4","html-keyboard-response","1060","j","pagsulod","true","",""
"1520.8000000044703","","","","","4","html-slider-response","1061","","","","2",""
"2482","hammer","mekno,napakyas,kitovu,layag","napakyas","v","4","html-keyboard-response","1062","v","napakyas","true","",""
"3412.3000000044703","","","","","4","html-slider-response","1063","","","","5",""
"3012","cigar","ndugu,kuta,adhabu,mlango","adhabu","j","4","html-keyboard-response","1064","v","kuta","false","",""
"1514.8999999985099","","","","","4","html-slider-response","1065","","","","2",""
"3514","shoe","uyoga,nyeusi,hatua,kama","uyoga","f","4","html-keyboard-response","1066","n","kama","false","",""
"2427.89999999851","","","","","4","html-slider-response","1067","","","","3",""
"14363","list","alizeti,wingu,kuzama,kaso","wingu","v","5","html-keyboard-response","1069","n","kaso","false","",""
"2658","","","","","5","html-slider-response","1070","","","","2",""
"2848","number","shule,kengele,choori,mundamo","mundamo","n","5","html-keyboard-response","1071","n","mundamo","true","",""
"1547.3999999985099","","","","","5","html-slider-response","1072","","","","4",""
"2037","apple","kisu,ukame,estante,edad","kisu","f","5","html-keyboard-response","1073","f","kisu","true","",""
"1623.2000000029802","","","","","5","html-slider-response","1074","","","","5",""
"2440","knee","mvuke,kubale,duka,bili","duka","j","5","html-keyboard-response","1075","j","duka","true","",""
"1645.2999999970198","","","","","5","html-slider-response","1076","","","","5",""
"2473","tooth","kijiko,uadui,pahiyum,kabalaka","kabalaka","n","5","html-keyboard-response","1077","n","kabalaka","true","",""
"1972.5","","","","","5","html-slider-response","1078","","","","5",""
"1837","berry","abogado,kofia,nogozi,kinywa","kofia","v","5","html-keyboard-response","1079","v","kofia","true","",""
"2027.8999999985099","","","","","5","html-slider-response","1080","","","","5",""
"3548","bridge","daima,ngono,sahani,panya","sahani","j","5","html-keyboard-response","1081","n","panya","false","",""
"2336.39999999851","","","","","5","html-slider-response","1082","","","","2",""
"3091","perfume","bino,sungura,ndogo,katuyoan","katuyoan","n","5","html-keyboard-response","1083","f","bino","false","",""
"1568.8999999985099","","","","","5","html-slider-response","1084","","","","2",""
"2359","ladder","pangalan,mashua,mwanga,kamba","pangalan","f","5","html-keyboard-response","1085","f","pangalan","true","",""
"1961.8999999985099","","","","","5","html-slider-response","1086","","","","5",""
"3074","pants","pintal,haki,chuki,hari","haki","v","5","html-keyboard-response","1087","n","hari","false","",""
"1542.1000000014901","","","","","5","html-slider-response","1088","","","","4",""
"1636","salmon","sensilyo,mzungu,seri,baharia","sensilyo","f","5","html-keyboard-response","1089","f","sensilyo","true","",""
"1735.7000000029802","","","","","5","html-slider-response","1090","","","","5",""
"3216","coffin","barua,tubag,kioo,hulma","kioo","j","5","html-keyboard-response","1091","j","kioo","true","",""
"3200.9000000059605","","","","","5","html-slider-response","1092","","","","2",""
"2048","park","tambok,pwani,bunifu,ihalas","bunifu","j","5","html-keyboard-response","1093","j","bunifu","true","",""
"1617.9000000059605","","","","","5","html-slider-response","1094","","","","5",""
"3171","giraffe","daraja,jumatu,hangyo,mahitabo","mahitabo","n","5","html-keyboard-response","1095","n","mahitabo","true","",""
"1890.5","","","","","5","html-slider-response","1096","","","","2",""
"3425","mirror","rangi,kanding,sulagma,furaha","sulagma","j","5","html-keyboard-response","1097","j","sulagma","true","",""
"2101.39999999851","","","","","5","html-slider-response","1098","","","","2",""
"1870","ceiling","kugita,kawaida,maua,rayna","maua","j","5","html-keyboard-response","1099","j","maua","true","",""
"1716.3999999985099","","","","","5","html-slider-response","1100","","","","5",""
"1951","marker","mapafu,salita,maji,atay","maji","j","5","html-keyboard-response","1101","j","maji","true","",""
"1486.8999999985099","","","","","5","html-slider-response","1102","","","","4",""
"2298","sock","mamba,ndoora,kimysa,mtirka","mamba","f","5","html-keyboard-response","1103","f","mamba","true","",""
"2033.5","","","","","5","html-slider-response","1104","","","","5",""
"2011","cop","bustani,jikoni,bakus,mechezo","mechezo","n","5","html-keyboard-response","1105","n","mechezo","true","",""
"1624.6999999955297","","","","","5","html-slider-response","1106","","","","5",""
"2057","gift","baba,pagtawag,nyange,baso","pagtawag","v","5","html-keyboard-response","1107","v","pagtawag","true","",""
"2454.5","","","","","5","html-slider-response","1108","","","","5",""
"2923","notebook","kemia,msitu,kila,mdudu","kemia","f","5","html-keyboard-response","1109","f","kemia","true","",""
"2611","","","","","5","html-slider-response","1110","","","","5",""
"2081","bank","kudhibi,silingan,tualya,ofisi","silingan","v","5","html-keyboard-response","1111","v","silingan","true","",""
"1659.5","","","","","5","html-slider-response","1112","","","","5",""
"5427","letter","kifua,filimbi,chuma,uhuru","kifua","f","5","html-keyboard-response","1113","j","chuma","false","",""
"2095.8000000044703","","","","","5","html-slider-response","1114","","","","2",""
"1807","candle","gabi,farasi,geza,kupanda","geza","j","5","html-keyboard-response","1115","j","geza","true","",""
"1761.7999999970198","","","","","5","html-slider-response","1116","","","","5",""
"4252","bread","kaili,dizeli,bugas,dari","dari","n","5","html-keyboard-response","1117","v","dizeli","false","",""
"2082.2999999970198","","","","","5","html-slider-response","1118","","","","4",""
"2748","snake","jansa,karon,mvringo,pagtukod","pagtukod","n","5","html-keyboard-response","1119","n","pagtukod","true","",""
"1697.1000000014901","","","","","5","html-slider-response","1120","","","","5",""
"2708","rose","singizi,mwanake,amani,paghalad","paghalad","n","5","html-keyboard-response","1121","n","paghalad","true","",""
"2711.5","","","","","5","html-slider-response","1122","","","","2",""
"3918","hill","kushoto,kukimba,sweta,matumbo","matumbo","n","5","html-keyboard-response","1123","n","matumbo","true","",""
"2443.89999999851","","","","","5","html-slider-response","1124","","","","2",""
"2718","train","itik,dakika,sayari,mungu","sayari","j","5","html-keyboard-response","1125","j","sayari","true","",""
"2194.60000000149","","","","","5","html-slider-response","1126","","","","5",""
"3859","shop","nopya,kerida,ndezu,samaki","samaki","n","5","html-keyboard-response","1127","v","kerida","false","",""
"1610","","","","","5","html-slider-response","1128","","","","4",""
"3042","nose","gubat,kopa,sehemu,kidole","sehemu","j","5","html-keyboard-response","1129","j","sehemu","true","",""
"1779.2000000029802","","","","","5","html-slider-response","1130","","","","5",""
"9165","boat","hamsi,pombe,kitanda,agalon","agalon","n","5","html-keyboard-response","1131","n","agalon","true","",""
"1524.6000000014901","","","","","5","html-slider-response","1132","","","","5",""
"5622","body","tindashan,nyundu,jibini,kununa","tindashan","f","5","html-keyboard-response","1133","f","tindashan","true","",""
"2922.5","","","","","5","html-slider-response","1134","","","","1",""
"4520","bed","kalipay,haraka,mapintas,starehe","mapintas","j","5","html-keyboard-response","1135","j","mapintas","true","",""
"1528.0999999940395","","","","","5","html-slider-response","1136","","","","2",""
"5498","squirrel","mahugaw,hofu,ukweli,kichwa","hofu","v","5","html-keyboard-response","1137","v","hofu","true","",""
"1499.2999999970198","","","","","5","html-slider-response","1138","","","","2",""
"10278","window","nanga,kweli,kujenga,umaga","kweli","v","5","html-keyboard-response","1139","v","kweli","true","",""
"1516.6000000014901","","","","","5","html-slider-response","1140","","","","2",""
"3750","bonfire","mwezi,mfuko,goti,kusanya","goti","j","5","html-keyboard-response","1141","v","mfuko","false","",""
"2085.8000000044703","","","","","5","html-slider-response","1142","","","","5",""
"1984","fish","bala,baho,imani,buli","buli","n","5","html-keyboard-response","1143","n","buli","true","",""
"1668.6000000014901","","","","","5","html-slider-response","1144","","","","5",""
"4293","cat","paghukom,neyemba,baki,akili","paghukom","f","5","html-keyboard-response","1145","f","paghukom","true","",""
"1871.9000000059605","","","","","5","html-slider-response","1146","","","","5",""
"2778","spider","bunyag,kamwe,mkboa,atop","kamwe","v","5","html-keyboard-response","1147","v","kamwe","true","",""
"1692.7000000029802","","","","","5","html-slider-response","1148","","","","5",""
"2615","eel","ishara,kunywa,kabuang,msumari","msumari","n","5","html-keyboard-response","1149","n","msumari","true","",""
"1568.2000000029802","","","","","5","html-slider-response","1150","","","","4",""
"2652","woman","pagtabon,bandari,bituin,kovuli","pagtabon","f","5","html-keyboard-response","1151","f","pagtabon","true","",""
"2890.7000000029802","","","","","5","html-slider-response","1152","","","","5",""
"1879","magazine","gundi,mchawi,kiti,bahandi","kiti","j","5","html-keyboard-response","1153","j","kiti","true","",""
"1919.6000000014901","","","","","5","html-slider-response","1154","","","","5",""
"3738","pudding","aibu,abug,mpishi,iring","aibu","f","5","html-keyboard-response","1155","f","aibu","true","",""
"2063.8000000044703","","","","","5","html-slider-response","1156","","","","5",""
"2173","lamp","daub,bilaska,afya,mbolea","afya","j","5","html-keyboard-response","1157","j","afya","true","",""
"1805.8999999985099","","","","","5","html-slider-response","1158","","","","5",""
"4187","cave","ganti,maisha,nyundo,kesho","kesho","n","5","html-keyboard-response","1159","n","kesho","true","",""
"2178.6999999955297","","","","","5","html-slider-response","1160","","","","1",""
"3143","shoulder","kelele,ndaniya,guruwe,mkuu","mkuu","n","5","html-keyboard-response","1161","n","mkuu","true","",""
"1588.7000000029802","","","","","5","html-slider-response","1162","","","","5",""
"3331","stone","ulimwengu,mkasi,asili,wingi","wingi","n","5","html-keyboard-response","1163","n","wingi","true","",""
"1505.3000000044703","","","","","5","html-slider-response","1164","","","","5",""
"2249","column","ufagio,pundok,dila,pala","ufagio","f","5","html-keyboard-response","1165","j","dila","false","",""
"1492.7999999970198","","","","","5","html-slider-response","1166","","","","5",""
"5204","page","wakala,wimbo,ishiri,skina","wimbo","v","5","html-keyboard-response","1167","n","skina","false","",""
"1893.2999999970198","","","","","5","html-slider-response","1168","","","","1",""
"2419","shoe","nyeusi,hatua,uyoga,kama","uyoga","j","5","html-keyboard-response","1169","n","kama","false","",""
"1420.7999999970198","","","","","5","html-slider-response","1170","","","","2",""
"4190","clock","kartasi,mbwa,abang,osha","mbwa","v","5","html-keyboard-response","1171","v","mbwa","true","",""
"1433.6000000014901","","","","","5","html-slider-response","1172","","","","4",""
"4119","towel","tembo,funzi,pito,pagpalit","pagpalit","n","5","html-keyboard-response","1173","f","tembo","false","",""
"1366.1000000014901","","","","","5","html-slider-response","1174","","","","1",""
"1745","tomato","chupi,chupa,mvua,takatak","mvua","j","5","html-keyboard-response","1175","j","mvua","true","",""
"1579.3999999985099","","","","","5","html-slider-response","1176","","","","5",""
"5593","bucket","baga,ijayo,init,kiatu","kiatu","n","5","html-keyboard-response","1177","n","kiatu","true","",""
"1217.5","","","","","5","html-slider-response","1178","","","","4",""
"2023","finger","simu,sufuria,lima,moyo","moyo","n","5","html-keyboard-response","1179","n","moyo","true","",""
"1667.2999999970198","","","","","5","html-slider-response","1180","","","","5",""
"2107","mother","babaye,kahawa,mbuzi,jokofu","babaye","f","5","html-keyboard-response","1181","f","babaye","true","",""
"2166.10000000149","","","","","5","html-slider-response","1182","","","","5",""
"3191","human","bado,tinapay,kikapu,punguza","tinapay","v","5","html-keyboard-response","1183","v","tinapay","true","",""
"2112.8000000044703","","","","","5","html-slider-response","1184","","","","5",""
"2485","sun","bendi,luha,uongo,basi","basi","n","5","html-keyboard-response","1185","n","basi","true","",""
"1703.7000000029802","","","","","5","html-slider-response","1186","","","","5",""
"2607","fork","baboy,paghago,gorisi,mgonjwa","mgonjwa","n","5","html-keyboard-response","1187","n","mgonjwa","true","",""
"1486.3999999985099","","","","","5","html-slider-response","1188","","","","4",""
"2296","donkey","bloke,elfu,lalake,rombus","elfu","v","5","html-keyboard-response","1189","v","elfu","true","",""
"2557.4000000059605","","","","","5","html-slider-response","1190","","","","5",""
"3402","wolf","kaburi,lugha,ndizi,mchuzi","lugha","v","5","html-keyboard-response","1191","f","kaburi","false","",""
"1633.8999999985099","","","","","5","html-slider-response","1192","","","","1",""
"1883","cigar","ndugu,kuta,mlango,adhabu","adhabu","n","5","html-keyboard-response","1193","v","kuta","false","",""
"1425.7000000029802","","","","","5","html-slider-response","1194","","","","2",""
"3389","olive","jiwe,bata,siagi,welder","jiwe","f","5","html-keyboard-response","1195","f","jiwe","true","",""
"1762","","","","","5","html-slider-response","1196","","","","5",""
"4673","key","chombo,miaka,goma,ahos","chombo","f","5","html-keyboard-response","1197","f","chombo","true","",""
"1795","","","","","5","html-slider-response","1198","","","","4",""
"4670","door","tena,surali,soko,nyota","surali","v","5","html-keyboard-response","1199","v","surali","true","",""
"2173.39999999851","","","","","5","html-slider-response","1200","","","","1",""
"4634","wheel","bafuni,punda,tawo,baadaye","bafuni","f","5","html-keyboard-response","1201","f","bafuni","true","",""
"1746.8999999985099","","","","","5","html-slider-response","1202","","","","5",""
"4718","basket","kumbuka,utepe,hasira,kumba","kumba","n","5","html-keyboard-response","1203","v","utepe","false","",""
"1478.7999999970198","","","","","5","html-slider-response","1204","","","","2",""
"2113","elephant","kito,petye,pagduol,suka","kito","f","5","html-keyboard-response","1205","f","kito","true","",""
"1954.8999999985099","","","","","5","html-slider-response","1206","","","","5",""
"1631","office","hazini,leso,yatima,kuna","leso","v","5","html-keyboard-response","1207","v","leso","true","",""
"1709.1000000014901","","","","","5","html-slider-response","1208","","","","5",""
"3724","music","mraba,baiski,mageho,tumbo","baiski","v","5","html-keyboard-response","1209","v","baiski","true","",""
"2914.6999999955297","","","","","5","html-slider-response","1210","","","","5",""
"5032","tissue","lamigas,kisiwa,katika,ugomvi","ugomvi","n","5","html-keyboard-response","1211","n","ugomvi","true","",""
"1270.2000000029802","","","","","5","html-slider-response","1212","","","","4",""
"4320","curtain","lisud,mchanga,bulwawan,chubani","mchanga","v","5","html-keyboard-response","1213","v","mchanga","true","",""
"1647.5","","","","","5","html-slider-response","1214","","","","2",""
"2134","flag","ndege,mkate,trekta,kawa","trekta","j","5","html-keyboard-response","1215","j","trekta","true","",""
"1805.1000000014901","","","","","5","html-slider-response","1216","","","","5",""
"3684","dog","lubi,washia,kalamu,bahari","bahari","n","5","html-keyboard-response","1217","f","lubi","false","",""
"1660.8999999985099","","","","","5","html-slider-response","1218","","","","2",""
"6690","cup","dagat,shimoni,jeraha,matumai","matumai","n","5","html-keyboard-response","1219","j","jeraha","false","",""
"1693.8999999985099","","","","","5","html-slider-response","1220","","","","2",""
"2424","sheet","juuya,watu,kamantis,bililhon","bililhon","n","5","html-keyboard-response","1221","n","bililhon","true","",""
"1562.2999999970198","","","","","5","html-slider-response","1222","","","","5",""
"2468","spoon","betri,nzuri,ngazi,pagsulod","pagsulod","n","5","html-keyboard-response","1223","n","pagsulod","true","",""
"2165.60000000149","","","","","5","html-slider-response","1224","","","","4",""
"1968","flower","bega,tamasha,lobo,usiku","bega","f","5","html-keyboard-response","1225","f","bega","true","",""
"1611.6000000014901","","","","","5","html-slider-response","1226","","","","5",""
"7474","picture","silya,chaki,kubwa,asin","kubwa","j","5","html-keyboard-response","1227","f","silya","false","",""
"2266.9000000059605","","","","","5","html-slider-response","1228","","","","1",""
"2424","puppet","mazishi,napulo,lamok,godoro","mazishi","f","5","html-keyboard-response","1229","f","mazishi","true","",""
"2111.0999999940395","","","","","5","html-slider-response","1230","","","","5",""
"2954","banana","kazi,kasamok,hagdan,twai","kazi","f","5","html-keyboard-response","1231","f","kazi","true","",""
"1800.7999999970198","","","","","5","html-slider-response","1232","","","","5",""
"4878","book","kuhesa,picha,mali,mara","mali","j","5","html-keyboard-response","1233","n","mara","false","",""
"1718.2000000029802","","","","","5","html-slider-response","1234","","","","2",""
"2998","triangle","kihozi,bentaha,liog,kasadpan","kasadpan","n","5","html-keyboard-response","1235","n","kasadpan","true","",""
"1668.1000000014901","","","","","5","html-slider-response","1236","","","","5",""
"5729","poster","madungog,nchi,fedha,kasuko","madungog","f","5","html-keyboard-response","1237","j","fedha","false","",""
"2073.1999999955297","","","","","5","html-slider-response","1238","","","","2",""
"2864","box","kuacha,rafiki,adui,kitande","adui","j","5","html-keyboard-response","1239","j","adui","true","",""
"1755","","","","","5","html-slider-response","1240","","","","5",""
"1872","mosquito","martilyo,isda,taras,gutom","martilyo","f","5","html-keyboard-response","1241","f","martilyo","true","",""
"1805.6000000014901","","","","","5","html-slider-response","1242","","","","5",""
"5065","shelf","bungtod,kadaot,pamahaw,awit","pamahaw","j","5","html-keyboard-response","1243","j","pamahaw","true","",""
"1557.1000000014901","","","","","5","html-slider-response","1244","","","","5",""
"3279","scissors","tanuri,duga,mtawa,suga","tanuri","f","5","html-keyboard-response","1245","j","mtawa","false","",""
"1722.8000000044703","","","","","5","html-slider-response","1246","","","","2",""
"2143","hammer","napakyas,mekno,kitovu,layag","napakyas","f","5","html-keyboard-response","1247","f","napakyas","true","",""
"1770.2999999970198","","","","","5","html-slider-response","1248","","","","5",""
