"rt","en_word","options","swa_word","correct_answer","phase","trial_type","trial_index","input_answer","input_word","accuracy","certainty","amt_choices"
"5074","bonfire","mwezi,mfuko,goti,kusanya","goti","j","2","html-keyboard-response","106","j","goti","true","",""
"1963.2999999970198","","","","","2","html-slider-response","107","","","","2",""
"3152","flower","bega,tamasha,lobo,usiku","bega","f","2","html-keyboard-response","108","f","bega","true","",""
"1669.7000000029802","","","","","2","html-slider-response","109","","","","2",""
"3495","column","pundok,ufagio,dila,pala","ufagio","v","2","html-keyboard-response","110","v","ufagio","true","",""
"1347.8999999910593","","","","","2","html-slider-response","111","","","","1",""
"3534","music","baiski,mraba,mageho,tumbo","baiski","f","2","html-keyboard-response","112","n","tumbo","false","",""
"1270.2000000029802","","","","","2","html-slider-response","113","","","","2",""
"2281","spider","bunyag,kamwe,mkboa,atop","kamwe","v","2","html-keyboard-response","114","n","atop","false","",""
"1113","","","","","2","html-slider-response","115","","","","2",""
"3399","fork","baboy,paghago,gorisi,mgonjwa","mgonjwa","n","2","html-keyboard-response","116","n","mgonjwa","true","",""
"1724.2999999970198","","","","","2","html-slider-response","117","","","","4",""
"3420","mosquito","isda,taras,gutom,martilyo","martilyo","n","2","html-keyboard-response","118","n","martilyo","true","",""
"1632.0999999940395","","","","","2","html-slider-response","119","","","","2",""
"2328","banana","kazi,kasamok,hagdan,twai","kazi","f","2","html-keyboard-response","120","f","kazi","true","",""
"1633.7000000029802","","","","","2","html-slider-response","121","","","","4",""
"2535","cup","matumai,dagat,shimoni,jeraha","matumai","f","2","html-keyboard-response","122","v","dagat","false","",""
"2102.0999999940395","","","","","2","html-slider-response","123","","","","2",""
"5342","shop","nopya,kerida,samaki,ndezu","samaki","j","2","html-keyboard-response","124","j","samaki","true","",""
"1491.5","","","","","2","html-slider-response","125","","","","5",""
"2948","elephant","petye,kito,pagduol,suka","kito","v","2","html-keyboard-response","126","v","kito","true","",""
"1217","","","","","2","html-slider-response","127","","","","5",""
"4831","bucket","baga,kiatu,ijayo,init","kiatu","v","2","html-keyboard-response","128","v","kiatu","true","",""
"8308.70000000298","","","","","2","html-slider-response","129","","","","2",""
"3349","book","kuhesa,picha,mali,mara","mali","j","2","html-keyboard-response","130","j","mali","true","",""
"1603.7999999970198","","","","","2","html-slider-response","131","","","","5",""
"4403","mirror","sulagma,rangi,kanding,furaha","sulagma","f","2","html-keyboard-response","132","f","sulagma","true","",""
"2140.7000000029802","","","","","2","html-slider-response","133","","","","4",""
"2958","office","hazini,yatima,kuna,leso","leso","n","2","html-keyboard-response","134","n","leso","true","",""
"1257.199999988079","","","","","2","html-slider-response","135","","","","5",""
"3019","body","nyundu,jibini,kununa,tindashan","tindashan","n","2","html-keyboard-response","136","n","tindashan","true","",""
"1153.8999999910593","","","","","2","html-slider-response","137","","","","2",""
"3689","perfume","bino,sungura,ndogo,katuyoan","katuyoan","n","2","html-keyboard-response","138","n","katuyoan","true","",""
"1184.2000000029802","","","","","2","html-slider-response","139","","","","2",""
"3518","olive","bata,siagi,welder,jiwe","jiwe","n","2","html-keyboard-response","140","n","jiwe","true","",""
"1294.6000000089407","","","","","2","html-slider-response","141","","","","2",""
"2597","magazine","kiti,gundi,mchawi,bahandi","kiti","f","2","html-keyboard-response","142","f","kiti","true","",""
"1177.0999999940395","","","","","2","html-slider-response","143","","","","5",""
"4116","bread","kaili,dizeli,dari,bugas","dari","j","2","html-keyboard-response","144","f","kaili","false","",""
"2068.9000000059605","","","","","2","html-slider-response","145","","","","1",""
"3348","cave","kesho,ganti,maisha,nyundo","kesho","f","2","html-keyboard-response","146","v","ganti","false","",""
"1978.8999999910593","","","","","2","html-slider-response","147","","","","1",""
"3412","ladder","mashua,mwanga,kamba,pangalan","pangalan","n","2","html-keyboard-response","148","n","pangalan","true","",""
"1119.5999999940395","","","","","2","html-slider-response","149","","","","2",""
"5618","human","tinapay,bado,kikapu,punguza","tinapay","f","2","html-keyboard-response","150","v","bado","false","",""
"2446.7000000029802","","","","","2","html-slider-response","151","","","","1",""
"4102","clock","kartasi,abang,osha,mbwa","mbwa","n","2","html-keyboard-response","152","n","mbwa","true","",""
"2754.6000000089407","","","","","2","html-slider-response","153","","","","2",""
"2908","shelf","bungtod,kadaot,pamahaw,awit","pamahaw","j","2","html-keyboard-response","154","n","awit","false","",""
"1384.9000000059605","","","","","2","html-slider-response","155","","","","2",""
"4511","salmon","mzungu,sensilyo,seri,baharia","sensilyo","v","2","html-keyboard-response","156","j","seri","false","",""
"2936.800000011921","","","","","2","html-slider-response","157","","","","1",""
"4887","coffin","kioo,barua,tubag,hulma","kioo","f","2","html-keyboard-response","158","f","kioo","true","",""
"1225.7000000029802","","","","","2","html-slider-response","159","","","","2",""
"3855","notebook","kemia,msitu,kila,mdudu","kemia","f","2","html-keyboard-response","160","v","msitu","false","",""
"1298.8999999910593","","","","","2","html-slider-response","161","","","","1",""
"3053","shoulder","kelele,ndaniya,mkuu,guruwe","mkuu","j","2","html-keyboard-response","162","v","ndaniya","false","",""
"1448.7999999970198","","","","","2","html-slider-response","163","","","","1",""
"3679","park","tambok,pwani,ihalas,bunifu","bunifu","n","2","html-keyboard-response","164","f","tambok","false","",""
"1257","","","","","2","html-slider-response","165","","","","1",""
"2710","number","shule,kengele,mundamo,choori","mundamo","j","2","html-keyboard-response","166","v","kengele","false","",""
"1742.5999999940395","","","","","2","html-slider-response","167","","","","1",""
"4084","apple","kisu,ukame,estante,edad","kisu","f","2","html-keyboard-response","168","f","kisu","true","",""
"1631.7000000029802","","","","","2","html-slider-response","169","","","","4",""
"6297","letter","kifua,filimbi,chuma,uhuru","kifua","f","2","html-keyboard-response","170","n","uhuru","false","",""
"1305.7000000029802","","","","","2","html-slider-response","171","","","","1",""
"2868","eel","ishara,msumari,kunywa,kabuang","msumari","v","2","html-keyboard-response","172","f","ishara","false","",""
"1547.7999999970198","","","","","2","html-slider-response","173","","","","1",""
"2488","cop","bustani,mechezo,jikoni,bakus","mechezo","v","2","html-keyboard-response","174","f","bustani","false","",""
"1187","","","","","2","html-slider-response","175","","","","1",""
"2991","wolf","kaburi,ndizi,mchuzi,lugha","lugha","n","2","html-keyboard-response","176","v","ndizi","false","",""
"1673.9000000059605","","","","","2","html-slider-response","177","","","","1",""
"3010","squirrel","mahugaw,ukweli,kichwa,hofu","hofu","n","2","html-keyboard-response","178","j","kichwa","false","",""
"1255.300000011921","","","","","2","html-slider-response","179","","","","2",""
"3382","nose","gubat,sehemu,kopa,kidole","sehemu","v","2","html-keyboard-response","180","j","kopa","false","",""
"1189.7999999970198","","","","","2","html-slider-response","181","","","","1",""
"9526","sock","mamba,ndoora,kimysa,mtirka","mamba","f","2","html-keyboard-response","182","f","mamba","true","",""
"1307.699999988079","","","","","2","html-slider-response","183","","","","1",""
"6666","bank","kudhibi,tualya,silingan,ofisi","silingan","j","2","html-keyboard-response","184","n","ofisi","false","",""
"1356.7000000029802","","","","","2","html-slider-response","185","","","","1",""
"6408","donkey","bloke,elfu,lalake,rombus","elfu","v","2","html-keyboard-response","186","j","lalake","false","",""
"1266.5","","","","","2","html-slider-response","187","","","","1",""
"2702","poster","nchi,fedha,kasuko,madungog","madungog","n","2","html-keyboard-response","188","f","nchi","false","",""
"1444.3999999910593","","","","","2","html-slider-response","189","","","","1",""
"2937","puppet","napulo,mazishi,lamok,godoro","mazishi","v","2","html-keyboard-response","190","f","napulo","false","",""
"1089.800000011921","","","","","2","html-slider-response","191","","","","1",""
"2370","hill","kushoto,matumbo,kukimba,sweta","matumbo","v","2","html-keyboard-response","192","v","matumbo","true","",""
"2918","","","","","2","html-slider-response","193","","","","1",""
"8945","tooth","kabalaka,kijiko,uadui,pahiyum","kabalaka","f","2","html-keyboard-response","194","v","kijiko","false","",""
"1250.7000000029802","","","","","2","html-slider-response","195","","","","1",""
"2721","woman","pagtabon,bandari,bituin,kovuli","pagtabon","f","2","html-keyboard-response","196","f","pagtabon","true","",""
"1451.9000000059605","","","","","2","html-slider-response","197","","","","1",""
"4995","wheel","punda,tawo,bafuni,baadaye","bafuni","j","2","html-keyboard-response","198","v","tawo","false","",""
"1317.6000000089407","","","","","2","html-slider-response","199","","","","1",""
"3060","mother","babaye,kahawa,mbuzi,jokofu","babaye","f","2","html-keyboard-response","200","f","babaye","true","",""
"1194.7000000029802","","","","","2","html-slider-response","201","","","","1",""
"3318","bed","kalipay,mapintas,haraka,starehe","mapintas","v","2","html-keyboard-response","202","j","haraka","false","",""
"1407.5","","","","","2","html-slider-response","203","","","","1",""
"3218","key","miaka,goma,ahos,chombo","chombo","n","2","html-keyboard-response","204","n","chombo","true","",""
"1475","","","","","2","html-slider-response","205","","","","1",""
"2058","page","wimbo,wakala,ishiri,skina","wimbo","f","2","html-keyboard-response","206","n","skina","false","",""
"1606.7000000029802","","","","","2","html-slider-response","207","","","","1",""
"4270","pants","pintal,chuki,hari,haki","haki","n","2","html-keyboard-response","208","j","hari","false","",""
"1224.7000000029802","","","","","2","html-slider-response","209","","","","1",""
"3145","sun","bendi,luha,basi,uongo","basi","j","2","html-keyboard-response","210","f","bendi","false","",""
"1137.4000000059605","","","","","2","html-slider-response","211","","","","1",""
"3893","finger","simu,sufuria,moyo,lima","moyo","j","2","html-keyboard-response","212","j","moyo","true","",""
"1030","","","","","2","html-slider-response","213","","","","2",""
"3413","shoe","uyoga,nyeusi,hatua,kama","uyoga","f","2","html-keyboard-response","214","f","uyoga","true","",""
"1059.6000000089407","","","","","2","html-slider-response","215","","","","1",""
"5676","giraffe","daraja,jumatu,mahitabo,hangyo","mahitabo","j","2","html-keyboard-response","216","j","mahitabo","true","",""
"1247.6000000089407","","","","","2","html-slider-response","217","","","","2",""
"1765","dog","lubi,bahari,washia,kalamu","bahari","v","2","html-keyboard-response","218","n","kalamu","false","",""
"1599.0999999940395","","","","","2","html-slider-response","219","","","","1",""
"3330","box","kuacha,rafiki,kitande,adui","adui","n","2","html-keyboard-response","220","v","rafiki","false","",""
"1283.7999999970198","","","","","2","html-slider-response","221","","","","1",""
"3604","scissors","duga,mtawa,suga,tanuri","tanuri","n","2","html-keyboard-response","222","j","suga","false","",""
"1631.7000000029802","","","","","2","html-slider-response","223","","","","2",""
"2766","cat","neyemba,baki,paghukom,akili","paghukom","j","2","html-keyboard-response","224","v","baki","false","",""
"1730.5","","","","","2","html-slider-response","225","","","","2",""
"3077","basket","kumbuka,utepe,kumba,hasira","kumba","j","2","html-keyboard-response","226","v","utepe","false","",""
"1135.6000000089407","","","","","2","html-slider-response","227","","","","1",""
"3097","snake","jansa,pagtukod,karon,mvringo","pagtukod","v","2","html-keyboard-response","228","v","pagtukod","true","",""
"1456","","","","","2","html-slider-response","229","","","","5",""
"2165","gift","baba,pagtawag,nyange,baso","pagtawag","v","2","html-keyboard-response","230","v","pagtawag","true","",""
"1100.2000000029802","","","","","2","html-slider-response","231","","","","5",""
"2939","train","itik,dakika,sayari,mungu","sayari","j","2","html-keyboard-response","232","f","itik","false","",""
"1597","","","","","2","html-slider-response","233","","","","1",""
"2794","pudding","aibu,abug,mpishi,iring","aibu","f","2","html-keyboard-response","234","v","abug","false","",""
"1629.5","","","","","2","html-slider-response","235","","","","1",""
"2907","tomato","chupi,mvua,chupa,takatak","mvua","v","2","html-keyboard-response","236","j","chupa","false","",""
"1686.6000000089407","","","","","2","html-slider-response","237","","","","1",""
"3199","stone","wingi,ulimwengu,mkasi,asili","wingi","f","2","html-keyboard-response","238","f","wingi","true","",""
"1557.8999999910593","","","","","2","html-slider-response","239","","","","1",""
"2423","hammer","mekno,kitovu,layag,napakyas","napakyas","n","2","html-keyboard-response","240","f","mekno","false","",""
"1830.9000000059605","","","","","2","html-slider-response","241","","","","1",""
"2150","knee","mvuke,kubale,bili,duka","duka","n","2","html-keyboard-response","242","v","kubale","false","",""
"1212.4000000059605","","","","","2","html-slider-response","243","","","","1",""
"1842","ceiling","kugita,maua,kawaida,rayna","maua","v","2","html-keyboard-response","244","f","kugita","false","",""
"1633","","","","","2","html-slider-response","245","","","","1",""
"3059","spoon","pagsulod,betri,nzuri,ngazi","pagsulod","f","2","html-keyboard-response","246","n","ngazi","false","",""
"1164.300000011921","","","","","2","html-slider-response","247","","","","1",""
"4287","marker","mapafu,salita,atay,maji","maji","n","2","html-keyboard-response","248","j","atay","false","",""
"1065.199999988079","","","","","2","html-slider-response","249","","","","1",""
"2714","candle","geza,gabi,farasi,kupanda","geza","f","2","html-keyboard-response","250","f","geza","true","",""
"1168.7000000029802","","","","","2","html-slider-response","251","","","","1",""
"2345","tissue","lamigas,kisiwa,ugomvi,katika","ugomvi","j","2","html-keyboard-response","252","f","lamigas","false","",""
"1177.9000000059605","","","","","2","html-slider-response","253","","","","1",""
"3167","bridge","daima,ngono,panya,sahani","sahani","n","2","html-keyboard-response","254","v","ngono","false","",""
"1065.699999988079","","","","","2","html-slider-response","255","","","","1",""
"2840","berry","kofia,abogado,nogozi,kinywa","kofia","f","2","html-keyboard-response","256","j","nogozi","false","",""
"1365.5999999940395","","","","","2","html-slider-response","257","","","","1",""
"2229","triangle","kihozi,bentaha,kasadpan,liog","kasadpan","j","2","html-keyboard-response","258","n","liog","false","",""
"1352.8999999910593","","","","","2","html-slider-response","259","","","","1",""
"2953","door","tena,soko,nyota,surali","surali","n","2","html-keyboard-response","260","v","soko","false","",""
"1729.7999999970198","","","","","2","html-slider-response","261","","","","2",""
"3948","fish","bala,baho,imani,buli","buli","n","2","html-keyboard-response","262","n","buli","true","",""
"1683.8999999910593","","","","","2","html-slider-response","263","","","","4",""
"3672","curtain","lisud,bulwawan,mchanga,chubani","mchanga","j","2","html-keyboard-response","264","n","chubani","false","",""
"1652.2000000029802","","","","","2","html-slider-response","265","","","","2",""
"2978","flag","ndege,mkate,kawa,trekta","trekta","n","2","html-keyboard-response","266","f","ndege","false","",""
"1194.8999999910593","","","","","2","html-slider-response","267","","","","1",""
"2175","boat","hamsi,pombe,kitanda,agalon","agalon","n","2","html-keyboard-response","268","f","hamsi","false","",""
"1127.8999999910593","","","","","2","html-slider-response","269","","","","1",""
"1862","rose","singizi,paghalad,mwanake,amani","paghalad","v","2","html-keyboard-response","270","n","amani","false","",""
"1191.2000000029802","","","","","2","html-slider-response","271","","","","1",""
"2169","lamp","daub,bilaska,mbolea,afya","afya","n","2","html-keyboard-response","272","n","afya","true","",""
"1184.7000000029802","","","","","2","html-slider-response","273","","","","1",""
"2469","cigar","adhabu,ndugu,kuta,mlango","adhabu","f","2","html-keyboard-response","274","v","ndugu","false","",""
"1094","","","","","2","html-slider-response","275","","","","2",""
"2204","list","alizeti,wingu,kuzama,kaso","wingu","v","2","html-keyboard-response","276","n","kaso","false","",""
"1049.8999999910593","","","","","2","html-slider-response","277","","","","2",""
"2860","sheet","juuya,bililhon,watu,kamantis","bililhon","v","2","html-keyboard-response","278","v","bililhon","true","",""
"1818.9000000059605","","","","","2","html-slider-response","279","","","","1",""
"3209","picture","silya,chaki,kubwa,asin","kubwa","j","2","html-keyboard-response","280","n","asin","false","",""
"1163.5999999940395","","","","","2","html-slider-response","281","","","","1",""
"2247","towel","tembo,funzi,pito,pagpalit","pagpalit","n","2","html-keyboard-response","282","f","tembo","false","",""
"1336.9000000059605","","","","","2","html-slider-response","283","","","","1",""
"2929","window","nanga,kujenga,umaga,kweli","kweli","n","2","html-keyboard-response","284","v","kujenga","false","",""
"1002.9000000059605","","","","","2","html-slider-response","285","","","","1",""
"5713","box","kuacha,rafiki,kitande,adui","adui","n","3","html-keyboard-response","293","v","rafiki","false","","4"
"3337.800000011921","","","","","3","html-slider-response","294","","","","1",""
"3982","","","","","3","html-keyboard-response","295","","","","",""
"3416","pants","pintal,haki,chuki,hari","haki","v","3","html-keyboard-response","296","f","pintal","false","","4"
"1833.7999999970198","","","","","3","html-slider-response","297","","","","1",""
"2708","","","","","3","html-keyboard-response","298","","","","",""
"2886","cup","dagat,shimoni,matumai,jeraha","matumai","j","3","html-keyboard-response","299","f","dagat","false","","4"
"1678","","","","","3","html-slider-response","300","","","","1",""
"2969","","","","","3","html-keyboard-response","301","","","","",""
"2649","triangle","kihozi,bentaha,kasadpan,liog","kasadpan","j","3","html-keyboard-response","302","n","liog","false","","4"
"1234","","","","","3","html-slider-response","303","","","","1",""
"2641","","","","","3","html-keyboard-response","304","","","","",""
"2226","curtain","lisud,mchanga,bulwawan,chubani","mchanga","v","3","html-keyboard-response","305","v","mchanga","true","","4"
"1395.300000011921","","","","","3","html-slider-response","306","","","","1",""
"2152","","","","","3","html-keyboard-response","307","","","","",""
"2663","clock","kartasi,abang,osha,mbwa","mbwa","n","3","html-keyboard-response","308","f","kartasi","false","","4"
"1307.300000011921","","","","","3","html-slider-response","309","","","","1",""
"2420","","","","","3","html-keyboard-response","310","","","","",""
"4027","mirror","sulagma,rangi,kanding,furaha","sulagma","f","3","html-keyboard-response","311","f","sulagma","true","","4"
"1434.8999999910593","","","","","3","html-slider-response","312","","","","5",""
"1307","","","","","3","html-keyboard-response","313","","","","",""
"2352","coffin","barua,kioo,tubag,hulma","kioo","v","3","html-keyboard-response","314","v","kioo","true","","1"
"2003.5","","","","","3","html-slider-response","315","","","","5",""
"1188","","","","","3","html-keyboard-response","316","","","","",""
"3421","magazine","gundi,kiti,mchawi,bahandi","kiti","v","3","html-keyboard-response","317","v","kiti","true","","4"
"2105.8999999910593","","","","","3","html-slider-response","318","","","","5",""
"896","","","","","3","html-keyboard-response","319","","","","",""
"2537","column","ufagio,pundok,dila,pala","ufagio","f","3","html-keyboard-response","320","f","ufagio","true","","1"
"1990.699999988079","","","","","3","html-slider-response","321","","","","5",""
"838","","","","","3","html-keyboard-response","322","","","","",""
"3180","number","shule,kengele,choori,mundamo","mundamo","n","3","html-keyboard-response","323","v","kengele","false","","4"
"2936.9000000059605","","","","","3","html-slider-response","324","","","","1",""
"2204","","","","","3","html-keyboard-response","325","","","","",""
"2349","rose","paghalad,singizi,mwanake,amani","paghalad","f","3","html-keyboard-response","326","n","amani","false","","4"
"1549.4000000059605","","","","","3","html-slider-response","327","","","","1",""
"1854","","","","","3","html-keyboard-response","328","","","","",""
"4295","eel","ishara,kunywa,msumari,kabuang","msumari","j","3","html-keyboard-response","329","f","ishara","false","","4"
"1972.5","","","","","3","html-slider-response","330","","","","2",""
"3183","","","","","3","html-keyboard-response","331","","","","",""
"2228","gift","baba,pagtawag,nyange,baso","pagtawag","v","3","html-keyboard-response","332","v","pagtawag","true","","4"
"1492.3999999910593","","","","","3","html-slider-response","333","","","","5",""
"1225","","","","","3","html-keyboard-response","334","","","","",""
"1791","apple","ukame,kisu,estante,edad","kisu","v","3","html-keyboard-response","335","v","kisu","true","","1"
"2237.7999999970198","","","","","3","html-slider-response","336","","","","5",""
"687","","","","","3","html-keyboard-response","337","","","","",""
"1719","wheel","punda,bafuni,tawo,baadaye","bafuni","v","3","html-keyboard-response","338","v","bafuni","true","","1"
"2173","","","","","3","html-slider-response","339","","","","5",""
"1095","","","","","3","html-keyboard-response","340","","","","",""
"4086","knee","mvuke,duka,kubale,bili","duka","v","3","html-keyboard-response","341","n","bili","false","","4"
"1753","","","","","3","html-slider-response","342","","","","1",""
"2208","","","","","3","html-keyboard-response","343","","","","",""
"2126","basket","kumbuka,kumba,utepe,hasira","kumba","v","3","html-keyboard-response","344","v","kumba","true","","1"
"1999.7000000029802","","","","","3","html-slider-response","345","","","","5",""
"816","","","","","3","html-keyboard-response","346","","","","",""
"2752","park","tambok,bunifu,pwani,ihalas","bunifu","v","3","html-keyboard-response","347","j","pwani","false","","4"
"2884.0999999940395","","","","","3","html-slider-response","348","","","","1",""
"1501","","","","","3","html-keyboard-response","349","","","","",""
"3140","finger","simu,moyo,sufuria,lima","moyo","v","3","html-keyboard-response","350","n","lima","false","","4"
"1181.5999999940395","","","","","3","html-slider-response","351","","","","1",""
"2362","","","","","3","html-keyboard-response","352","","","","",""
"4351","boat","hamsi,pombe,agalon,kitanda","agalon","j","3","html-keyboard-response","353","j","agalon","true","","4"
"1453.9000000059605","","","","","3","html-slider-response","354","","","","1",""
"1811","","","","","3","html-keyboard-response","355","","","","",""
"3125","hill","kushoto,kukimba,matumbo,sweta","matumbo","j","3","html-keyboard-response","356","j","matumbo","true","","4"
"1436.7000000029802","","","","","3","html-slider-response","357","","","","1",""
"3525","","","","","3","html-keyboard-response","358","","","","",""
"3967","train","itik,dakika,mungu,sayari","sayari","n","3","html-keyboard-response","359","v","dakika","false","","4"
"1411.2000000029802","","","","","3","html-slider-response","360","","","","1",""
"2005","","","","","3","html-keyboard-response","361","","","","",""
"3288","wolf","kaburi,ndizi,lugha,mchuzi","lugha","j","3","html-keyboard-response","362","v","ndizi","false","","4"
"1447.5999999940395","","","","","3","html-slider-response","363","","","","1",""
"1510","","","","","3","html-keyboard-response","364","","","","",""
"2586","snake","pagtukod,jansa,karon,mvringo","pagtukod","f","3","html-keyboard-response","365","f","pagtukod","true","","4"
"1397.7000000029802","","","","","3","html-slider-response","366","","","","5",""
"1103","","","","","3","html-keyboard-response","367","","","","",""
"3624","tooth","kijiko,uadui,pahiyum,kabalaka","kabalaka","n","3","html-keyboard-response","368","n","kabalaka","true","","4"
"1588.199999988079","","","","","3","html-slider-response","369","","","","1",""
"2281","","","","","3","html-keyboard-response","370","","","","",""
"4818","notebook","msitu,kila,mdudu,kemia","kemia","n","3","html-keyboard-response","371","j","mdudu","false","","4"
"3084.5","","","","","3","html-slider-response","372","","","","2",""
"2209","","","","","3","html-keyboard-response","373","","","","",""
"2308","flag","ndege,trekta,mkate,kawa","trekta","v","3","html-keyboard-response","374","f","ndege","false","","4"
"1606.5999999940395","","","","","3","html-slider-response","375","","","","2",""
"1416","","","","","3","html-keyboard-response","376","","","","",""
"2781","squirrel","mahugaw,ukweli,kichwa,hofu","hofu","n","3","html-keyboard-response","377","n","hofu","true","","4"
"1545.7000000029802","","","","","3","html-slider-response","378","","","","1",""
"1246","","","","","3","html-keyboard-response","379","","","","",""
"2748","door","tena,soko,surali,nyota","surali","j","3","html-keyboard-response","380","n","nyota","false","","4"
"2212","","","","","3","html-slider-response","381","","","","1",""
"2383","","","","","3","html-keyboard-response","382","","","","",""
"4531","salmon","mzungu,seri,baharia,sensilyo","sensilyo","n","3","html-keyboard-response","383","f","mzungu","false","","4"
"2040","","","","","3","html-slider-response","384","","","","2",""
"1386","","","","","3","html-keyboard-response","385","","","","",""
"2770","shoulder","kelele,ndaniya,mkuu,guruwe","mkuu","j","3","html-keyboard-response","386","j","mkuu","true","","4"
"1085.7000000029802","","","","","3","html-slider-response","387","","","","2",""
"1455","","","","","3","html-keyboard-response","388","","","","",""
"2370","lamp","daub,afya,bilaska,mbolea","afya","v","3","html-keyboard-response","389","v","afya","true","","4"
"1267.5","","","","","3","html-slider-response","390","","","","2",""
"1404","","","","","3","html-keyboard-response","391","","","","",""
"1740","shelf","pamahaw,bungtod,kadaot,awit","pamahaw","f","3","html-keyboard-response","392","f","pamahaw","true","","1"
"2217.8999999910593","","","","","3","html-slider-response","393","","","","5",""
"2126","","","","","3","html-keyboard-response","394","","","","",""
"3348","human","bado,tinapay,kikapu,punguza","tinapay","v","3","html-keyboard-response","395","v","tinapay","true","","4"
"1268","","","","","3","html-slider-response","396","","","","2",""
"1903","","","","","3","html-keyboard-response","397","","","","",""
"2212","towel","tembo,pagpalit,funzi,pito","pagpalit","v","3","html-keyboard-response","398","f","tembo","false","","4"
"1266.8999999910593","","","","","3","html-slider-response","399","","","","2",""
"1839","","","","","3","html-keyboard-response","400","","","","",""
"2376","cat","neyemba,baki,akili,paghukom","paghukom","n","3","html-keyboard-response","401","v","baki","false","","4"
"1238.2000000029802","","","","","3","html-slider-response","402","","","","2",""
"2438","","","","","3","html-keyboard-response","403","","","","",""
"4626","spider","kamwe,bunyag,mkboa,atop","kamwe","f","3","html-keyboard-response","404","f","kamwe","true","","4"
"1469.3999999910593","","","","","3","html-slider-response","405","","","","2",""
"906","","","","","3","html-keyboard-response","406","","","","",""
"2575","window","kweli,nanga,kujenga,umaga","kweli","f","3","html-keyboard-response","407","f","kweli","true","","4"
"1461.1000000089407","","","","","3","html-slider-response","408","","","","1",""
"1248","","","","","3","html-keyboard-response","409","","","","",""
"1711","woman","pagtabon,bandari,bituin,kovuli","pagtabon","f","3","html-keyboard-response","410","f","pagtabon","true","","1"
"2862","","","","","3","html-slider-response","411","","","","5",""
"2020","","","","","3","html-keyboard-response","412","","","","",""
"3373","giraffe","daraja,mahitabo,jumatu,hangyo","mahitabo","v","3","html-keyboard-response","413","n","hangyo","false","","4"
"2231.699999988079","","","","","3","html-slider-response","414","","","","1",""
"1867","","","","","3","html-keyboard-response","415","","","","",""
"4531","elephant","petye,kito,pagduol,suka","kito","v","3","html-keyboard-response","416","v","kito","true","","4"
"1726.3999999910593","","","","","3","html-slider-response","417","","","","5",""
"1249","","","","","3","html-keyboard-response","418","","","","",""
"4264","cave","ganti,kesho,maisha,nyundo","kesho","v","3","html-keyboard-response","419","j","maisha","false","","4"
"1718.9000000059605","","","","","3","html-slider-response","420","","","","1",""
"2782","","","","","3","html-keyboard-response","421","","","","",""
"3572","bread","kaili,dari,dizeli,bugas","dari","v","3","html-keyboard-response","422","f","kaili","false","","4"
"1918.5","","","","","3","html-slider-response","423","","","","2",""
"1908","","","","","3","html-keyboard-response","424","","","","",""
"4118","stone","ulimwengu,wingi,mkasi,asili","wingi","v","3","html-keyboard-response","425","n","asili","false","","4"
"2240.6000000089407","","","","","3","html-slider-response","426","","","","2",""
"1941","","","","","3","html-keyboard-response","427","","","","",""
"5896","donkey","elfu,bloke,lalake,rombus","elfu","f","3","html-keyboard-response","428","j","lalake","false","","4"
"2038.0999999940395","","","","","3","html-slider-response","429","","","","2",""
"1768","","","","","3","html-keyboard-response","430","","","","",""
"4056","bridge","sahani,daima,ngono,panya","sahani","f","3","html-keyboard-response","431","j","ngono","false","","4"
"1847.7000000029802","","","","","3","html-slider-response","432","","","","2",""
"2053","","","","","3","html-keyboard-response","433","","","","",""
"3456","bonfire","mwezi,goti,mfuko,kusanya","goti","v","3","html-keyboard-response","434","v","goti","true","","4"
"1494.9000000059605","","","","","3","html-slider-response","435","","","","4",""
"1542","","","","","3","html-keyboard-response","436","","","","",""
"2867","book","kuhesa,picha,mara,mali","mali","n","3","html-keyboard-response","437","n","mali","true","","4"
"1343.1000000089407","","","","","3","html-slider-response","438","","","","5",""
"729","","","","","3","html-keyboard-response","439","","","","",""
"2618","fish","bala,baho,imani,buli","buli","n","3","html-keyboard-response","440","n","buli","true","","4"
"1916.9000000059605","","","","","3","html-slider-response","441","","","","4",""
"1457","","","","","3","html-keyboard-response","442","","","","",""
"4549","spoon","pagsulod,betri,nzuri,ngazi","pagsulod","f","3","html-keyboard-response","443","f","pagsulod","true","","4"
"2010.6000000089407","","","","","3","html-slider-response","444","","","","2",""
"1074","","","","","3","html-keyboard-response","445","","","","",""
"3915","scissors","duga,tanuri,mtawa,suga","tanuri","v","3","html-keyboard-response","446","n","suga","false","","4"
"1113.4000000059605","","","","","3","html-slider-response","447","","","","2",""
"1215","","","","","3","html-keyboard-response","448","","","","",""
"3919","page","wakala,wimbo,ishiri,skina","wimbo","v","3","html-keyboard-response","449","j","ishiri","false","","4"
"1528.7999999970198","","","","","3","html-slider-response","450","","","","2",""
"1084","","","","","3","html-keyboard-response","451","","","","",""
"2961","nose","gubat,sehemu,kopa,kidole","sehemu","v","3","html-keyboard-response","452","v","sehemu","true","","1"
"1796.7999999970198","","","","","3","html-slider-response","453","","","","5",""
"748","","","","","3","html-keyboard-response","454","","","","",""
"3112","ceiling","kugita,kawaida,maua,rayna","maua","j","3","html-keyboard-response","455","n","rayna","false","","4"
"1360.5999999940395","","","","","3","html-slider-response","456","","","","1",""
"1187","","","","","3","html-keyboard-response","457","","","","",""
"5726","bucket","baga,ijayo,kiatu,init","kiatu","j","3","html-keyboard-response","458","n","init","false","","4"
"1248.800000011921","","","","","3","html-slider-response","459","","","","2",""
"1319","","","","","3","html-keyboard-response","460","","","","",""
"2148","berry","abogado,nogozi,kinywa,kofia","kofia","n","3","html-keyboard-response","461","n","kofia","true","","1"
"2037.3999999910593","","","","","3","html-slider-response","462","","","","5",""
"1449","","","","","3","html-keyboard-response","463","","","","",""
"4291","mother","kahawa,mbuzi,babaye,jokofu","babaye","j","3","html-keyboard-response","464","j","babaye","true","","1"
"1824.9000000059605","","","","","3","html-slider-response","465","","","","5",""
"4727","","","","","3","html-keyboard-response","466","","","","",""
"6493","mosquito","martilyo,isda,taras,gutom","martilyo","f","3","html-keyboard-response","467","f","martilyo","true","","4"
"1983.7000000029802","","","","","3","html-slider-response","468","","","","2",""
"1417","","","","","3","html-keyboard-response","469","","","","",""
"5849","perfume","katuyoan,bino,sungura,ndogo","katuyoan","f","3","html-keyboard-response","470","j","sungura","false","","4"
"2039.7999999970198","","","","","3","html-slider-response","471","","","","2",""
"1282","","","","","3","html-keyboard-response","472","","","","",""
"2898","sheet","juuya,watu,bililhon,kamantis","bililhon","j","3","html-keyboard-response","473","v","watu","false","","4"
"1273","","","","","3","html-slider-response","474","","","","2",""
"2079","","","","","3","html-keyboard-response","475","","","","",""
"3567","puppet","napulo,lamok,mazishi,godoro","mazishi","j","3","html-keyboard-response","476","j","mazishi","true","","1"
"4190.70000000298","","","","","3","html-slider-response","477","","","","5",""
"884","","","","","3","html-keyboard-response","478","","","","",""
"2417","poster","nchi,fedha,madungog,kasuko","madungog","j","3","html-keyboard-response","479","n","kasuko","false","","4"
"1301","","","","","3","html-slider-response","480","","","","2",""
"1606","","","","","3","html-keyboard-response","481","","","","",""
"2931","music","mraba,mageho,tumbo,baiski","baiski","n","3","html-keyboard-response","482","j","tumbo","false","","4"
"1445.7999999970198","","","","","3","html-slider-response","483","","","","2",""
"1076","","","","","3","html-keyboard-response","484","","","","",""
"2340","key","miaka,chombo,goma,ahos","chombo","v","3","html-keyboard-response","485","v","chombo","true","","4"
"1910.5","","","","","3","html-slider-response","486","","","","2",""
"1409","","","","","3","html-keyboard-response","487","","","","",""
"3736","sock","ndoora,kimysa,mtirka,mamba","mamba","n","3","html-keyboard-response","488","n","mamba","true","","4"
"1037.0999999940395","","","","","3","html-slider-response","489","","","","2",""
"1172","","","","","3","html-keyboard-response","490","","","","",""
"4371","marker","mapafu,salita,atay,maji","maji","n","3","html-keyboard-response","491","j","atay","false","","4"
"929.5","","","","","3","html-slider-response","492","","","","2",""
"1023","","","","","3","html-keyboard-response","493","","","","",""
"1782","office","leso,hazini,yatima,kuna","leso","f","3","html-keyboard-response","494","f","leso","true","","4"
"1406.7999999970198","","","","","3","html-slider-response","495","","","","5",""
"770","","","","","3","html-keyboard-response","496","","","","",""
"3501","shoe","nyeusi,hatua,uyoga,kama","uyoga","j","3","html-keyboard-response","497","n","kama","false","","4"
"1320.1000000089407","","","","","3","html-slider-response","498","","","","2",""
"1777","","","","","3","html-keyboard-response","499","","","","",""
"3560","cop","mechezo,bustani,jikoni,bakus","mechezo","f","3","html-keyboard-response","500","v","bustani","false","","4"
"1605.199999988079","","","","","3","html-slider-response","501","","","","1",""
"1450","","","","","3","html-keyboard-response","502","","","","",""
"2184","bank","kudhibi,silingan,tualya,ofisi","silingan","v","3","html-keyboard-response","503","n","ofisi","false","","4"
"1389.7000000029802","","","","","3","html-slider-response","504","","","","4",""
"3604","","","","","3","html-keyboard-response","505","","","","",""
"3375","letter","kifua,filimbi,chuma,uhuru","kifua","f","3","html-keyboard-response","506","f","kifua","true","","1"
"3210.2999999970198","","","","","3","html-slider-response","507","","","","5",""
"932","","","","","3","html-keyboard-response","508","","","","",""
"2694","dog","lubi,washia,kalamu,bahari","bahari","n","3","html-keyboard-response","509","n","bahari","true","","1"
"1587","","","","","3","html-slider-response","510","","","","5",""
"988","","","","","3","html-keyboard-response","511","","","","",""
"4946","shop","nopya,samaki,kerida,ndezu","samaki","v","3","html-keyboard-response","512","v","samaki","true","","4"
"1370.3999999910593","","","","","3","html-slider-response","513","","","","5",""
"724","","","","","3","html-keyboard-response","514","","","","",""
"4764","flower","tamasha,lobo,usiku,bega","bega","n","3","html-keyboard-response","515","n","bega","true","","4"
"1565.5999999940395","","","","","3","html-slider-response","516","","","","2",""
"986","","","","","3","html-keyboard-response","517","","","","",""
"3466","cigar","adhabu,ndugu,kuta,mlango","adhabu","f","3","html-keyboard-response","518","f","adhabu","true","","1"
"1702.5999999940395","","","","","3","html-slider-response","519","","","","5",""
"974","","","","","3","html-keyboard-response","520","","","","",""
"2800","hammer","mekno,kitovu,layag,napakyas","napakyas","n","3","html-keyboard-response","521","f","mekno","false","","4"
"1298.699999988079","","","","","3","html-slider-response","522","","","","2",""
"983","","","","","3","html-keyboard-response","523","","","","",""
"2521","fork","baboy,paghago,mgonjwa,gorisi","mgonjwa","j","3","html-keyboard-response","524","j","mgonjwa","true","","4"
"1218.6000000089407","","","","","3","html-slider-response","525","","","","4",""
"960","","","","","3","html-keyboard-response","526","","","","",""
"1762","sun","bendi,luha,uongo,basi","basi","n","3","html-keyboard-response","527","n","basi","true","","1"
"1261","","","","","3","html-slider-response","528","","","","5",""
"1347","","","","","3","html-keyboard-response","529","","","","",""
"3525","ladder","pangalan,mashua,mwanga,kamba","pangalan","f","3","html-keyboard-response","530","j","mwanga","false","","4"
"1879.5","","","","","3","html-slider-response","531","","","","1",""
"1296","","","","","3","html-keyboard-response","532","","","","",""
"2240","banana","kasamok,kazi,hagdan,twai","kazi","v","3","html-keyboard-response","533","v","kazi","true","","1"
"1826.2999999970198","","","","","3","html-slider-response","534","","","","5",""
"863","","","","","3","html-keyboard-response","535","","","","",""
"2316","pudding","abug,mpishi,iring,aibu","aibu","n","3","html-keyboard-response","536","v","mpishi","false","","4"
"1573","","","","","3","html-slider-response","537","","","","2",""
"701","","","","","3","html-keyboard-response","538","","","","",""
"6280","body","nyundu,jibini,kununa,tindashan","tindashan","n","3","html-keyboard-response","539","n","tindashan","true","","4"
"1530.7000000029802","","","","","3","html-slider-response","540","","","","1",""
"1817","","","","","3","html-keyboard-response","541","","","","",""
"3003","bed","kalipay,haraka,starehe,mapintas","mapintas","n","3","html-keyboard-response","542","v","haraka","false","","4"
"1693.7999999970198","","","","","3","html-slider-response","543","","","","2",""
"1352","","","","","3","html-keyboard-response","544","","","","",""
"2120","tissue","lamigas,kisiwa,ugomvi,katika","ugomvi","j","3","html-keyboard-response","545","j","ugomvi","true","","4"
"2026","","","","","3","html-slider-response","546","","","","2",""
"1761","","","","","3","html-keyboard-response","547","","","","",""
"3270","candle","gabi,farasi,kupanda,geza","geza","n","3","html-keyboard-response","548","j","kupanda","false","","4"
"981.5","","","","","3","html-slider-response","549","","","","2",""
"962","","","","","3","html-keyboard-response","550","","","","",""
"1913","tomato","chupi,mvua,chupa,takatak","mvua","v","3","html-keyboard-response","551","v","mvua","true","","1"
"1428.4000000059605","","","","","3","html-slider-response","552","","","","5",""
"709","","","","","3","html-keyboard-response","553","","","","",""
"2820","list","wingu,alizeti,kuzama,kaso","wingu","f","3","html-keyboard-response","554","f","wingu","true","","4"
"1873.9000000059605","","","","","3","html-slider-response","555","","","","2",""
"928","","","","","3","html-keyboard-response","556","","","","",""
"2655","olive","jiwe,bata,siagi,welder","jiwe","f","3","html-keyboard-response","557","f","jiwe","true","","4"
"1410.1000000089407","","","","","3","html-slider-response","558","","","","2",""
"1140","","","","","3","html-keyboard-response","559","","","","",""
"1755","picture","silya,chaki,asin,kubwa","kubwa","n","3","html-keyboard-response","560","n","kubwa","true","","1"
"2180","","","","","3","html-slider-response","561","","","","5",""
"1275","","","","","3","html-keyboard-response","562","","","","",""
"9946","page","wakala,wimbo,ishiri,skina","wimbo","v","4","html-keyboard-response","888","f","wakala","false","",""
"2716.699999988079","","","","","4","html-slider-response","889","","","","1",""
"2728","sheet","bililhon,juuya,watu,kamantis","bililhon","f","4","html-keyboard-response","890","f","bililhon","true","",""
"1476.7999999970198","","","","","4","html-slider-response","891","","","","1",""
"1991","ladder","mashua,mwanga,pangalan,kamba","pangalan","j","4","html-keyboard-response","892","n","kamba","false","",""
"1121.8999999910593","","","","","4","html-slider-response","893","","","","1",""
"1931","door","tena,soko,surali,nyota","surali","j","4","html-keyboard-response","894","n","nyota","false","",""
"1193","","","","","4","html-slider-response","895","","","","1",""
"2408","spider","bunyag,mkboa,kamwe,atop","kamwe","j","4","html-keyboard-response","896","j","kamwe","true","",""
"1147.6000000089407","","","","","4","html-slider-response","897","","","","2",""
"2664","picture","silya,chaki,asin,kubwa","kubwa","n","4","html-keyboard-response","898","n","kubwa","true","",""
"1129.1000000089407","","","","","4","html-slider-response","899","","","","1",""
"1407","boat","hamsi,pombe,agalon,kitanda","agalon","j","4","html-keyboard-response","900","f","hamsi","false","",""
"935.7000000029802","","","","","4","html-slider-response","901","","","","1",""
"2098","donkey","bloke,elfu,lalake,rombus","elfu","v","4","html-keyboard-response","902","v","elfu","true","",""
"1135.9000000059605","","","","","4","html-slider-response","903","","","","5",""
"2215","book","kuhesa,picha,mali,mara","mali","j","4","html-keyboard-response","904","j","mali","true","",""
"1198.4000000059605","","","","","4","html-slider-response","905","","","","5",""
"2210","cup","dagat,matumai,shimoni,jeraha","matumai","v","4","html-keyboard-response","906","j","shimoni","false","",""
"1143","","","","","4","html-slider-response","907","","","","1",""
"1891","sun","bendi,basi,luha,uongo","basi","v","4","html-keyboard-response","908","f","bendi","false","",""
"1074","","","","","4","html-slider-response","909","","","","1",""
"2050","pudding","abug,mpishi,iring,aibu","aibu","n","4","html-keyboard-response","910","v","mpishi","false","",""
"1065","","","","","4","html-slider-response","911","","","","1",""
"3525","human","bado,kikapu,tinapay,punguza","tinapay","j","4","html-keyboard-response","912","j","tinapay","true","",""
"1207.6000000089407","","","","","4","html-slider-response","913","","","","5",""
"2768","squirrel","hofu,mahugaw,ukweli,kichwa","hofu","f","4","html-keyboard-response","914","f","hofu","true","",""
"1046.5999999940395","","","","","4","html-slider-response","915","","","","4",""
"2793","park","tambok,bunifu,pwani,ihalas","bunifu","v","4","html-keyboard-response","916","v","bunifu","true","",""
"1235.1000000089407","","","","","4","html-slider-response","917","","","","1",""
"2398","poster","nchi,fedha,kasuko,madungog","madungog","n","4","html-keyboard-response","918","n","madungog","true","",""
"1015.1000000089407","","","","","4","html-slider-response","919","","","","1",""
"2471","wolf","lugha,kaburi,ndizi,mchuzi","lugha","f","4","html-keyboard-response","920","n","mchuzi","false","",""
"1035.7000000029802","","","","","4","html-slider-response","921","","","","1",""
"2568","cat","neyemba,baki,paghukom,akili","paghukom","j","4","html-keyboard-response","922","v","baki","false","",""
"1550.6000000089407","","","","","4","html-slider-response","923","","","","2",""
"1889","fish","bala,baho,buli,imani","buli","j","4","html-keyboard-response","924","j","buli","true","",""
"1432.6000000089407","","","","","4","html-slider-response","925","","","","5",""
"1859","tooth","kijiko,uadui,kabalaka,pahiyum","kabalaka","j","4","html-keyboard-response","926","f","kijiko","false","",""
"1225.2000000029802","","","","","4","html-slider-response","927","","","","1",""
"3779","cave","ganti,maisha,nyundo,kesho","kesho","n","4","html-keyboard-response","928","v","maisha","false","",""
"1064.7000000029802","","","","","4","html-slider-response","929","","","","2",""
"1901","lamp","daub,bilaska,mbolea,afya","afya","n","4","html-keyboard-response","930","n","afya","true","",""
"1052.4000000059605","","","","","4","html-slider-response","931","","","","1",""
"3405","banana","kasamok,hagdan,twai,kazi","kazi","n","4","html-keyboard-response","932","n","kazi","true","",""
"1642.7999999970198","","","","","4","html-slider-response","933","","","","4",""
"2313","bonfire","mwezi,goti,mfuko,kusanya","goti","v","4","html-keyboard-response","934","v","goti","true","",""
"1180.7000000029802","","","","","4","html-slider-response","935","","","","5",""
"4383","cop","bustani,mechezo,jikoni,bakus","mechezo","v","4","html-keyboard-response","936","v","mechezo","true","",""
"1604.5999999940395","","","","","4","html-slider-response","937","","","","5",""
"4350","marker","mapafu,salita,maji,atay","maji","j","4","html-keyboard-response","938","n","atay","false","",""
"1092.4000000059605","","","","","4","html-slider-response","939","","","","2",""
"3508","window","nanga,kujenga,umaga,kweli","kweli","n","4","html-keyboard-response","940","n","kweli","true","",""
"1315.199999988079","","","","","4","html-slider-response","941","","","","2",""
"10120","body","nyundu,tindashan,jibini,kununa","tindashan","v","4","html-keyboard-response","942","v","tindashan","true","",""
"1663.4000000059605","","","","","4","html-slider-response","943","","","","2",""
"2076","apple","ukame,estante,edad,kisu","kisu","n","4","html-keyboard-response","944","n","kisu","true","",""
"1672.5","","","","","4","html-slider-response","945","","","","2",""
"3155","salmon","mzungu,sensilyo,seri,baharia","sensilyo","v","4","html-keyboard-response","946","f","mzungu","false","",""
"1155.7999999970198","","","","","4","html-slider-response","947","","","","2",""
"3372","bed","kalipay,haraka,starehe,mapintas","mapintas","n","4","html-keyboard-response","948","f","kalipay","false","",""
"969.7000000029802","","","","","4","html-slider-response","949","","","","1",""
"2601","berry","kofia,abogado,nogozi,kinywa","kofia","f","4","html-keyboard-response","950","v","abogado","false","",""
"1212.4000000059605","","","","","4","html-slider-response","951","","","","1",""
"3347","mirror","rangi,kanding,sulagma,furaha","sulagma","j","4","html-keyboard-response","952","n","furaha","false","",""
"815.7999999970198","","","","","4","html-slider-response","953","","","","2",""
"4045","flag","ndege,trekta,mkate,kawa","trekta","v","4","html-keyboard-response","954","v","trekta","true","",""
"1581.8999999910593","","","","","4","html-slider-response","955","","","","4",""
"2388","shoulder","kelele,ndaniya,mkuu,guruwe","mkuu","j","4","html-keyboard-response","956","n","guruwe","false","",""
"1204.5999999940395","","","","","4","html-slider-response","957","","","","2",""
"3456","tissue","lamigas,kisiwa,katika,ugomvi","ugomvi","n","4","html-keyboard-response","958","n","ugomvi","true","",""
"3161.2999999970198","","","","","4","html-slider-response","959","","","","1",""
"3025","notebook","msitu,kila,kemia,mdudu","kemia","j","4","html-keyboard-response","960","n","mdudu","false","",""
"1473.7999999970198","","","","","4","html-slider-response","961","","","","2",""
"2531","snake","jansa,pagtukod,karon,mvringo","pagtukod","v","4","html-keyboard-response","962","v","pagtukod","true","",""
"1442.5","","","","","4","html-slider-response","963","","","","5",""
"3470","finger","moyo,simu,sufuria,lima","moyo","f","4","html-keyboard-response","964","f","moyo","true","",""
"1192.5","","","","","4","html-slider-response","965","","","","4",""
"3152","basket","kumbuka,kumba,utepe,hasira","kumba","v","4","html-keyboard-response","966","v","kumba","true","",""
"2400.5999999940395","","","","","4","html-slider-response","967","","","","1",""
"2696","curtain","lisud,bulwawan,mchanga,chubani","mchanga","j","4","html-keyboard-response","968","f","lisud","false","",""
"1094.4000000059605","","","","","4","html-slider-response","969","","","","1",""
"1889","perfume","katuyoan,bino,sungura,ndogo","katuyoan","f","4","html-keyboard-response","970","v","bino","false","",""
"1126","","","","","4","html-slider-response","971","","","","1",""
"2717","key","miaka,chombo,goma,ahos","chombo","v","4","html-keyboard-response","972","n","ahos","false","",""
"1437.5999999940395","","","","","4","html-slider-response","973","","","","1",""
"3390","olive","bata,siagi,welder,jiwe","jiwe","n","4","html-keyboard-response","974","n","jiwe","true","",""
"942.7999999970198","","","","","4","html-slider-response","975","","","","2",""
"2932","rose","singizi,mwanake,amani,paghalad","paghalad","n","4","html-keyboard-response","976","v","mwanake","false","",""
"1292.9000000059605","","","","","4","html-slider-response","977","","","","2",""
"2009","bridge","daima,sahani,ngono,panya","sahani","v","4","html-keyboard-response","978","f","daima","false","",""
"1397.8999999910593","","","","","4","html-slider-response","979","","","","1",""
"3964","hill","kushoto,kukimba,sweta,matumbo","matumbo","n","4","html-keyboard-response","980","j","sweta","false","",""
"1198.2999999970198","","","","","4","html-slider-response","981","","","","1",""
"5435","letter","kifua,filimbi,chuma,uhuru","kifua","f","4","html-keyboard-response","982","f","kifua","true","",""
"1147.7999999970198","","","","","4","html-slider-response","983","","","","1",""
"3031","sock","ndoora,kimysa,mtirka,mamba","mamba","n","4","html-keyboard-response","984","n","mamba","true","",""
"1084","","","","","4","html-slider-response","985","","","","4",""
"2351","fork","baboy,paghago,gorisi,mgonjwa","mgonjwa","n","4","html-keyboard-response","986","n","mgonjwa","true","",""
"2750.5999999940395","","","","","4","html-slider-response","987","","","","5",""
"4263","box","kuacha,rafiki,adui,kitande","adui","j","4","html-keyboard-response","988","j","adui","true","",""
"1497.6000000089407","","","","","4","html-slider-response","989","","","","4",""
"3801","gift","baba,nyange,pagtawag,baso","pagtawag","j","4","html-keyboard-response","990","j","pagtawag","true","",""
"1170","","","","","4","html-slider-response","991","","","","5",""
"1992","bucket","baga,ijayo,kiatu,init","kiatu","j","4","html-keyboard-response","992","n","init","false","",""
"1419.7999999970198","","","","","4","html-slider-response","993","","","","2",""
"2606","shop","samaki,nopya,kerida,ndezu","samaki","f","4","html-keyboard-response","994","f","samaki","true","",""
"1256.5","","","","","4","html-slider-response","995","","","","5",""
"2988","puppet","napulo,mazishi,lamok,godoro","mazishi","v","4","html-keyboard-response","996","j","lamok","false","",""
"1405","","","","","4","html-slider-response","997","","","","1",""
"3575","nose","sehemu,gubat,kopa,kidole","sehemu","f","4","html-keyboard-response","998","f","sehemu","true","",""
"1330.9000000059605","","","","","4","html-slider-response","999","","","","2",""
"2851","music","baiski,mraba,mageho,tumbo","baiski","f","4","html-keyboard-response","1000","n","tumbo","false","",""
"1181.4000000059605","","","","","4","html-slider-response","1001","","","","2",""
"3484","dog","bahari,lubi,washia,kalamu","bahari","f","4","html-keyboard-response","1002","v","lubi","false","",""
"1158.2999999970198","","","","","4","html-slider-response","1003","","","","1",""
"3845","eel","ishara,kunywa,kabuang,msumari","msumari","n","4","html-keyboard-response","1004","n","msumari","true","",""
"1065.7999999970198","","","","","4","html-slider-response","1005","","","","2",""
"3245","number","mundamo,shule,kengele,choori","mundamo","f","4","html-keyboard-response","1006","j","kengele","false","",""
"1538.699999988079","","","","","4","html-slider-response","1007","","","","2",""
"2513","tomato","chupi,mvua,chupa,takatak","mvua","v","4","html-keyboard-response","1008","n","takatak","false","",""
"1713.5","","","","","4","html-slider-response","1009","","","","1",""
"2014","coffin","barua,tubag,hulma,kioo","kioo","n","4","html-keyboard-response","1010","n","kioo","true","",""
"1256.5","","","","","4","html-slider-response","1011","","","","5",""
"4196","knee","mvuke,kubale,bili,duka","duka","n","4","html-keyboard-response","1012","n","duka","true","",""
"1829","","","","","4","html-slider-response","1013","","","","2",""
"5639","woman","pagtabon,bandari,bituin,kovuli","pagtabon","f","4","html-keyboard-response","1014","f","pagtabon","true","",""
"1621.2000000029802","","","","","4","html-slider-response","1015","","","","2",""
"1971","stone","ulimwengu,wingi,mkasi,asili","wingi","v","4","html-keyboard-response","1016","n","asili","false","",""
"1124.7999999970198","","","","","4","html-slider-response","1017","","","","2",""
"2040","bread","kaili,dizeli,dari,bugas","dari","j","4","html-keyboard-response","1018","j","dari","true","",""
"2174.5999999940395","","","","","4","html-slider-response","1019","","","","5",""
"2902","triangle","kihozi,bentaha,liog,kasadpan","kasadpan","n","4","html-keyboard-response","1020","f","kihozi","false","",""
"1081.5999999940395","","","","","4","html-slider-response","1021","","","","1",""
"4665","scissors","duga,mtawa,suga,tanuri","tanuri","n","4","html-keyboard-response","1022","n","tanuri","true","",""
"1776.7000000029802","","","","","4","html-slider-response","1023","","","","2",""
"2622","giraffe","daraja,jumatu,hangyo,mahitabo","mahitabo","n","4","html-keyboard-response","1024","n","mahitabo","true","",""
"1080.7000000029802","","","","","4","html-slider-response","1025","","","","2",""
"2071","flower","tamasha,lobo,usiku,bega","bega","n","4","html-keyboard-response","1026","n","bega","true","",""
"1281.7000000029802","","","","","4","html-slider-response","1027","","","","1",""
"2289","candle","gabi,farasi,geza,kupanda","geza","j","4","html-keyboard-response","1028","j","geza","true","",""
"1304.2000000029802","","","","","4","html-slider-response","1029","","","","1",""
"2041","mother","kahawa,mbuzi,babaye,jokofu","babaye","j","4","html-keyboard-response","1030","j","babaye","true","",""
"1373","","","","","4","html-slider-response","1031","","","","5",""
"2429","towel","tembo,funzi,pagpalit,pito","pagpalit","j","4","html-keyboard-response","1032","f","tembo","false","",""
"1556.6000000089407","","","","","4","html-slider-response","1033","","","","1",""
"2512","elephant","petye,pagduol,suka,kito","kito","n","4","html-keyboard-response","1034","n","kito","true","",""
"1410.7999999970198","","","","","4","html-slider-response","1035","","","","5",""
"4180","shelf","bungtod,pamahaw,kadaot,awit","pamahaw","v","4","html-keyboard-response","1036","j","kadaot","false","",""
"1403.5999999940395","","","","","4","html-slider-response","1037","","","","1",""
"2283","mosquito","martilyo,isda,taras,gutom","martilyo","f","4","html-keyboard-response","1038","f","martilyo","true","",""
"1408.5","","","","","4","html-slider-response","1039","","","","5",""
"3956","column","pundok,dila,ufagio,pala","ufagio","j","4","html-keyboard-response","1040","v","dila","false","",""
"1247.699999988079","","","","","4","html-slider-response","1041","","","","1",""
"3041","pants","pintal,chuki,hari,haki","haki","n","4","html-keyboard-response","1042","n","haki","true","",""
"1752.7999999970198","","","","","4","html-slider-response","1043","","","","2",""
"2480","list","alizeti,kuzama,kaso,wingu","wingu","n","4","html-keyboard-response","1044","n","wingu","true","",""
"1605.7000000029802","","","","","4","html-slider-response","1045","","","","2",""
"6789","bank","kudhibi,tualya,silingan,ofisi","silingan","j","4","html-keyboard-response","1046","v","tualya","false","",""
"1084.2999999970198","","","","","4","html-slider-response","1047","","","","2",""
"2348","clock","kartasi,abang,osha,mbwa","mbwa","n","4","html-keyboard-response","1048","n","mbwa","true","",""
"1447.3999999910593","","","","","4","html-slider-response","1049","","","","2",""
"1960","ceiling","kugita,maua,kawaida,rayna","maua","v","4","html-keyboard-response","1050","f","kugita","false","",""
"1162","","","","","4","html-slider-response","1051","","","","1",""
"2603","train","itik,dakika,sayari,mungu","sayari","j","4","html-keyboard-response","1052","n","mungu","false","",""
"1369.5","","","","","4","html-slider-response","1053","","","","1",""
"1747","magazine","gundi,mchawi,bahandi,kiti","kiti","n","4","html-keyboard-response","1054","n","kiti","true","",""
"1456.699999988079","","","","","4","html-slider-response","1055","","","","5",""
"1912","office","hazini,yatima,kuna,leso","leso","n","4","html-keyboard-response","1056","n","leso","true","",""
"1602","","","","","4","html-slider-response","1057","","","","5",""
"2880","wheel","bafuni,punda,tawo,baadaye","bafuni","f","4","html-keyboard-response","1058","j","tawo","false","",""
"1454","","","","","4","html-slider-response","1059","","","","1",""
"2617","spoon","betri,pagsulod,nzuri,ngazi","pagsulod","v","4","html-keyboard-response","1060","v","pagsulod","true","",""
"1395.5999999940395","","","","","4","html-slider-response","1061","","","","1",""
"1755","hammer","mekno,kitovu,layag,napakyas","napakyas","n","4","html-keyboard-response","1062","j","layag","false","",""
"1106.5999999940395","","","","","4","html-slider-response","1063","","","","1",""
"2388","cigar","ndugu,kuta,mlango,adhabu","adhabu","n","4","html-keyboard-response","1064","n","adhabu","true","",""
"1254.7000000029802","","","","","4","html-slider-response","1065","","","","2",""
"2320","shoe","nyeusi,hatua,uyoga,kama","uyoga","j","4","html-keyboard-response","1066","v","hatua","false","",""
"2020.7000000029802","","","","","4","html-slider-response","1067","","","","2",""
"3666","list","wingu,alizeti,kuzama,kaso","wingu","f","5","html-keyboard-response","1069","n","kaso","false","",""
"1425.2999999970198","","","","","5","html-slider-response","1070","","","","1",""
"2888","number","shule,kengele,mundamo,choori","mundamo","j","5","html-keyboard-response","1071","n","choori","false","",""
"1565.6000000089407","","","","","5","html-slider-response","1072","","","","1",""
"2062","apple","ukame,kisu,estante,edad","kisu","v","5","html-keyboard-response","1073","v","kisu","true","",""
"1531","","","","","5","html-slider-response","1074","","","","2",""
"2687","knee","mvuke,duka,kubale,bili","duka","v","5","html-keyboard-response","1075","n","bili","false","",""
"1354.5999999940395","","","","","5","html-slider-response","1076","","","","2",""
"2763","tooth","kijiko,kabalaka,uadui,pahiyum","kabalaka","v","5","html-keyboard-response","1077","v","kabalaka","true","",""
"1854.2000000029802","","","","","5","html-slider-response","1078","","","","1",""
"2045","berry","abogado,nogozi,kofia,kinywa","kofia","j","5","html-keyboard-response","1079","f","abogado","false","",""
"1458.1000000089407","","","","","5","html-slider-response","1080","","","","1",""
"2098","bridge","daima,ngono,panya,sahani","sahani","n","5","html-keyboard-response","1081","n","sahani","true","",""
"1183.4000000059605","","","","","5","html-slider-response","1082","","","","1",""
"2019","perfume","bino,sungura,katuyoan,ndogo","katuyoan","j","5","html-keyboard-response","1083","j","katuyoan","true","",""
"1324.7999999970198","","","","","5","html-slider-response","1084","","","","1",""
"2078","ladder","mashua,mwanga,kamba,pangalan","pangalan","n","5","html-keyboard-response","1085","f","mashua","false","",""
"1062.5999999940395","","","","","5","html-slider-response","1086","","","","1",""
"3188","pants","haki,pintal,chuki,hari","haki","f","5","html-keyboard-response","1087","n","hari","false","",""
"1354.6000000089407","","","","","5","html-slider-response","1088","","","","1",""
"2032","salmon","sensilyo,mzungu,seri,baharia","sensilyo","f","5","html-keyboard-response","1089","n","baharia","false","",""
"1199.5999999940395","","","","","5","html-slider-response","1090","","","","1",""
"2002","coffin","barua,kioo,tubag,hulma","kioo","v","5","html-keyboard-response","1091","v","kioo","true","",""
"1250.5","","","","","5","html-slider-response","1092","","","","5",""
"2040","park","tambok,pwani,bunifu,ihalas","bunifu","j","5","html-keyboard-response","1093","f","tambok","false","",""
"1182.7999999970198","","","","","5","html-slider-response","1094","","","","1",""
"3114","giraffe","mahitabo,daraja,jumatu,hangyo","mahitabo","f","5","html-keyboard-response","1095","j","jumatu","false","",""
"1007.5","","","","","5","html-slider-response","1096","","","","1",""
"5874","mirror","rangi,kanding,furaha,sulagma","sulagma","n","5","html-keyboard-response","1097","n","sulagma","true","",""
"1439","","","","","5","html-slider-response","1098","","","","4",""
"2299","ceiling","maua,kugita,kawaida,rayna","maua","f","5","html-keyboard-response","1099","n","rayna","false","",""
"932.5999999940395","","","","","5","html-slider-response","1100","","","","1",""
"3248","marker","mapafu,salita,atay,maji","maji","n","5","html-keyboard-response","1101","f","mapafu","false","",""
"1064","","","","","5","html-slider-response","1102","","","","1",""
"2516","sock","ndoora,kimysa,mtirka,mamba","mamba","n","5","html-keyboard-response","1103","n","mamba","true","",""
"978.9000000059605","","","","","5","html-slider-response","1104","","","","4",""
"2521","cop","mechezo,bustani,jikoni,bakus","mechezo","f","5","html-keyboard-response","1105","f","mechezo","true","",""
"1313.800000011921","","","","","5","html-slider-response","1106","","","","5",""
"1868","gift","pagtawag,baba,nyange,baso","pagtawag","f","5","html-keyboard-response","1107","f","pagtawag","true","",""
"1799.1000000089407","","","","","5","html-slider-response","1108","","","","5",""
"4034","notebook","msitu,kila,mdudu,kemia","kemia","n","5","html-keyboard-response","1109","f","msitu","false","",""
"987.7000000029802","","","","","5","html-slider-response","1110","","","","2",""
"3696","bank","kudhibi,tualya,silingan,ofisi","silingan","j","5","html-keyboard-response","1111","j","silingan","true","",""
"1337.800000011921","","","","","5","html-slider-response","1112","","","","2",""
"3802","letter","filimbi,chuma,uhuru,kifua","kifua","n","5","html-keyboard-response","1113","n","kifua","true","",""
"2639.6000000089407","","","","","5","html-slider-response","1114","","","","2",""
"3436","candle","gabi,farasi,geza,kupanda","geza","j","5","html-keyboard-response","1115","n","kupanda","false","",""
"1053.7999999970198","","","","","5","html-slider-response","1116","","","","1",""
"1767","bread","kaili,dizeli,dari,bugas","dari","j","5","html-keyboard-response","1117","j","dari","true","",""
"1336","","","","","5","html-slider-response","1118","","","","5",""
"2127","snake","jansa,karon,mvringo,pagtukod","pagtukod","n","5","html-keyboard-response","1119","n","pagtukod","true","",""
"1396.7999999970198","","","","","5","html-slider-response","1120","","","","5",""
"2257","rose","singizi,mwanake,paghalad,amani","paghalad","j","5","html-keyboard-response","1121","n","amani","false","",""
"1898","","","","","5","html-slider-response","1122","","","","2",""
"4084","hill","matumbo,kushoto,kukimba,sweta","matumbo","f","5","html-keyboard-response","1123","f","matumbo","true","",""
"1408.6000000089407","","","","","5","html-slider-response","1124","","","","5",""
"2198","train","itik,sayari,dakika,mungu","sayari","v","5","html-keyboard-response","1125","n","mungu","false","",""
"1435.5999999940395","","","","","5","html-slider-response","1126","","","","1",""
"2559","shop","nopya,kerida,ndezu,samaki","samaki","n","5","html-keyboard-response","1127","n","samaki","true","",""
"1122.5999999940395","","","","","5","html-slider-response","1128","","","","5",""
"2169","nose","gubat,sehemu,kopa,kidole","sehemu","v","5","html-keyboard-response","1129","j","kopa","false","",""
"1918.2999999970198","","","","","5","html-slider-response","1130","","","","1",""
"2246","boat","hamsi,pombe,agalon,kitanda","agalon","j","5","html-keyboard-response","1131","f","hamsi","false","",""
"1076.9000000059605","","","","","5","html-slider-response","1132","","","","1",""
"2905","body","nyundu,jibini,kununa,tindashan","tindashan","n","5","html-keyboard-response","1133","n","tindashan","true","",""
"1037.7000000029802","","","","","5","html-slider-response","1134","","","","4",""
"3433","bed","kalipay,haraka,mapintas,starehe","mapintas","j","5","html-keyboard-response","1135","v","haraka","false","",""
"1582.300000011921","","","","","5","html-slider-response","1136","","","","1",""
"5178","squirrel","hofu,mahugaw,ukweli,kichwa","hofu","f","5","html-keyboard-response","1137","f","hofu","true","",""
"1333.3999999910593","","","","","5","html-slider-response","1138","","","","4",""
"2120","window","kweli,nanga,kujenga,umaga","kweli","f","5","html-keyboard-response","1139","v","nanga","false","",""
"992.5","","","","","5","html-slider-response","1140","","","","1",""
"2096","bonfire","mwezi,goti,mfuko,kusanya","goti","v","5","html-keyboard-response","1141","v","goti","true","",""
"1046.5999999940395","","","","","5","html-slider-response","1142","","","","5",""
"2100","fish","bala,baho,buli,imani","buli","j","5","html-keyboard-response","1143","n","imani","false","",""
"954.0999999940395","","","","","5","html-slider-response","1144","","","","1",""
"2472","cat","neyemba,baki,paghukom,akili","paghukom","j","5","html-keyboard-response","1145","j","paghukom","true","",""
"1632.800000011921","","","","","5","html-slider-response","1146","","","","1",""
"4466","spider","kamwe,bunyag,mkboa,atop","kamwe","f","5","html-keyboard-response","1147","f","kamwe","true","",""
"1158.6000000089407","","","","","5","html-slider-response","1148","","","","2",""
"3590","eel","msumari,ishara,kunywa,kabuang","msumari","f","5","html-keyboard-response","1149","v","ishara","false","",""
"1232.5999999940395","","","","","5","html-slider-response","1150","","","","2",""
"2711","woman","pagtabon,bandari,bituin,kovuli","pagtabon","f","5","html-keyboard-response","1151","f","pagtabon","true","",""
"2582.6000000089407","","","","","5","html-slider-response","1152","","","","3",""
"2543","magazine","gundi,mchawi,kiti,bahandi","kiti","j","5","html-keyboard-response","1153","j","kiti","true","",""
"2483.6000000089407","","","","","5","html-slider-response","1154","","","","5",""
"3717","pudding","aibu,abug,mpishi,iring","aibu","f","5","html-keyboard-response","1155","f","aibu","true","",""
"1284.7999999970198","","","","","5","html-slider-response","1156","","","","1",""
"3007","lamp","daub,bilaska,afya,mbolea","afya","j","5","html-keyboard-response","1157","j","afya","true","",""
"1166.3999999910593","","","","","5","html-slider-response","1158","","","","1",""
"4122","cave","ganti,maisha,nyundo,kesho","kesho","n","5","html-keyboard-response","1159","n","kesho","true","",""
"1691.5999999940395","","","","","5","html-slider-response","1160","","","","1",""
"1846","shoulder","kelele,ndaniya,guruwe,mkuu","mkuu","n","5","html-keyboard-response","1161","n","mkuu","true","",""
"1607","","","","","5","html-slider-response","1162","","","","1",""
"3219","stone","ulimwengu,mkasi,wingi,asili","wingi","j","5","html-keyboard-response","1163","f","ulimwengu","false","",""
"1122.0999999940395","","","","","5","html-slider-response","1164","","","","1",""
"2020","column","ufagio,pundok,dila,pala","ufagio","f","5","html-keyboard-response","1165","v","pundok","false","",""
"1372.8999999910593","","","","","5","html-slider-response","1166","","","","1",""
"2792","page","wakala,ishiri,skina,wimbo","wimbo","n","5","html-keyboard-response","1167","j","skina","false","",""
"1471.9000000059605","","","","","5","html-slider-response","1168","","","","1",""
"2750","shoe","nyeusi,uyoga,hatua,kama","uyoga","v","5","html-keyboard-response","1169","j","hatua","false","",""
"1070.7000000029802","","","","","5","html-slider-response","1170","","","","1",""
"4430","clock","kartasi,abang,osha,mbwa","mbwa","n","5","html-keyboard-response","1171","n","mbwa","true","",""
"6308.800000011921","","","","","5","html-slider-response","1172","","","","3",""
"3215","towel","tembo,funzi,pagpalit,pito","pagpalit","j","5","html-keyboard-response","1173","n","pito","false","",""
"3167.6000000089407","","","","","5","html-slider-response","1174","","","","2",""
"1656","tomato","mvua,chupi,chupa,takatak","mvua","f","5","html-keyboard-response","1175","v","chupi","false","",""
"1494.6000000089407","","","","","5","html-slider-response","1176","","","","1",""
"2656","bucket","baga,ijayo,init,kiatu","kiatu","n","5","html-keyboard-response","1177","j","init","false","",""
"2165.7999999970198","","","","","5","html-slider-response","1178","","","","2",""
"2388","finger","moyo,simu,sufuria,lima","moyo","f","5","html-keyboard-response","1179","f","moyo","true","",""
"1143.5","","","","","5","html-slider-response","1180","","","","4",""
"2019","mother","kahawa,mbuzi,babaye,jokofu","babaye","j","5","html-keyboard-response","1181","j","babaye","true","",""
"1673.7999999970198","","","","","5","html-slider-response","1182","","","","5",""
"2242","human","bado,tinapay,kikapu,punguza","tinapay","v","5","html-keyboard-response","1183","v","tinapay","true","",""
"1118.7999999970198","","","","","5","html-slider-response","1184","","","","4",""
"5441","sun","basi,bendi,luha,uongo","basi","f","5","html-keyboard-response","1185","j","luha","false","",""
"1432.4000000059605","","","","","5","html-slider-response","1186","","","","2",""
"2991","fork","baboy,paghago,gorisi,mgonjwa","mgonjwa","n","5","html-keyboard-response","1187","n","mgonjwa","true","",""
"1021","","","","","5","html-slider-response","1188","","","","4",""
"2931","donkey","bloke,elfu,lalake,rombus","elfu","v","5","html-keyboard-response","1189","v","elfu","true","",""
"1512.7000000029802","","","","","5","html-slider-response","1190","","","","4",""
"5837","wolf","kaburi,ndizi,mchuzi,lugha","lugha","n","5","html-keyboard-response","1191","f","kaburi","false","",""
"1502.2999999970198","","","","","5","html-slider-response","1192","","","","1",""
"4617","cigar","adhabu,ndugu,kuta,mlango","adhabu","f","5","html-keyboard-response","1193","v","ndugu","false","",""
"1939.2000000029802","","","","","5","html-slider-response","1194","","","","2",""
"2558","olive","bata,siagi,jiwe,welder","jiwe","j","5","html-keyboard-response","1195","j","jiwe","true","",""
"1074","","","","","5","html-slider-response","1196","","","","2",""
"2937","key","miaka,chombo,goma,ahos","chombo","v","5","html-keyboard-response","1197","n","ahos","false","",""
"1295.7999999970198","","","","","5","html-slider-response","1198","","","","1",""
"2098","door","tena,surali,soko,nyota","surali","v","5","html-keyboard-response","1199","f","tena","false","",""
"1586.4000000059605","","","","","5","html-slider-response","1200","","","","1",""
"2571","wheel","punda,tawo,bafuni,baadaye","bafuni","j","5","html-keyboard-response","1201","n","baadaye","false","",""
"1312.5999999940395","","","","","5","html-slider-response","1202","","","","1",""
"2744","basket","kumbuka,utepe,hasira,kumba","kumba","n","5","html-keyboard-response","1203","j","hasira","false","",""
"1150.5","","","","","5","html-slider-response","1204","","","","1",""
"3215","elephant","petye,pagduol,suka,kito","kito","n","5","html-keyboard-response","1205","n","kito","true","",""
"1430","","","","","5","html-slider-response","1206","","","","5",""
"1798","office","hazini,yatima,kuna,leso","leso","n","5","html-keyboard-response","1207","n","leso","true","",""
"1113.800000011921","","","","","5","html-slider-response","1208","","","","5",""
"3000","music","mraba,baiski,mageho,tumbo","baiski","v","5","html-keyboard-response","1209","n","tumbo","false","",""
"2116.6000000089407","","","","","5","html-slider-response","1210","","","","2",""
"2342","tissue","lamigas,ugomvi,kisiwa,katika","ugomvi","v","5","html-keyboard-response","1211","j","kisiwa","false","",""
"1261.199999988079","","","","","5","html-slider-response","1212","","","","1",""
"2497","curtain","lisud,bulwawan,mchanga,chubani","mchanga","j","5","html-keyboard-response","1213","f","lisud","false","",""
"1356.800000011921","","","","","5","html-slider-response","1214","","","","1",""
"1962","flag","trekta,ndege,mkate,kawa","trekta","f","5","html-keyboard-response","1215","f","trekta","true","",""
"1311.5","","","","","5","html-slider-response","1216","","","","4",""
"2168","dog","bahari,lubi,washia,kalamu","bahari","f","5","html-keyboard-response","1217","j","washia","false","",""
"1284.800000011921","","","","","5","html-slider-response","1218","","","","1",""
"1922","cup","matumai,dagat,shimoni,jeraha","matumai","f","5","html-keyboard-response","1219","f","matumai","true","",""
"1574.7000000029802","","","","","5","html-slider-response","1220","","","","1",""
"2408","sheet","juuya,watu,bililhon,kamantis","bililhon","j","5","html-keyboard-response","1221","v","watu","false","",""
"1124.7999999970198","","","","","5","html-slider-response","1222","","","","1",""
"3249","spoon","betri,nzuri,pagsulod,ngazi","pagsulod","j","5","html-keyboard-response","1223","j","pagsulod","true","",""
"1254.300000011921","","","","","5","html-slider-response","1224","","","","1",""
"3979","flower","bega,tamasha,lobo,usiku","bega","f","5","html-keyboard-response","1225","n","usiku","false","",""
"1569.800000011921","","","","","5","html-slider-response","1226","","","","1",""
"4705","picture","kubwa,silya,chaki,asin","kubwa","f","5","html-keyboard-response","1227","n","asin","false","",""
"1257.6000000089407","","","","","5","html-slider-response","1228","","","","1",""
"2352","puppet","napulo,lamok,mazishi,godoro","mazishi","j","5","html-keyboard-response","1229","f","napulo","false","",""
"1720.5","","","","","5","html-slider-response","1230","","","","1",""
"2180","banana","kasamok,kazi,hagdan,twai","kazi","v","5","html-keyboard-response","1231","v","kazi","true","",""
"2327.0999999940395","","","","","5","html-slider-response","1232","","","","4",""
"1588","book","mali,kuhesa,picha,mara","mali","f","5","html-keyboard-response","1233","f","mali","true","",""
"1572.6000000089407","","","","","5","html-slider-response","1234","","","","5",""
"5568","triangle","kihozi,kasadpan,bentaha,liog","kasadpan","v","5","html-keyboard-response","1235","v","kasadpan","true","",""
"1453.5","","","","","5","html-slider-response","1236","","","","2",""
"2804","poster","nchi,fedha,madungog,kasuko","madungog","j","5","html-keyboard-response","1237","j","madungog","true","",""
"1327.7999999970198","","","","","5","html-slider-response","1238","","","","1",""
"1969","box","kuacha,rafiki,kitande,adui","adui","n","5","html-keyboard-response","1239","n","adui","true","",""
"1333.7000000029802","","","","","5","html-slider-response","1240","","","","4",""
"1945","mosquito","isda,martilyo,taras,gutom","martilyo","v","5","html-keyboard-response","1241","v","martilyo","true","",""
"1409.5","","","","","5","html-slider-response","1242","","","","5",""
"2614","shelf","bungtod,kadaot,pamahaw,awit","pamahaw","j","5","html-keyboard-response","1243","j","pamahaw","true","",""
"1168.199999988079","","","","","5","html-slider-response","1244","","","","1",""
"3305","scissors","duga,mtawa,suga,tanuri","tanuri","n","5","html-keyboard-response","1245","n","tanuri","true","",""
"3090.5","","","","","5","html-slider-response","1246","","","","3",""
"2515","hammer","mekno,kitovu,napakyas,layag","napakyas","j","5","html-keyboard-response","1247","v","kitovu","false","",""
"1136.4000000059605","","","","","5","html-slider-response","1248","","","","1",""
