"rt","en_word","options","swa_word","correct_answer","phase","trial_type","trial_index","input_answer","input_word","accuracy","certainty","amt_choices"
"10548","bonfire","goti,mwezi,mfuko,kusanya","goti","f","2","html-keyboard-response","106","f","goti","true","",""
"17245.900000095367","","","","","2","html-slider-response","107","","","","1",""
"6706","flower","tamasha,bega,lobo,usiku","bega","v","2","html-keyboard-response","108","v","bega","true","",""
"2059.899999856949","","","","","2","html-slider-response","109","","","","4",""
"4915","column","pundok,ufagio,dila,pala","ufagio","v","2","html-keyboard-response","110","v","ufagio","true","",""
"2774.9000000953674","","","","","2","html-slider-response","111","","","","4",""
"6528","music","mraba,baiski,mageho,tumbo","baiski","v","2","html-keyboard-response","112","j","mageho","false","",""
"2426.2999999523163","","","","","2","html-slider-response","113","","","","2",""
"4915","spider","bunyag,mkboa,atop,kamwe","kamwe","n","2","html-keyboard-response","114","n","kamwe","true","",""
"2053.5","","","","","2","html-slider-response","115","","","","4",""
"4045","fork","mgonjwa,baboy,paghago,gorisi","mgonjwa","f","2","html-keyboard-response","116","f","mgonjwa","true","",""
"1915.7999999523163","","","","","2","html-slider-response","117","","","","4",""
"3933","mosquito","isda,taras,gutom,martilyo","martilyo","n","2","html-keyboard-response","118","n","martilyo","true","",""
"1962.7000000476837","","","","","2","html-slider-response","119","","","","4",""
"11918","banana","kasamok,hagdan,kazi,twai","kazi","j","2","html-keyboard-response","120","f","kasamok","false","",""
"7274.399999856949","","","","","2","html-slider-response","121","","","","3",""
"11427","cup","dagat,matumai,shimoni,jeraha","matumai","v","2","html-keyboard-response","122","v","matumai","true","",""
"2128.2000000476837","","","","","2","html-slider-response","123","","","","2",""
"3417","shop","nopya,kerida,ndezu,samaki","samaki","n","2","html-keyboard-response","124","n","samaki","true","",""
"1910.5","","","","","2","html-slider-response","125","","","","4",""
"4299","elephant","petye,pagduol,kito,suka","kito","j","2","html-keyboard-response","126","j","kito","true","",""
"2352.199999809265","","","","","2","html-slider-response","127","","","","4",""
"7024","bucket","baga,kiatu,ijayo,init","kiatu","v","2","html-keyboard-response","128","f","baga","false","",""
"1951.5","","","","","2","html-slider-response","129","","","","2",""
"4008","book","kuhesa,picha,mara,mali","mali","n","2","html-keyboard-response","130","n","mali","true","",""
"1759.9000000953674","","","","","2","html-slider-response","131","","","","4",""
"5679","mirror","rangi,sulagma,kanding,furaha","sulagma","v","2","html-keyboard-response","132","v","sulagma","true","",""
"2596.600000143051","","","","","2","html-slider-response","133","","","","2",""
"3086","office","leso,hazini,yatima,kuna","leso","f","2","html-keyboard-response","134","f","leso","true","",""
"2111.7999999523163","","","","","2","html-slider-response","135","","","","5",""
"3165","body","nyundu,jibini,kununa,tindashan","tindashan","n","2","html-keyboard-response","136","n","tindashan","true","",""
"1635","","","","","2","html-slider-response","137","","","","5",""
"5794","perfume","katuyoan,bino,sungura,ndogo","katuyoan","f","2","html-keyboard-response","138","f","katuyoan","true","",""
"2861.5999999046326","","","","","2","html-slider-response","139","","","","2",""
"6559","olive","bata,jiwe,siagi,welder","jiwe","v","2","html-keyboard-response","140","v","jiwe","true","",""
"2104.2999999523163","","","","","2","html-slider-response","141","","","","2",""
"4955","magazine","kiti,gundi,mchawi,bahandi","kiti","f","2","html-keyboard-response","142","f","kiti","true","",""
"1782.1000001430511","","","","","2","html-slider-response","143","","","","5",""
"4476","bread","kaili,dari,dizeli,bugas","dari","v","2","html-keyboard-response","144","v","dari","true","",""
"3389.100000143051","","","","","2","html-slider-response","145","","","","3",""
"3018","cave","ganti,maisha,nyundo,kesho","kesho","n","2","html-keyboard-response","146","n","kesho","true","",""
"1861.9000000953674","","","","","2","html-slider-response","147","","","","4",""
"3837","ladder","pangalan,mashua,mwanga,kamba","pangalan","f","2","html-keyboard-response","148","f","pangalan","true","",""
"1696.4000000953674","","","","","2","html-slider-response","149","","","","4",""
"3572","human","tinapay,bado,kikapu,punguza","tinapay","f","2","html-keyboard-response","150","f","tinapay","true","",""
"1913.7000000476837","","","","","2","html-slider-response","151","","","","5",""
"3380","clock","kartasi,abang,osha,mbwa","mbwa","n","2","html-keyboard-response","152","n","mbwa","true","",""
"1707.8000001907349","","","","","2","html-slider-response","153","","","","4",""
"4721","shelf","bungtod,pamahaw,kadaot,awit","pamahaw","v","2","html-keyboard-response","154","v","pamahaw","true","",""
"2424","","","","","2","html-slider-response","155","","","","4",""
"3321","salmon","mzungu,seri,sensilyo,baharia","sensilyo","j","2","html-keyboard-response","156","j","sensilyo","true","",""
"5237.200000047684","","","","","2","html-slider-response","157","","","","3",""
"2896","coffin","barua,tubag,hulma,kioo","kioo","n","2","html-keyboard-response","158","n","kioo","true","",""
"1788","","","","","2","html-slider-response","159","","","","4",""
"8489","notebook","msitu,kila,kemia,mdudu","kemia","j","2","html-keyboard-response","160","f","msitu","false","",""
"1810.7999999523163","","","","","2","html-slider-response","161","","","","2",""
"6980","shoulder","mkuu,kelele,ndaniya,guruwe","mkuu","f","2","html-keyboard-response","162","f","mkuu","true","",""
"4685.199999809265","","","","","2","html-slider-response","163","","","","3",""
"3518","park","bunifu,tambok,pwani,ihalas","bunifu","f","2","html-keyboard-response","164","f","bunifu","true","",""
"1628.4000000953674","","","","","2","html-slider-response","165","","","","4",""
"9013","number","shule,kengele,mundamo,choori","mundamo","j","2","html-keyboard-response","166","j","mundamo","true","",""
"1985.2000000476837","","","","","2","html-slider-response","167","","","","2",""
"3675","apple","ukame,kisu,estante,edad","kisu","v","2","html-keyboard-response","168","v","kisu","true","",""
"2747.199999809265","","","","","2","html-slider-response","169","","","","3",""
"3657","letter","filimbi,chuma,uhuru,kifua","kifua","n","2","html-keyboard-response","170","n","kifua","true","",""
"2922.5","","","","","2","html-slider-response","171","","","","2",""
"6543","eel","ishara,kunywa,kabuang,msumari","msumari","n","2","html-keyboard-response","172","n","msumari","true","",""
"1742.7999999523163","","","","","2","html-slider-response","173","","","","2",""
"4214","cop","bustani,mechezo,jikoni,bakus","mechezo","v","2","html-keyboard-response","174","v","mechezo","true","",""
"1690.7999999523163","","","","","2","html-slider-response","175","","","","4",""
"2677","wolf","kaburi,ndizi,lugha,mchuzi","lugha","j","2","html-keyboard-response","176","j","lugha","true","",""
"1733.7000000476837","","","","","2","html-slider-response","177","","","","5",""
"2492","squirrel","mahugaw,ukweli,hofu,kichwa","hofu","j","2","html-keyboard-response","178","j","hofu","true","",""
"1822.3999998569489","","","","","2","html-slider-response","179","","","","4",""
"5501","nose","gubat,sehemu,kopa,kidole","sehemu","v","2","html-keyboard-response","180","v","sehemu","true","",""
"1862.7999999523163","","","","","2","html-slider-response","181","","","","4",""
"2710","sock","ndoora,kimysa,mamba,mtirka","mamba","j","2","html-keyboard-response","182","j","mamba","true","",""
"2353.2999999523163","","","","","2","html-slider-response","183","","","","5",""
"5660","bank","silingan,kudhibi,tualya,ofisi","silingan","f","2","html-keyboard-response","184","n","ofisi","false","",""
"2792.399999856949","","","","","2","html-slider-response","185","","","","3",""
"3279","donkey","bloke,lalake,elfu,rombus","elfu","j","2","html-keyboard-response","186","j","elfu","true","",""
"1676.2999999523163","","","","","2","html-slider-response","187","","","","5",""
"6599","poster","nchi,madungog,fedha,kasuko","madungog","v","2","html-keyboard-response","188","v","madungog","true","",""
"1971.6000001430511","","","","","2","html-slider-response","189","","","","2",""
"9780","puppet","napulo,mazishi,lamok,godoro","mazishi","v","2","html-keyboard-response","190","j","lamok","false","",""
"2130.199999809265","","","","","2","html-slider-response","191","","","","2",""
"4456","hill","kushoto,kukimba,sweta,matumbo","matumbo","n","2","html-keyboard-response","192","v","kukimba","false","",""
"2474.7999999523163","","","","","2","html-slider-response","193","","","","3",""
"9342","tooth","kijiko,kabalaka,uadui,pahiyum","kabalaka","v","2","html-keyboard-response","194","n","pahiyum","false","",""
"2870.100000143051","","","","","2","html-slider-response","195","","","","3",""
"5392","woman","bandari,pagtabon,bituin,kovuli","pagtabon","v","2","html-keyboard-response","196","v","pagtabon","true","",""
"2487.7000000476837","","","","","2","html-slider-response","197","","","","3",""
"5875","wheel","punda,tawo,baadaye,bafuni","bafuni","n","2","html-keyboard-response","198","n","bafuni","true","",""
"2052.2000000476837","","","","","2","html-slider-response","199","","","","1",""
"2799","mother","babaye,kahawa,mbuzi,jokofu","babaye","f","2","html-keyboard-response","200","f","babaye","true","",""
"2066.7999999523163","","","","","2","html-slider-response","201","","","","5",""
"5153","bed","mapintas,kalipay,haraka,starehe","mapintas","f","2","html-keyboard-response","202","f","mapintas","true","",""
"2469.9000000953674","","","","","2","html-slider-response","203","","","","5",""
"3679","key","miaka,goma,chombo,ahos","chombo","j","2","html-keyboard-response","204","j","chombo","true","",""
"1973.7000000476837","","","","","2","html-slider-response","205","","","","4",""
"2919","page","wimbo,wakala,ishiri,skina","wimbo","f","2","html-keyboard-response","206","f","wimbo","true","",""
"2030.2999999523163","","","","","2","html-slider-response","207","","","","4",""
"3677","pants","haki,pintal,chuki,hari","haki","f","2","html-keyboard-response","208","f","haki","true","",""
"1697.4000000953674","","","","","2","html-slider-response","209","","","","4",""
"2462","sun","bendi,luha,uongo,basi","basi","n","2","html-keyboard-response","210","n","basi","true","",""
"1778.5999999046326","","","","","2","html-slider-response","211","","","","4",""
"4060","finger","simu,moyo,sufuria,lima","moyo","v","2","html-keyboard-response","212","f","simu","false","",""
"1619.7999999523163","","","","","2","html-slider-response","213","","","","4",""
"5254","shoe","nyeusi,uyoga,hatua,kama","uyoga","v","2","html-keyboard-response","214","n","kama","false","",""
"1879.0999999046326","","","","","2","html-slider-response","215","","","","2",""
"3185","giraffe","mahitabo,daraja,jumatu,hangyo","mahitabo","f","2","html-keyboard-response","216","f","mahitabo","true","",""
"1614.5","","","","","2","html-slider-response","217","","","","4",""
"5440","dog","lubi,bahari,washia,kalamu","bahari","v","2","html-keyboard-response","218","j","washia","false","",""
"2011.5999999046326","","","","","2","html-slider-response","219","","","","2",""
"7027","box","kuacha,adui,rafiki,kitande","adui","v","2","html-keyboard-response","220","v","adui","true","",""
"2455.0999999046326","","","","","2","html-slider-response","221","","","","4",""
"3855","scissors","duga,mtawa,suga,tanuri","tanuri","n","2","html-keyboard-response","222","n","tanuri","true","",""
"2006.2999999523163","","","","","2","html-slider-response","223","","","","4",""
"5642","cat","neyemba,paghukom,baki,akili","paghukom","v","2","html-keyboard-response","224","n","akili","false","",""
"2049.4000000953674","","","","","2","html-slider-response","225","","","","2",""
"5116","basket","kumba,kumbuka,utepe,hasira","kumba","f","2","html-keyboard-response","226","f","kumba","true","",""
"3464.4000000953674","","","","","2","html-slider-response","227","","","","1",""
"4050","snake","jansa,karon,pagtukod,mvringo","pagtukod","j","2","html-keyboard-response","228","j","pagtukod","true","",""
"3351.7999999523163","","","","","2","html-slider-response","229","","","","3",""
"5998","gift","baba,nyange,pagtawag,baso","pagtawag","j","2","html-keyboard-response","230","n","baso","false","",""
"2111.399999856949","","","","","2","html-slider-response","231","","","","2",""
"3422","train","itik,dakika,sayari,mungu","sayari","j","2","html-keyboard-response","232","j","sayari","true","",""
"3002.0999999046326","","","","","2","html-slider-response","233","","","","4",""
"4326","pudding","abug,mpishi,iring,aibu","aibu","n","2","html-keyboard-response","234","n","aibu","true","",""
"2313.199999809265","","","","","2","html-slider-response","235","","","","2",""
"5562","tomato","chupi,chupa,takatak,mvua","mvua","n","2","html-keyboard-response","236","n","mvua","true","",""
"1874.1999998092651","","","","","2","html-slider-response","237","","","","1",""
"2321","stone","wingi,ulimwengu,mkasi,asili","wingi","f","2","html-keyboard-response","238","f","wingi","true","",""
"1966.7000000476837","","","","","2","html-slider-response","239","","","","5",""
"8878","hammer","mekno,kitovu,layag,napakyas","napakyas","n","2","html-keyboard-response","240","n","napakyas","true","",""
"3747.7000000476837","","","","","2","html-slider-response","241","","","","1",""
"2246","knee","mvuke,kubale,duka,bili","duka","j","2","html-keyboard-response","242","j","duka","true","",""
"2232.7999999523163","","","","","2","html-slider-response","243","","","","4",""
"8632","ceiling","kugita,kawaida,maua,rayna","maua","j","2","html-keyboard-response","244","j","maua","true","",""
"2166.4000000953674","","","","","2","html-slider-response","245","","","","5",""
"3115","spoon","pagsulod,betri,nzuri,ngazi","pagsulod","f","2","html-keyboard-response","246","f","pagsulod","true","",""
"1947.7999999523163","","","","","2","html-slider-response","247","","","","4",""
"5225","marker","maji,mapafu,salita,atay","maji","f","2","html-keyboard-response","248","j","salita","false","",""
"2063.699999809265","","","","","2","html-slider-response","249","","","","2",""
"6527","candle","gabi,farasi,kupanda,geza","geza","n","2","html-keyboard-response","250","n","geza","true","",""
"2061.5","","","","","2","html-slider-response","251","","","","2",""
"6088","tissue","lamigas,kisiwa,katika,ugomvi","ugomvi","n","2","html-keyboard-response","252","f","lamigas","false","",""
"2243","","","","","2","html-slider-response","253","","","","1",""
"3772","bridge","sahani,daima,ngono,panya","sahani","f","2","html-keyboard-response","254","j","ngono","false","",""
"1982.2999999523163","","","","","2","html-slider-response","255","","","","1",""
"2694","berry","abogado,kofia,nogozi,kinywa","kofia","v","2","html-keyboard-response","256","v","kofia","true","",""
"2588.2999999523163","","","","","2","html-slider-response","257","","","","2",""
"6881","triangle","kihozi,bentaha,liog,kasadpan","kasadpan","n","2","html-keyboard-response","258","n","kasadpan","true","",""
"1748.5","","","","","2","html-slider-response","259","","","","2",""
"3872","door","tena,soko,nyota,surali","surali","n","2","html-keyboard-response","260","n","surali","true","",""
"2357.2000000476837","","","","","2","html-slider-response","261","","","","2",""
"7595","fish","bala,baho,imani,buli","buli","n","2","html-keyboard-response","262","f","bala","false","",""
"2372","","","","","2","html-slider-response","263","","","","2",""
"3641","curtain","mchanga,lisud,bulwawan,chubani","mchanga","f","2","html-keyboard-response","264","f","mchanga","true","",""
"2094.7000000476837","","","","","2","html-slider-response","265","","","","4",""
"2586","flag","ndege,mkate,kawa,trekta","trekta","n","2","html-keyboard-response","266","n","trekta","true","",""
"1758.1999998092651","","","","","2","html-slider-response","267","","","","4",""
"3926","boat","hamsi,agalon,pombe,kitanda","agalon","v","2","html-keyboard-response","268","v","agalon","true","",""
"2318.600000143051","","","","","2","html-slider-response","269","","","","4",""
"5700","rose","singizi,mwanake,amani,paghalad","paghalad","n","2","html-keyboard-response","270","v","mwanake","false","",""
"2126.5","","","","","2","html-slider-response","271","","","","1",""
"2737","lamp","daub,afya,bilaska,mbolea","afya","v","2","html-keyboard-response","272","v","afya","true","",""
"2539","","","","","2","html-slider-response","273","","","","4",""
"4557","cigar","ndugu,kuta,mlango,adhabu","adhabu","n","2","html-keyboard-response","274","j","mlango","false","",""
"1812.2999999523163","","","","","2","html-slider-response","275","","","","1",""
"4908","list","alizeti,wingu,kuzama,kaso","wingu","v","2","html-keyboard-response","276","v","wingu","true","",""
"1777.2000000476837","","","","","2","html-slider-response","277","","","","2",""
"4730","sheet","juuya,bililhon,watu,kamantis","bililhon","v","2","html-keyboard-response","278","j","watu","false","",""
"3493.7999999523163","","","","","2","html-slider-response","279","","","","2",""
"6183","picture","silya,chaki,asin,kubwa","kubwa","n","2","html-keyboard-response","280","f","silya","false","",""
"1771.0999999046326","","","","","2","html-slider-response","281","","","","2",""
"4047","towel","pagpalit,tembo,funzi,pito","pagpalit","f","2","html-keyboard-response","282","f","pagpalit","true","",""
"1782.8000001907349","","","","","2","html-slider-response","283","","","","4",""
"3855","window","nanga,kujenga,kweli,umaga","kweli","j","2","html-keyboard-response","284","j","kweli","true","",""
"2560.7999999523163","","","","","2","html-slider-response","285","","","","4",""
"3059","box","kuacha,rafiki,adui,kitande","adui","j","3","html-keyboard-response","293","j","adui","true","","4"
"2268.4000000953674","","","","","3","html-slider-response","294","","","","4",""
"1143","","","","","3","html-keyboard-response","295","","","","",""
"2122","pants","pintal,haki,chuki,hari","haki","v","3","html-keyboard-response","296","n","hari","false","","4"
"2521.9000000953674","","","","","3","html-slider-response","297","","","","4",""
"6191","","","","","3","html-keyboard-response","298","","","","",""
"6363","cup","matumai,dagat,shimoni,jeraha","matumai","f","3","html-keyboard-response","299","v","dagat","false","","4"
"2297","","","","","3","html-slider-response","300","","","","1",""
"5751","","","","","3","html-keyboard-response","301","","","","",""
"3551","triangle","kasadpan,kihozi,bentaha,liog","kasadpan","f","3","html-keyboard-response","302","f","kasadpan","true","","4"
"2199.5999999046326","","","","","3","html-slider-response","303","","","","2",""
"3143","","","","","3","html-keyboard-response","304","","","","",""
"4212","curtain","lisud,bulwawan,chubani,mchanga","mchanga","n","3","html-keyboard-response","305","n","mchanga","true","","4"
"2138.5999999046326","","","","","3","html-slider-response","306","","","","4",""
"1301","","","","","3","html-keyboard-response","307","","","","",""
"2720","clock","mbwa,kartasi,abang,osha","mbwa","f","3","html-keyboard-response","308","f","mbwa","true","","4"
"3402.199999809265","","","","","3","html-slider-response","309","","","","4",""
"1372","","","","","3","html-keyboard-response","310","","","","",""
"3155","mirror","rangi,kanding,sulagma,furaha","sulagma","j","3","html-keyboard-response","311","j","sulagma","true","","4"
"3375.399999856949","","","","","3","html-slider-response","312","","","","4",""
"964","","","","","3","html-keyboard-response","313","","","","",""
"2456","coffin","barua,kioo,tubag,hulma","kioo","v","3","html-keyboard-response","314","v","kioo","true","","1"
"1908.5999999046326","","","","","3","html-slider-response","315","","","","5",""
"1072","","","","","3","html-keyboard-response","316","","","","",""
"3299","magazine","gundi,kiti,mchawi,bahandi","kiti","v","3","html-keyboard-response","317","v","kiti","true","","4"
"1870.4000000953674","","","","","3","html-slider-response","318","","","","5",""
"975","","","","","3","html-keyboard-response","319","","","","",""
"2224","column","pundok,ufagio,dila,pala","ufagio","v","3","html-keyboard-response","320","v","ufagio","true","","1"
"1947.5999999046326","","","","","3","html-slider-response","321","","","","5",""
"1838","","","","","3","html-keyboard-response","322","","","","",""
"4631","number","shule,kengele,mundamo,choori","mundamo","j","3","html-keyboard-response","323","v","kengele","false","","4"
"2301.100000143051","","","","","3","html-slider-response","324","","","","2",""
"4234","","","","","3","html-keyboard-response","325","","","","",""
"2523","rose","paghalad,singizi,mwanake,amani","paghalad","f","3","html-keyboard-response","326","n","amani","false","","4"
"2604.2000000476837","","","","","3","html-slider-response","327","","","","1",""
"4404","","","","","3","html-keyboard-response","328","","","","",""
"6210","eel","ishara,msumari,kunywa,kabuang","msumari","v","3","html-keyboard-response","329","f","ishara","false","","4"
"1743.7000000476837","","","","","3","html-slider-response","330","","","","2",""
"4207","","","","","3","html-keyboard-response","331","","","","",""
"3129","gift","pagtawag,baba,nyange,baso","pagtawag","f","3","html-keyboard-response","332","n","baso","false","","4"
"2156.300000190735","","","","","3","html-slider-response","333","","","","1",""
"3558","","","","","3","html-keyboard-response","334","","","","",""
"2199","apple","ukame,estante,kisu,edad","kisu","j","3","html-keyboard-response","335","j","kisu","true","","1"
"3161.9000000953674","","","","","3","html-slider-response","336","","","","5",""
"2224","","","","","3","html-keyboard-response","337","","","","",""
"2869","wheel","punda,tawo,bafuni,baadaye","bafuni","j","3","html-keyboard-response","338","j","bafuni","true","","1"
"2990.0999999046326","","","","","3","html-slider-response","339","","","","5",""
"4410","","","","","3","html-keyboard-response","340","","","","",""
"2301","knee","mvuke,kubale,bili,duka","duka","n","3","html-keyboard-response","341","n","duka","true","","4"
"1742.5","","","","","3","html-slider-response","342","","","","5",""
"1169","","","","","3","html-keyboard-response","343","","","","",""
"2297","basket","kumba,kumbuka,utepe,hasira","kumba","f","3","html-keyboard-response","344","f","kumba","true","","1"
"2379.9000000953674","","","","","3","html-slider-response","345","","","","4",""
"1426","","","","","3","html-keyboard-response","346","","","","",""
"2327","park","bunifu,tambok,pwani,ihalas","bunifu","f","3","html-keyboard-response","347","f","bunifu","true","","4"
"1553.6000001430511","","","","","3","html-slider-response","348","","","","4",""
"856","","","","","3","html-keyboard-response","349","","","","",""
"1904","finger","simu,moyo,sufuria,lima","moyo","v","3","html-keyboard-response","350","f","simu","false","","4"
"2359.7999999523163","","","","","3","html-slider-response","351","","","","4",""
"13593","","","","","3","html-keyboard-response","352","","","","",""
"3089","boat","agalon,hamsi,pombe,kitanda","agalon","f","3","html-keyboard-response","353","f","agalon","true","","4"
"1891.7000000476837","","","","","3","html-slider-response","354","","","","4",""
"1293","","","","","3","html-keyboard-response","355","","","","",""
"3284","hill","matumbo,kushoto,kukimba,sweta","matumbo","f","3","html-keyboard-response","356","v","kushoto","false","","4"
"2133.0999999046326","","","","","3","html-slider-response","357","","","","1",""
"7418","","","","","3","html-keyboard-response","358","","","","",""
"2460","train","sayari,itik,dakika,mungu","sayari","f","3","html-keyboard-response","359","f","sayari","true","","4"
"1978","","","","","3","html-slider-response","360","","","","4",""
"4431","","","","","3","html-keyboard-response","361","","","","",""
"1944","wolf","lugha,kaburi,ndizi,mchuzi","lugha","f","3","html-keyboard-response","362","f","lugha","true","","4"
"2213.699999809265","","","","","3","html-slider-response","363","","","","5",""
"871","","","","","3","html-keyboard-response","364","","","","",""
"3968","snake","jansa,karon,mvringo,pagtukod","pagtukod","n","3","html-keyboard-response","365","n","pagtukod","true","","4"
"2135.7999999523163","","","","","3","html-slider-response","366","","","","4",""
"1547","","","","","3","html-keyboard-response","367","","","","",""
"2653","tooth","kijiko,kabalaka,uadui,pahiyum","kabalaka","v","3","html-keyboard-response","368","n","pahiyum","false","","4"
"2720.2999999523163","","","","","3","html-slider-response","369","","","","2",""
"10247","","","","","3","html-keyboard-response","370","","","","",""
"4062","notebook","msitu,kila,kemia,mdudu","kemia","j","3","html-keyboard-response","371","f","msitu","false","","4"
"1953.8999998569489","","","","","3","html-slider-response","372","","","","2",""
"8011","","","","","3","html-keyboard-response","373","","","","",""
"2619","flag","trekta,ndege,mkate,kawa","trekta","f","3","html-keyboard-response","374","f","trekta","true","","4"
"1999.3000001907349","","","","","3","html-slider-response","375","","","","5",""
"753","","","","","3","html-keyboard-response","376","","","","",""
"2112","squirrel","mahugaw,ukweli,hofu,kichwa","hofu","j","3","html-keyboard-response","377","j","hofu","true","","4"
"3831","","","","","3","html-slider-response","378","","","","2",""
"1611","","","","","3","html-keyboard-response","379","","","","",""
"5184","door","surali,tena,soko,nyota","surali","f","3","html-keyboard-response","380","j","soko","false","","4"
"2508.4000000953674","","","","","3","html-slider-response","381","","","","2",""
"12500","","","","","3","html-keyboard-response","382","","","","",""
"4020","salmon","mzungu,seri,baharia,sensilyo","sensilyo","n","3","html-keyboard-response","383","n","sensilyo","true","","4"
"2819.2000000476837","","","","","3","html-slider-response","384","","","","2",""
"3180","","","","","3","html-keyboard-response","385","","","","",""
"2540","shoulder","kelele,ndaniya,mkuu,guruwe","mkuu","j","3","html-keyboard-response","386","j","mkuu","true","","4"
"2399","","","","","3","html-slider-response","387","","","","2",""
"3755","","","","","3","html-keyboard-response","388","","","","",""
"4583","lamp","daub,bilaska,afya,mbolea","afya","j","3","html-keyboard-response","389","f","daub","false","","4"
"2186.2000000476837","","","","","3","html-slider-response","390","","","","4",""
"5576","","","","","3","html-keyboard-response","391","","","","",""
"2359","shelf","bungtod,kadaot,pamahaw,awit","pamahaw","j","3","html-keyboard-response","392","j","pamahaw","true","","1"
"1938","","","","","3","html-slider-response","393","","","","5",""
"1270","","","","","3","html-keyboard-response","394","","","","",""
"2351","human","bado,kikapu,punguza,tinapay","tinapay","n","3","html-keyboard-response","395","n","tinapay","true","","4"
"1804.5","","","","","3","html-slider-response","396","","","","5",""
"1072","","","","","3","html-keyboard-response","397","","","","",""
"3031","towel","tembo,pagpalit,funzi,pito","pagpalit","v","3","html-keyboard-response","398","v","pagpalit","true","","4"
"2291","","","","","3","html-slider-response","399","","","","4",""
"1085","","","","","3","html-keyboard-response","400","","","","",""
"3065","cat","neyemba,paghukom,baki,akili","paghukom","v","3","html-keyboard-response","401","n","akili","false","","4"
"2391.5999999046326","","","","","3","html-slider-response","402","","","","1",""
"18632","","","","","3","html-keyboard-response","403","","","","",""
"7123","spider","kamwe,bunyag,mkboa,atop","kamwe","f","3","html-keyboard-response","404","f","kamwe","true","","4"
"2234.100000143051","","","","","3","html-slider-response","405","","","","1",""
"5460","","","","","3","html-keyboard-response","406","","","","",""
"6342","window","nanga,kujenga,kweli,umaga","kweli","j","3","html-keyboard-response","407","j","kweli","true","","4"
"2323","","","","","3","html-slider-response","408","","","","4",""
"723","","","","","3","html-keyboard-response","409","","","","",""
"2019","woman","bandari,bituin,pagtabon,kovuli","pagtabon","j","3","html-keyboard-response","410","j","pagtabon","true","","1"
"3270.100000143051","","","","","3","html-slider-response","411","","","","4",""
"5181","","","","","3","html-keyboard-response","412","","","","",""
"3983","giraffe","daraja,jumatu,hangyo,mahitabo","mahitabo","n","3","html-keyboard-response","413","n","mahitabo","true","","4"
"1656.6000001430511","","","","","3","html-slider-response","414","","","","2",""
"5702","","","","","3","html-keyboard-response","415","","","","",""
"3280","elephant","kito,petye,pagduol,suka","kito","f","3","html-keyboard-response","416","f","kito","true","","4"
"1466.7000000476837","","","","","3","html-slider-response","417","","","","4",""
"1231","","","","","3","html-keyboard-response","418","","","","",""
"2744","cave","kesho,ganti,maisha,nyundo","kesho","f","3","html-keyboard-response","419","f","kesho","true","","4"
"1849.7000000476837","","","","","3","html-slider-response","420","","","","2",""
"1660","","","","","3","html-keyboard-response","421","","","","",""
"4245","bread","kaili,dizeli,dari,bugas","dari","j","3","html-keyboard-response","422","j","dari","true","","4"
"4416.600000143051","","","","","3","html-slider-response","423","","","","3",""
"1254","","","","","3","html-keyboard-response","424","","","","",""
"2213","stone","wingi,ulimwengu,mkasi,asili","wingi","f","3","html-keyboard-response","425","f","wingi","true","","4"
"2026.2999999523163","","","","","3","html-slider-response","426","","","","4",""
"1432","","","","","3","html-keyboard-response","427","","","","",""
"2529","donkey","bloke,lalake,rombus,elfu","elfu","n","3","html-keyboard-response","428","n","elfu","true","","4"
"2923.899999856949","","","","","3","html-slider-response","429","","","","5",""
"1118","","","","","3","html-keyboard-response","430","","","","",""
"3528","bridge","daima,ngono,sahani,panya","sahani","j","3","html-keyboard-response","431","v","ngono","false","","4"
"3927.7999999523163","","","","","3","html-slider-response","432","","","","2",""
"10026","","","","","3","html-keyboard-response","433","","","","",""
"8494","bonfire","mwezi,mfuko,kusanya,goti","goti","n","3","html-keyboard-response","434","n","goti","true","","4"
"2014.2999999523163","","","","","3","html-slider-response","435","","","","4",""
"1716","","","","","3","html-keyboard-response","436","","","","",""
"5854","book","kuhesa,picha,mara,mali","mali","n","3","html-keyboard-response","437","n","mali","true","","4"
"1997","","","","","3","html-slider-response","438","","","","4",""
"1196","","","","","3","html-keyboard-response","439","","","","",""
"5749","fish","bala,baho,imani,buli","buli","n","3","html-keyboard-response","440","n","buli","true","","4"
"2251.9000000953674","","","","","3","html-slider-response","441","","","","2",""
"4554","","","","","3","html-keyboard-response","442","","","","",""
"2377","spoon","betri,nzuri,pagsulod,ngazi","pagsulod","j","3","html-keyboard-response","443","j","pagsulod","true","","4"
"1906.3000001907349","","","","","3","html-slider-response","444","","","","4",""
"1531","","","","","3","html-keyboard-response","445","","","","",""
"2624","scissors","tanuri,duga,mtawa,suga","tanuri","f","3","html-keyboard-response","446","f","tanuri","true","","4"
"3246.9000000953674","","","","","3","html-slider-response","447","","","","4",""
"1290","","","","","3","html-keyboard-response","448","","","","",""
"3148","page","wimbo,wakala,ishiri,skina","wimbo","f","3","html-keyboard-response","449","f","wimbo","true","","4"
"2162.5999999046326","","","","","3","html-slider-response","450","","","","4",""
"1409","","","","","3","html-keyboard-response","451","","","","",""
"2380","nose","gubat,kopa,kidole,sehemu","sehemu","n","3","html-keyboard-response","452","n","sehemu","true","","1"
"2572.5","","","","","3","html-slider-response","453","","","","4",""
"1348","","","","","3","html-keyboard-response","454","","","","",""
"2158","ceiling","kugita,kawaida,maua,rayna","maua","j","3","html-keyboard-response","455","j","maua","true","","4"
"1981.5999999046326","","","","","3","html-slider-response","456","","","","5",""
"889","","","","","3","html-keyboard-response","457","","","","",""
"2532","bucket","baga,ijayo,init,kiatu","kiatu","n","3","html-keyboard-response","458","f","baga","false","","4"
"2731.5","","","","","3","html-slider-response","459","","","","1",""
"7251","","","","","3","html-keyboard-response","460","","","","",""
"2263","berry","abogado,nogozi,kofia,kinywa","kofia","j","3","html-keyboard-response","461","j","kofia","true","","1"
"2027","","","","","3","html-slider-response","462","","","","5",""
"1305","","","","","3","html-keyboard-response","463","","","","",""
"2690","mother","kahawa,mbuzi,jokofu,babaye","babaye","n","3","html-keyboard-response","464","n","babaye","true","","1"
"1936.8999998569489","","","","","3","html-slider-response","465","","","","5",""
"1053","","","","","3","html-keyboard-response","466","","","","",""
"2097","mosquito","isda,taras,gutom,martilyo","martilyo","n","3","html-keyboard-response","467","n","martilyo","true","","4"
"1852.1999998092651","","","","","3","html-slider-response","468","","","","5",""
"744","","","","","3","html-keyboard-response","469","","","","",""
"7465","perfume","bino,katuyoan,sungura,ndogo","katuyoan","v","3","html-keyboard-response","470","v","katuyoan","true","","4"
"2402.100000143051","","","","","3","html-slider-response","471","","","","2",""
"17615","","","","","3","html-keyboard-response","472","","","","",""
"2680","sheet","juuya,watu,bililhon,kamantis","bililhon","j","3","html-keyboard-response","473","v","watu","false","","4"
"1957","","","","","3","html-slider-response","474","","","","2",""
"3538","","","","","3","html-keyboard-response","475","","","","",""
"5450","puppet","napulo,mazishi,lamok,godoro","mazishi","v","3","html-keyboard-response","476","v","mazishi","true","","1"
"3040.399999856949","","","","","3","html-slider-response","477","","","","5",""
"1867","","","","","3","html-keyboard-response","478","","","","",""
"3053","poster","madungog,nchi,fedha,kasuko","madungog","f","3","html-keyboard-response","479","v","nchi","false","","4"
"1926.2999999523163","","","","","3","html-slider-response","480","","","","1",""
"11254","","","","","3","html-keyboard-response","481","","","","",""
"4001","music","mraba,baiski,mageho,tumbo","baiski","v","3","html-keyboard-response","482","j","mageho","false","","4"
"2023.9000000953674","","","","","3","html-slider-response","483","","","","1",""
"4471","","","","","3","html-keyboard-response","484","","","","",""
"2566","key","miaka,chombo,goma,ahos","chombo","v","3","html-keyboard-response","485","v","chombo","true","","4"
"2052.0999999046326","","","","","3","html-slider-response","486","","","","4",""
"1049","","","","","3","html-keyboard-response","487","","","","",""
"2605","sock","ndoora,mamba,kimysa,mtirka","mamba","v","3","html-keyboard-response","488","v","mamba","true","","4"
"1784.1999998092651","","","","","3","html-slider-response","489","","","","5",""
"1064","","","","","3","html-keyboard-response","490","","","","",""
"3205","marker","maji,mapafu,salita,atay","maji","f","3","html-keyboard-response","491","j","salita","false","","4"
"2117.7000000476837","","","","","3","html-slider-response","492","","","","2",""
"3018","","","","","3","html-keyboard-response","493","","","","",""
"1694","office","hazini,yatima,leso,kuna","leso","j","3","html-keyboard-response","494","j","leso","true","","4"
"1722.7000000476837","","","","","3","html-slider-response","495","","","","5",""
"680","","","","","3","html-keyboard-response","496","","","","",""
"4654","shoe","nyeusi,uyoga,hatua,kama","uyoga","v","3","html-keyboard-response","497","n","kama","false","","4"
"2966.7999999523163","","","","","3","html-slider-response","498","","","","2",""
"6985","","","","","3","html-keyboard-response","499","","","","",""
"4593","cop","bustani,mechezo,jikoni,bakus","mechezo","v","3","html-keyboard-response","500","v","mechezo","true","","4"
"1877.2999999523163","","","","","3","html-slider-response","501","","","","4",""
"1345","","","","","3","html-keyboard-response","502","","","","",""
"4338","bank","kudhibi,tualya,ofisi,silingan","silingan","n","3","html-keyboard-response","503","j","ofisi","false","","4"
"1996.6000001430511","","","","","3","html-slider-response","504","","","","2",""
"7168","","","","","3","html-keyboard-response","505","","","","",""
"17435","letter","filimbi,chuma,uhuru,kifua","kifua","n","3","html-keyboard-response","506","n","kifua","true","","1"
"3098.4000000953674","","","","","3","html-slider-response","507","","","","5",""
"1295","","","","","3","html-keyboard-response","508","","","","",""
"5837","dog","bahari,lubi,washia,kalamu","bahari","f","3","html-keyboard-response","509","f","bahari","true","","1"
"3301.300000190735","","","","","3","html-slider-response","510","","","","5",""
"1282","","","","","3","html-keyboard-response","511","","","","",""
"4975","shop","nopya,kerida,ndezu,samaki","samaki","n","3","html-keyboard-response","512","n","samaki","true","","4"
"2608.2999999523163","","","","","3","html-slider-response","513","","","","5",""
"1027","","","","","3","html-keyboard-response","514","","","","",""
"5734","flower","tamasha,lobo,usiku,bega","bega","n","3","html-keyboard-response","515","f","tamasha","false","","4"
"2278","","","","","3","html-slider-response","516","","","","1",""
"28511","","","","","3","html-keyboard-response","517","","","","",""
"9288","cigar","adhabu,ndugu,kuta,mlango","adhabu","f","3","html-keyboard-response","518","f","adhabu","true","","1"
"2666.7000000476837","","","","","3","html-slider-response","519","","","","5",""
"1633","","","","","3","html-keyboard-response","520","","","","",""
"11995","hammer","napakyas,mekno,kitovu,layag","napakyas","f","3","html-keyboard-response","521","v","mekno","false","","4"
"3293.7000000476837","","","","","3","html-slider-response","522","","","","1",""
"9655","","","","","3","html-keyboard-response","523","","","","",""
"3556","fork","baboy,paghago,mgonjwa,gorisi","mgonjwa","j","3","html-keyboard-response","524","j","mgonjwa","true","","4"
"2253.7000000476837","","","","","3","html-slider-response","525","","","","2",""
"1445","","","","","3","html-keyboard-response","526","","","","",""
"1753","sun","bendi,luha,uongo,basi","basi","n","3","html-keyboard-response","527","n","basi","true","","1"
"2271.800000190735","","","","","3","html-slider-response","528","","","","5",""
"1215","","","","","3","html-keyboard-response","529","","","","",""
"2633","ladder","mashua,mwanga,kamba,pangalan","pangalan","n","3","html-keyboard-response","530","n","pangalan","true","","4"
"2694.800000190735","","","","","3","html-slider-response","531","","","","5",""
"1130","","","","","3","html-keyboard-response","532","","","","",""
"12037","banana","kazi,kasamok,hagdan,twai","kazi","f","3","html-keyboard-response","533","f","kazi","true","","1"
"2986","","","","","3","html-slider-response","534","","","","4",""
"1304","","","","","3","html-keyboard-response","535","","","","",""
"3789","pudding","abug,aibu,mpishi,iring","aibu","v","3","html-keyboard-response","536","v","aibu","true","","4"
"1919.7999999523163","","","","","3","html-slider-response","537","","","","2",""
"1741","","","","","3","html-keyboard-response","538","","","","",""
"8329","body","nyundu,tindashan,jibini,kununa","tindashan","v","3","html-keyboard-response","539","v","tindashan","true","","4"
"1988.5","","","","","3","html-slider-response","540","","","","2",""
"1831","","","","","3","html-keyboard-response","541","","","","",""
"2198","bed","kalipay,haraka,mapintas,starehe","mapintas","j","3","html-keyboard-response","542","j","mapintas","true","","4"
"2506","","","","","3","html-slider-response","543","","","","5",""
"647","","","","","3","html-keyboard-response","544","","","","",""
"5243","tissue","lamigas,kisiwa,katika,ugomvi","ugomvi","n","3","html-keyboard-response","545","v","kisiwa","false","","4"
"4302.100000143051","","","","","3","html-slider-response","546","","","","3",""
"6390","","","","","3","html-keyboard-response","547","","","","",""
"5386","candle","gabi,farasi,kupanda,geza","geza","n","3","html-keyboard-response","548","n","geza","true","","4"
"2844.4000000953674","","","","","3","html-slider-response","549","","","","2",""
"3042","","","","","3","html-keyboard-response","550","","","","",""
"3892","tomato","chupi,mvua,chupa,takatak","mvua","v","3","html-keyboard-response","551","v","mvua","true","","1"
"3285.600000143051","","","","","3","html-slider-response","552","","","","5",""
"1481","","","","","3","html-keyboard-response","553","","","","",""
"4682","list","wingu,alizeti,kuzama,kaso","wingu","f","3","html-keyboard-response","554","n","kaso","false","","4"
"2647.0999999046326","","","","","3","html-slider-response","555","","","","1",""
"3268","","","","","3","html-keyboard-response","556","","","","",""
"2978","olive","bata,siagi,welder,jiwe","jiwe","n","3","html-keyboard-response","557","n","jiwe","true","","4"
"1909.5999999046326","","","","","3","html-slider-response","558","","","","1",""
"1264","","","","","3","html-keyboard-response","559","","","","",""
"6070","picture","silya,kubwa,chaki,asin","kubwa","v","3","html-keyboard-response","560","v","kubwa","true","","1"
"6222.5","","","","","3","html-slider-response","561","","","","5",""
"901","","","","","3","html-keyboard-response","562","","","","",""
"2841","page","wakala,ishiri,skina,wimbo","wimbo","n","4","html-keyboard-response","888","n","wimbo","true","",""
"2966.0999999046326","","","","","4","html-slider-response","889","","","","4",""
"2746","sheet","juuya,watu,bililhon,kamantis","bililhon","j","4","html-keyboard-response","890","j","bililhon","true","",""
"2033.3000001907349","","","","","4","html-slider-response","891","","","","4",""
"2272","ladder","mashua,mwanga,kamba,pangalan","pangalan","n","4","html-keyboard-response","892","n","pangalan","true","",""
"2041","","","","","4","html-slider-response","893","","","","4",""
"5073","door","tena,soko,nyota,surali","surali","n","4","html-keyboard-response","894","n","surali","true","",""
"1535.9000000953674","","","","","4","html-slider-response","895","","","","2",""
"3157","spider","bunyag,kamwe,mkboa,atop","kamwe","v","4","html-keyboard-response","896","v","kamwe","true","",""
"1626.3000001907349","","","","","4","html-slider-response","897","","","","4",""
"4615","picture","silya,chaki,asin,kubwa","kubwa","n","4","html-keyboard-response","898","n","kubwa","true","",""
"1708","","","","","4","html-slider-response","899","","","","5",""
"2857","boat","hamsi,pombe,kitanda,agalon","agalon","n","4","html-keyboard-response","900","n","agalon","true","",""
"1593.7999999523163","","","","","4","html-slider-response","901","","","","5",""
"2315","donkey","bloke,elfu,lalake,rombus","elfu","v","4","html-keyboard-response","902","v","elfu","true","",""
"1536.5999999046326","","","","","4","html-slider-response","903","","","","5",""
"2430","book","kuhesa,picha,mara,mali","mali","n","4","html-keyboard-response","904","n","mali","true","",""
"1792.4000000953674","","","","","4","html-slider-response","905","","","","4",""
"6646","cup","matumai,dagat,shimoni,jeraha","matumai","f","4","html-keyboard-response","906","f","matumai","true","",""
"2164.9000000953674","","","","","4","html-slider-response","907","","","","2",""
"1996","sun","basi,bendi,luha,uongo","basi","f","4","html-keyboard-response","908","f","basi","true","",""
"1651.5","","","","","4","html-slider-response","909","","","","5",""
"2457","pudding","abug,mpishi,aibu,iring","aibu","j","4","html-keyboard-response","910","j","aibu","true","",""
"1510.3999998569489","","","","","4","html-slider-response","911","","","","4",""
"2438","human","bado,kikapu,punguza,tinapay","tinapay","n","4","html-keyboard-response","912","n","tinapay","true","",""
"1940.7999999523163","","","","","4","html-slider-response","913","","","","5",""
"1982","squirrel","mahugaw,ukweli,hofu,kichwa","hofu","j","4","html-keyboard-response","914","j","hofu","true","",""
"2018.0999999046326","","","","","4","html-slider-response","915","","","","5",""
"3254","park","tambok,pwani,ihalas,bunifu","bunifu","n","4","html-keyboard-response","916","n","bunifu","true","",""
"1845.5","","","","","4","html-slider-response","917","","","","4",""
"6603","poster","nchi,madungog,fedha,kasuko","madungog","v","4","html-keyboard-response","918","v","madungog","true","",""
"2617.399999856949","","","","","4","html-slider-response","919","","","","3",""
"2128","wolf","kaburi,ndizi,mchuzi,lugha","lugha","n","4","html-keyboard-response","920","n","lugha","true","",""
"1475.5","","","","","4","html-slider-response","921","","","","4",""
"2971","cat","neyemba,paghukom,baki,akili","paghukom","v","4","html-keyboard-response","922","n","akili","false","",""
"2369.600000143051","","","","","4","html-slider-response","923","","","","4",""
"2741","fish","bala,baho,imani,buli","buli","n","4","html-keyboard-response","924","n","buli","true","",""
"1897.5","","","","","4","html-slider-response","925","","","","5",""
"9396","tooth","kabalaka,kijiko,uadui,pahiyum","kabalaka","f","4","html-keyboard-response","926","f","kabalaka","true","",""
"1961.7000000476837","","","","","4","html-slider-response","927","","","","4",""
"1991","cave","ganti,maisha,kesho,nyundo","kesho","j","4","html-keyboard-response","928","j","kesho","true","",""
"3946","","","","","4","html-slider-response","929","","","","3",""
"4174","lamp","daub,afya,bilaska,mbolea","afya","v","4","html-keyboard-response","930","v","afya","true","",""
"2459.0999999046326","","","","","4","html-slider-response","931","","","","3",""
"4313","banana","kazi,kasamok,hagdan,twai","kazi","f","4","html-keyboard-response","932","f","kazi","true","",""
"1653","","","","","4","html-slider-response","933","","","","4",""
"4321","bonfire","mwezi,mfuko,kusanya,goti","goti","n","4","html-keyboard-response","934","n","goti","true","",""
"2131.5999999046326","","","","","4","html-slider-response","935","","","","2",""
"2849","cop","bustani,jikoni,bakus,mechezo","mechezo","n","4","html-keyboard-response","936","n","mechezo","true","",""
"2219.399999856949","","","","","4","html-slider-response","937","","","","4",""
"3543","marker","mapafu,salita,atay,maji","maji","n","4","html-keyboard-response","938","n","maji","true","",""
"1613.5999999046326","","","","","4","html-slider-response","939","","","","4",""
"3345","window","kweli,nanga,kujenga,umaga","kweli","f","4","html-keyboard-response","940","f","kweli","true","",""
"1616.0999999046326","","","","","4","html-slider-response","941","","","","5",""
"2779","body","nyundu,jibini,tindashan,kununa","tindashan","j","4","html-keyboard-response","942","j","tindashan","true","",""
"1997.8999998569489","","","","","4","html-slider-response","943","","","","4",""
"2086","apple","ukame,estante,kisu,edad","kisu","j","4","html-keyboard-response","944","j","kisu","true","",""
"2936.7000000476837","","","","","4","html-slider-response","945","","","","5",""
"3544","salmon","mzungu,sensilyo,seri,baharia","sensilyo","v","4","html-keyboard-response","946","v","sensilyo","true","",""
"2382.600000143051","","","","","4","html-slider-response","947","","","","3",""
"2554","bed","mapintas,kalipay,haraka,starehe","mapintas","f","4","html-keyboard-response","948","f","mapintas","true","",""
"1791.0999999046326","","","","","4","html-slider-response","949","","","","4",""
"2595","berry","abogado,kofia,nogozi,kinywa","kofia","v","4","html-keyboard-response","950","v","kofia","true","",""
"2074.0999999046326","","","","","4","html-slider-response","951","","","","4",""
"6372","mirror","rangi,kanding,sulagma,furaha","sulagma","j","4","html-keyboard-response","952","j","sulagma","true","",""
"2370.100000143051","","","","","4","html-slider-response","953","","","","1",""
"2056","flag","ndege,mkate,kawa,trekta","trekta","n","4","html-keyboard-response","954","n","trekta","true","",""
"2273.4000000953674","","","","","4","html-slider-response","955","","","","5",""
"2586","shoulder","mkuu,kelele,ndaniya,guruwe","mkuu","f","4","html-keyboard-response","956","f","mkuu","true","",""
"1888.8999998569489","","","","","4","html-slider-response","957","","","","4",""
"15633","tissue","lamigas,kisiwa,ugomvi,katika","ugomvi","j","4","html-keyboard-response","958","j","ugomvi","true","",""
"2158.5","","","","","4","html-slider-response","959","","","","2",""
"6955","notebook","msitu,kemia,kila,mdudu","kemia","v","4","html-keyboard-response","960","v","kemia","true","",""
"4056.7000000476837","","","","","4","html-slider-response","961","","","","2",""
"2513","snake","jansa,karon,pagtukod,mvringo","pagtukod","j","4","html-keyboard-response","962","j","pagtukod","true","",""
"1313.1000001430511","","","","","4","html-slider-response","963","","","","4",""
"2519","finger","simu,sufuria,lima,moyo","moyo","n","4","html-keyboard-response","964","n","moyo","true","",""
"1829.4000000953674","","","","","4","html-slider-response","965","","","","4",""
"3910","basket","kumbuka,utepe,hasira,kumba","kumba","n","4","html-keyboard-response","966","n","kumba","true","",""
"2035.2000000476837","","","","","4","html-slider-response","967","","","","4",""
"2768","curtain","lisud,mchanga,bulwawan,chubani","mchanga","v","4","html-keyboard-response","968","v","mchanga","true","",""
"1677.2000000476837","","","","","4","html-slider-response","969","","","","4",""
"2897","perfume","bino,sungura,katuyoan,ndogo","katuyoan","j","4","html-keyboard-response","970","j","katuyoan","true","",""
"3582.2000000476837","","","","","4","html-slider-response","971","","","","3",""
"1804","key","miaka,goma,ahos,chombo","chombo","n","4","html-keyboard-response","972","n","chombo","true","",""
"2352.5999999046326","","","","","4","html-slider-response","973","","","","4",""
"3014","olive","bata,jiwe,siagi,welder","jiwe","v","4","html-keyboard-response","974","v","jiwe","true","",""
"2342.199999809265","","","","","4","html-slider-response","975","","","","4",""
"2575","rose","singizi,mwanake,amani,paghalad","paghalad","n","4","html-keyboard-response","976","n","paghalad","true","",""
"2131.7999999523163","","","","","4","html-slider-response","977","","","","4",""
"4282","bridge","daima,ngono,panya,sahani","sahani","n","4","html-keyboard-response","978","n","sahani","true","",""
"1858.9000000953674","","","","","4","html-slider-response","979","","","","4",""
"3750","hill","kushoto,matumbo,kukimba,sweta","matumbo","v","4","html-keyboard-response","980","v","matumbo","true","",""
"1983.7999999523163","","","","","4","html-slider-response","981","","","","4",""
"9896","letter","kifua,filimbi,chuma,uhuru","kifua","f","4","html-keyboard-response","982","f","kifua","true","",""
"1904.7000000476837","","","","","4","html-slider-response","983","","","","2",""
"2310","sock","ndoora,mamba,kimysa,mtirka","mamba","v","4","html-keyboard-response","984","v","mamba","true","",""
"2603.7000000476837","","","","","4","html-slider-response","985","","","","5",""
"5424","fork","baboy,paghago,gorisi,mgonjwa","mgonjwa","n","4","html-keyboard-response","986","n","mgonjwa","true","",""
"1803","","","","","4","html-slider-response","987","","","","4",""
"2687","box","kuacha,adui,rafiki,kitande","adui","v","4","html-keyboard-response","988","v","adui","true","",""
"1672.0999999046326","","","","","4","html-slider-response","989","","","","4",""
"5216","gift","baba,nyange,baso,pagtawag","pagtawag","n","4","html-keyboard-response","990","n","pagtawag","true","",""
"2217.9000000953674","","","","","4","html-slider-response","991","","","","4",""
"6351","bucket","baga,ijayo,kiatu,init","kiatu","j","4","html-keyboard-response","992","j","kiatu","true","",""
"3609.7000000476837","","","","","4","html-slider-response","993","","","","3",""
"2531","shop","nopya,samaki,kerida,ndezu","samaki","v","4","html-keyboard-response","994","v","samaki","true","",""
"2329.2999999523163","","","","","4","html-slider-response","995","","","","4",""
"2335","puppet","napulo,lamok,godoro,mazishi","mazishi","n","4","html-keyboard-response","996","n","mazishi","true","",""
"2741","","","","","4","html-slider-response","997","","","","4",""
"2160","nose","gubat,kopa,sehemu,kidole","sehemu","j","4","html-keyboard-response","998","j","sehemu","true","",""
"2323.7000000476837","","","","","4","html-slider-response","999","","","","4",""
"3000","music","mraba,baiski,mageho,tumbo","baiski","v","4","html-keyboard-response","1000","v","baiski","true","",""
"1835.2999999523163","","","","","4","html-slider-response","1001","","","","4",""
"5563","dog","lubi,bahari,washia,kalamu","bahari","v","4","html-keyboard-response","1002","v","bahari","true","",""
"2202.5999999046326","","","","","4","html-slider-response","1003","","","","4",""
"3166","eel","ishara,kunywa,msumari,kabuang","msumari","j","4","html-keyboard-response","1004","j","msumari","true","",""
"1947","","","","","4","html-slider-response","1005","","","","4",""
"3127","number","shule,kengele,choori,mundamo","mundamo","n","4","html-keyboard-response","1006","n","mundamo","true","",""
"1820","","","","","4","html-slider-response","1007","","","","4",""
"2629","tomato","chupi,chupa,mvua,takatak","mvua","j","4","html-keyboard-response","1008","j","mvua","true","",""
"3577.5999999046326","","","","","4","html-slider-response","1009","","","","3",""
"2428","coffin","kioo,barua,tubag,hulma","kioo","f","4","html-keyboard-response","1010","f","kioo","true","",""
"2610.9000000953674","","","","","4","html-slider-response","1011","","","","5",""
"1567","knee","mvuke,kubale,duka,bili","duka","j","4","html-keyboard-response","1012","j","duka","true","",""
"2013.1000001430511","","","","","4","html-slider-response","1013","","","","5",""
"3749","woman","bandari,bituin,kovuli,pagtabon","pagtabon","n","4","html-keyboard-response","1014","n","pagtabon","true","",""
"2061.5","","","","","4","html-slider-response","1015","","","","4",""
"3903","stone","wingi,ulimwengu,mkasi,asili","wingi","f","4","html-keyboard-response","1016","f","wingi","true","",""
"2435","","","","","4","html-slider-response","1017","","","","5",""
"3380","bread","kaili,dari,dizeli,bugas","dari","v","4","html-keyboard-response","1018","v","dari","true","",""
"2054.2999999523163","","","","","4","html-slider-response","1019","","","","5",""
"2161","triangle","kihozi,bentaha,kasadpan,liog","kasadpan","j","4","html-keyboard-response","1020","j","kasadpan","true","",""
"2881.4000000953674","","","","","4","html-slider-response","1021","","","","3",""
"2501","scissors","duga,tanuri,mtawa,suga","tanuri","v","4","html-keyboard-response","1022","v","tanuri","true","",""
"1992.7999999523163","","","","","4","html-slider-response","1023","","","","5",""
"2597","giraffe","daraja,jumatu,mahitabo,hangyo","mahitabo","j","4","html-keyboard-response","1024","j","mahitabo","true","",""
"2562.2999999523163","","","","","4","html-slider-response","1025","","","","3",""
"2259","flower","tamasha,lobo,usiku,bega","bega","n","4","html-keyboard-response","1026","n","bega","true","",""
"2150.100000143051","","","","","4","html-slider-response","1027","","","","4",""
"2886","candle","gabi,geza,farasi,kupanda","geza","v","4","html-keyboard-response","1028","v","geza","true","",""
"1911.7000000476837","","","","","4","html-slider-response","1029","","","","4",""
"2546","mother","babaye,kahawa,mbuzi,jokofu","babaye","f","4","html-keyboard-response","1030","f","babaye","true","",""
"1968.7999999523163","","","","","4","html-slider-response","1031","","","","5",""
"1740","towel","pagpalit,tembo,funzi,pito","pagpalit","f","4","html-keyboard-response","1032","f","pagpalit","true","",""
"1782.5999999046326","","","","","4","html-slider-response","1033","","","","4",""
"2743","elephant","petye,pagduol,kito,suka","kito","j","4","html-keyboard-response","1034","j","kito","true","",""
"2001.7000000476837","","","","","4","html-slider-response","1035","","","","4",""
"1804","shelf","pamahaw,bungtod,kadaot,awit","pamahaw","f","4","html-keyboard-response","1036","f","pamahaw","true","",""
"1620.1000001430511","","","","","4","html-slider-response","1037","","","","4",""
"1746","mosquito","isda,taras,gutom,martilyo","martilyo","n","4","html-keyboard-response","1038","n","martilyo","true","",""
"1751.5999999046326","","","","","4","html-slider-response","1039","","","","4",""
"2172","column","pundok,dila,pala,ufagio","ufagio","n","4","html-keyboard-response","1040","n","ufagio","true","",""
"2418.100000143051","","","","","4","html-slider-response","1041","","","","5",""
"2885","pants","pintal,chuki,hari,haki","haki","n","4","html-keyboard-response","1042","n","haki","true","",""
"5276.800000190735","","","","","4","html-slider-response","1043","","","","3",""
"2555","list","alizeti,kuzama,kaso,wingu","wingu","n","4","html-keyboard-response","1044","n","wingu","true","",""
"2473.199999809265","","","","","4","html-slider-response","1045","","","","2",""
"3501","bank","kudhibi,silingan,tualya,ofisi","silingan","v","4","html-keyboard-response","1046","v","silingan","true","",""
"2410.2000000476837","","","","","4","html-slider-response","1047","","","","4",""
"3119","clock","mbwa,kartasi,abang,osha","mbwa","f","4","html-keyboard-response","1048","f","mbwa","true","",""
"2572.7999999523163","","","","","4","html-slider-response","1049","","","","4",""
"2539","ceiling","kugita,kawaida,rayna,maua","maua","n","4","html-keyboard-response","1050","n","maua","true","",""
"2141.5","","","","","4","html-slider-response","1051","","","","5",""
"2105","train","sayari,itik,dakika,mungu","sayari","f","4","html-keyboard-response","1052","f","sayari","true","",""
"2215.399999856949","","","","","4","html-slider-response","1053","","","","5",""
"3768","magazine","gundi,kiti,mchawi,bahandi","kiti","v","4","html-keyboard-response","1054","v","kiti","true","",""
"1739.3000001907349","","","","","4","html-slider-response","1055","","","","5",""
"1964","office","hazini,leso,yatima,kuna","leso","v","4","html-keyboard-response","1056","v","leso","true","",""
"2628.4000000953674","","","","","4","html-slider-response","1057","","","","4",""
"2356","wheel","punda,tawo,bafuni,baadaye","bafuni","j","4","html-keyboard-response","1058","j","bafuni","true","",""
"2227.399999856949","","","","","4","html-slider-response","1059","","","","4",""
"1977","spoon","betri,nzuri,ngazi,pagsulod","pagsulod","n","4","html-keyboard-response","1060","n","pagsulod","true","",""
"1840.8000001907349","","","","","4","html-slider-response","1061","","","","5",""
"2739","hammer","napakyas,mekno,kitovu,layag","napakyas","f","4","html-keyboard-response","1062","f","napakyas","true","",""
"1788","","","","","4","html-slider-response","1063","","","","5",""
"5607","cigar","ndugu,adhabu,kuta,mlango","adhabu","v","4","html-keyboard-response","1064","v","adhabu","true","",""
"1913","","","","","4","html-slider-response","1065","","","","4",""
"6755","shoe","nyeusi,hatua,uyoga,kama","uyoga","j","4","html-keyboard-response","1066","j","uyoga","true","",""
"2434","","","","","4","html-slider-response","1067","","","","4",""
"2797","list","wingu,alizeti,kuzama,kaso","wingu","f","5","html-keyboard-response","1069","f","wingu","true","",""
"1976.7999999523163","","","","","5","html-slider-response","1070","","","","4",""
"2305","number","shule,kengele,choori,mundamo","mundamo","n","5","html-keyboard-response","1071","n","mundamo","true","",""
"2319.2000000476837","","","","","5","html-slider-response","1072","","","","4",""
"2494","apple","kisu,ukame,estante,edad","kisu","f","5","html-keyboard-response","1073","f","kisu","true","",""
"1686.2999999523163","","","","","5","html-slider-response","1074","","","","5",""
"2665","knee","duka,mvuke,kubale,bili","duka","f","5","html-keyboard-response","1075","f","duka","true","",""
"3169","","","","","5","html-slider-response","1076","","","","4",""
"3263","tooth","kijiko,uadui,kabalaka,pahiyum","kabalaka","j","5","html-keyboard-response","1077","j","kabalaka","true","",""
"1682.2000000476837","","","","","5","html-slider-response","1078","","","","4",""
"2323","berry","abogado,kofia,nogozi,kinywa","kofia","v","5","html-keyboard-response","1079","v","kofia","true","",""
"3108.2000000476837","","","","","5","html-slider-response","1080","","","","4",""
"2023","bridge","daima,ngono,panya,sahani","sahani","n","5","html-keyboard-response","1081","n","sahani","true","",""
"1818.3999998569489","","","","","5","html-slider-response","1082","","","","4",""
"3090","perfume","katuyoan,bino,sungura,ndogo","katuyoan","f","5","html-keyboard-response","1083","f","katuyoan","true","",""
"1922.2999999523163","","","","","5","html-slider-response","1084","","","","4",""
"1843","ladder","pangalan,mashua,mwanga,kamba","pangalan","f","5","html-keyboard-response","1085","f","pangalan","true","",""
"2070.5999999046326","","","","","5","html-slider-response","1086","","","","4",""
"2768","pants","pintal,haki,chuki,hari","haki","v","5","html-keyboard-response","1087","v","haki","true","",""
"2982.2999999523163","","","","","5","html-slider-response","1088","","","","3",""
"5913","salmon","mzungu,seri,sensilyo,baharia","sensilyo","j","5","html-keyboard-response","1089","j","sensilyo","true","",""
"2435.199999809265","","","","","5","html-slider-response","1090","","","","4",""
"1487","coffin","barua,tubag,kioo,hulma","kioo","j","5","html-keyboard-response","1091","j","kioo","true","",""
"2364.7000000476837","","","","","5","html-slider-response","1092","","","","5",""
"2968","park","bunifu,tambok,pwani,ihalas","bunifu","f","5","html-keyboard-response","1093","f","bunifu","true","",""
"2479.199999809265","","","","","5","html-slider-response","1094","","","","4",""
"3038","giraffe","daraja,jumatu,hangyo,mahitabo","mahitabo","n","5","html-keyboard-response","1095","n","mahitabo","true","",""
"6381.899999856949","","","","","5","html-slider-response","1096","","","","2",""
"2709","mirror","rangi,sulagma,kanding,furaha","sulagma","v","5","html-keyboard-response","1097","v","sulagma","true","",""
"2401.800000190735","","","","","5","html-slider-response","1098","","","","2",""
"2010","ceiling","kugita,kawaida,maua,rayna","maua","j","5","html-keyboard-response","1099","j","maua","true","",""
"2163.399999856949","","","","","5","html-slider-response","1100","","","","4",""
"2236","marker","mapafu,maji,salita,atay","maji","v","5","html-keyboard-response","1101","v","maji","true","",""
"2201.899999856949","","","","","5","html-slider-response","1102","","","","5",""
"2548","sock","mamba,ndoora,kimysa,mtirka","mamba","f","5","html-keyboard-response","1103","f","mamba","true","",""
"2215.9000000953674","","","","","5","html-slider-response","1104","","","","5",""
"2226","cop","bustani,mechezo,jikoni,bakus","mechezo","v","5","html-keyboard-response","1105","v","mechezo","true","",""
"2276","","","","","5","html-slider-response","1106","","","","5",""
"3459","gift","pagtawag,baba,nyange,baso","pagtawag","f","5","html-keyboard-response","1107","f","pagtawag","true","",""
"2148.5","","","","","5","html-slider-response","1108","","","","4",""
"3587","notebook","msitu,kemia,kila,mdudu","kemia","v","5","html-keyboard-response","1109","v","kemia","true","",""
"1992.5","","","","","5","html-slider-response","1110","","","","2",""
"1763","bank","kudhibi,tualya,ofisi,silingan","silingan","n","5","html-keyboard-response","1111","n","silingan","true","",""
"1833.7000000476837","","","","","5","html-slider-response","1112","","","","4",""
"5477","letter","kifua,filimbi,chuma,uhuru","kifua","f","5","html-keyboard-response","1113","f","kifua","true","",""
"2244.7999999523163","","","","","5","html-slider-response","1114","","","","2",""
"1872","candle","gabi,farasi,kupanda,geza","geza","n","5","html-keyboard-response","1115","n","geza","true","",""
"2400.5999999046326","","","","","5","html-slider-response","1116","","","","4",""
"2240","bread","kaili,dari,dizeli,bugas","dari","v","5","html-keyboard-response","1117","v","dari","true","",""
"2426.5999999046326","","","","","5","html-slider-response","1118","","","","4",""
"2168","snake","pagtukod,jansa,karon,mvringo","pagtukod","f","5","html-keyboard-response","1119","f","pagtukod","true","",""
"3346.2000000476837","","","","","5","html-slider-response","1120","","","","4",""
"2192","rose","paghalad,singizi,mwanake,amani","paghalad","f","5","html-keyboard-response","1121","f","paghalad","true","",""
"2218.5","","","","","5","html-slider-response","1122","","","","4",""
"2143","hill","kushoto,kukimba,matumbo,sweta","matumbo","j","5","html-keyboard-response","1123","j","matumbo","true","",""
"2283.7999999523163","","","","","5","html-slider-response","1124","","","","4",""
"1969","train","itik,dakika,sayari,mungu","sayari","j","5","html-keyboard-response","1125","j","sayari","true","",""
"2245.5999999046326","","","","","5","html-slider-response","1126","","","","5",""
"2480","shop","nopya,samaki,kerida,ndezu","samaki","v","5","html-keyboard-response","1127","v","samaki","true","",""
"2337.800000190735","","","","","5","html-slider-response","1128","","","","5",""
"2229","nose","sehemu,gubat,kopa,kidole","sehemu","f","5","html-keyboard-response","1129","f","sehemu","true","",""
"4142.299999952316","","","","","5","html-slider-response","1130","","","","4",""
"2129","boat","hamsi,agalon,pombe,kitanda","agalon","v","5","html-keyboard-response","1131","v","agalon","true","",""
"3032.2999999523163","","","","","5","html-slider-response","1132","","","","4",""
"3764","body","tindashan,nyundu,jibini,kununa","tindashan","f","5","html-keyboard-response","1133","f","tindashan","true","",""
"2126.5999999046326","","","","","5","html-slider-response","1134","","","","4",""
"2137","bed","mapintas,kalipay,haraka,starehe","mapintas","f","5","html-keyboard-response","1135","f","mapintas","true","",""
"2662.7999999523163","","","","","5","html-slider-response","1136","","","","4",""
"2278","squirrel","mahugaw,hofu,ukweli,kichwa","hofu","v","5","html-keyboard-response","1137","v","hofu","true","",""
"2060.7000000476837","","","","","5","html-slider-response","1138","","","","5",""
"4281","window","nanga,kujenga,kweli,umaga","kweli","j","5","html-keyboard-response","1139","j","kweli","true","",""
"2569.4000000953674","","","","","5","html-slider-response","1140","","","","4",""
"3225","bonfire","mwezi,goti,mfuko,kusanya","goti","v","5","html-keyboard-response","1141","v","goti","true","",""
"2580.300000190735","","","","","5","html-slider-response","1142","","","","3",""
"3899","fish","bala,baho,imani,buli","buli","n","5","html-keyboard-response","1143","n","buli","true","",""
"2126.2999999523163","","","","","5","html-slider-response","1144","","","","4",""
"2985","cat","neyemba,baki,akili,paghukom","paghukom","n","5","html-keyboard-response","1145","j","akili","false","",""
"3085","","","","","5","html-slider-response","1146","","","","3",""
"3287","spider","bunyag,mkboa,kamwe,atop","kamwe","j","5","html-keyboard-response","1147","j","kamwe","true","",""
"1990.5","","","","","5","html-slider-response","1148","","","","4",""
"4072","eel","msumari,ishara,kunywa,kabuang","msumari","f","5","html-keyboard-response","1149","f","msumari","true","",""
"2988.600000143051","","","","","5","html-slider-response","1150","","","","4",""
"2199","woman","pagtabon,bandari,bituin,kovuli","pagtabon","f","5","html-keyboard-response","1151","f","pagtabon","true","",""
"2286.7000000476837","","","","","5","html-slider-response","1152","","","","4",""
"1958","magazine","gundi,mchawi,kiti,bahandi","kiti","j","5","html-keyboard-response","1153","j","kiti","true","",""
"1958.6000001430511","","","","","5","html-slider-response","1154","","","","4",""
"1876","pudding","abug,mpishi,aibu,iring","aibu","j","5","html-keyboard-response","1155","j","aibu","true","",""
"2791.100000143051","","","","","5","html-slider-response","1156","","","","4",""
"2179","lamp","daub,afya,bilaska,mbolea","afya","v","5","html-keyboard-response","1157","v","afya","true","",""
"2566","","","","","5","html-slider-response","1158","","","","3",""
"2581","cave","ganti,kesho,maisha,nyundo","kesho","v","5","html-keyboard-response","1159","v","kesho","true","",""
"2251","","","","","5","html-slider-response","1160","","","","4",""
"4738","shoulder","kelele,ndaniya,mkuu,guruwe","mkuu","j","5","html-keyboard-response","1161","j","mkuu","true","",""
"3746.4000000953674","","","","","5","html-slider-response","1162","","","","4",""
"2258","stone","ulimwengu,wingi,mkasi,asili","wingi","v","5","html-keyboard-response","1163","v","wingi","true","",""
"2537.2000000476837","","","","","5","html-slider-response","1164","","","","4",""
"3025","column","pundok,dila,ufagio,pala","ufagio","j","5","html-keyboard-response","1165","j","ufagio","true","",""
"2057.7999999523163","","","","","5","html-slider-response","1166","","","","4",""
"2616","page","wakala,ishiri,skina,wimbo","wimbo","n","5","html-keyboard-response","1167","n","wimbo","true","",""
"2007.3000001907349","","","","","5","html-slider-response","1168","","","","4",""
"3812","shoe","nyeusi,uyoga,hatua,kama","uyoga","v","5","html-keyboard-response","1169","v","uyoga","true","",""
"1966.2000000476837","","","","","5","html-slider-response","1170","","","","4",""
"3246","clock","mbwa,kartasi,abang,osha","mbwa","f","5","html-keyboard-response","1171","f","mbwa","true","",""
"2053.7000000476837","","","","","5","html-slider-response","1172","","","","4",""
"1908","towel","tembo,funzi,pagpalit,pito","pagpalit","j","5","html-keyboard-response","1173","j","pagpalit","true","",""
"1913.5999999046326","","","","","5","html-slider-response","1174","","","","4",""
"3066","tomato","chupi,mvua,chupa,takatak","mvua","v","5","html-keyboard-response","1175","v","mvua","true","",""
"3034.7999999523163","","","","","5","html-slider-response","1176","","","","4",""
"2525","bucket","baga,ijayo,init,kiatu","kiatu","n","5","html-keyboard-response","1177","n","kiatu","true","",""
"2880.5","","","","","5","html-slider-response","1178","","","","3",""
"2660","finger","simu,sufuria,moyo,lima","moyo","j","5","html-keyboard-response","1179","j","moyo","true","",""
"2902.2000000476837","","","","","5","html-slider-response","1180","","","","4",""
"2861","mother","kahawa,mbuzi,jokofu,babaye","babaye","n","5","html-keyboard-response","1181","n","babaye","true","",""
"2206.5","","","","","5","html-slider-response","1182","","","","4",""
"3933","human","bado,tinapay,kikapu,punguza","tinapay","v","5","html-keyboard-response","1183","v","tinapay","true","",""
"2352","","","","","5","html-slider-response","1184","","","","5",""
"2422","sun","bendi,luha,basi,uongo","basi","j","5","html-keyboard-response","1185","j","basi","true","",""
"2397.899999856949","","","","","5","html-slider-response","1186","","","","5",""
"3472","fork","baboy,mgonjwa,paghago,gorisi","mgonjwa","v","5","html-keyboard-response","1187","v","mgonjwa","true","",""
"2075.2999999523163","","","","","5","html-slider-response","1188","","","","4",""
"2524","donkey","bloke,elfu,lalake,rombus","elfu","v","5","html-keyboard-response","1189","v","elfu","true","",""
"2329.5999999046326","","","","","5","html-slider-response","1190","","","","4",""
"2260","wolf","kaburi,ndizi,mchuzi,lugha","lugha","n","5","html-keyboard-response","1191","n","lugha","true","",""
"2689.399999856949","","","","","5","html-slider-response","1192","","","","5",""
"2262","cigar","ndugu,kuta,mlango,adhabu","adhabu","n","5","html-keyboard-response","1193","n","adhabu","true","",""
"4687.5","","","","","5","html-slider-response","1194","","","","3",""
"3154","olive","bata,jiwe,siagi,welder","jiwe","v","5","html-keyboard-response","1195","v","jiwe","true","",""
"1869.0999999046326","","","","","5","html-slider-response","1196","","","","4",""
"6249","key","miaka,goma,chombo,ahos","chombo","j","5","html-keyboard-response","1197","j","chombo","true","",""
"2236.5","","","","","5","html-slider-response","1198","","","","4",""
"4690","door","tena,soko,nyota,surali","surali","n","5","html-keyboard-response","1199","n","surali","true","",""
"2113.9000000953674","","","","","5","html-slider-response","1200","","","","2",""
"2762","wheel","punda,tawo,baadaye,bafuni","bafuni","n","5","html-keyboard-response","1201","n","bafuni","true","",""
"4469.400000095367","","","","","5","html-slider-response","1202","","","","4",""
"5803","basket","kumbuka,utepe,hasira,kumba","kumba","n","5","html-keyboard-response","1203","n","kumba","true","",""
"2222","","","","","5","html-slider-response","1204","","","","4",""
"2351","elephant","petye,pagduol,kito,suka","kito","j","5","html-keyboard-response","1205","j","kito","true","",""
"2247.5999999046326","","","","","5","html-slider-response","1206","","","","4",""
"1937","office","hazini,leso,yatima,kuna","leso","v","5","html-keyboard-response","1207","v","leso","true","",""
"2128.7000000476837","","","","","5","html-slider-response","1208","","","","5",""
"2314","music","mraba,baiski,mageho,tumbo","baiski","v","5","html-keyboard-response","1209","v","baiski","true","",""
"1942.5","","","","","5","html-slider-response","1210","","","","4",""
"10629","tissue","lamigas,kisiwa,katika,ugomvi","ugomvi","n","5","html-keyboard-response","1211","n","ugomvi","true","",""
"2142","","","","","5","html-slider-response","1212","","","","2",""
"3623","curtain","lisud,bulwawan,chubani,mchanga","mchanga","n","5","html-keyboard-response","1213","n","mchanga","true","",""
"2396.4000000953674","","","","","5","html-slider-response","1214","","","","4",""
"2361","flag","ndege,mkate,trekta,kawa","trekta","j","5","html-keyboard-response","1215","j","trekta","true","",""
"2299.100000143051","","","","","5","html-slider-response","1216","","","","4",""
"4068","dog","lubi,bahari,washia,kalamu","bahari","v","5","html-keyboard-response","1217","v","bahari","true","",""
"2116.7999999523163","","","","","5","html-slider-response","1218","","","","5",""
"2274","cup","dagat,shimoni,matumai,jeraha","matumai","j","5","html-keyboard-response","1219","j","matumai","true","",""
"4395.200000047684","","","","","5","html-slider-response","1220","","","","3",""
"5664","sheet","juuya,watu,kamantis,bililhon","bililhon","n","5","html-keyboard-response","1221","n","bililhon","true","",""
"1971.9000000953674","","","","","5","html-slider-response","1222","","","","4",""
"2107","spoon","pagsulod,betri,nzuri,ngazi","pagsulod","f","5","html-keyboard-response","1223","f","pagsulod","true","",""
"3012.300000190735","","","","","5","html-slider-response","1224","","","","4",""
"2795","flower","tamasha,bega,lobo,usiku","bega","v","5","html-keyboard-response","1225","v","bega","true","",""
"2689.2000000476837","","","","","5","html-slider-response","1226","","","","4",""
"2080","picture","kubwa,silya,chaki,asin","kubwa","f","5","html-keyboard-response","1227","f","kubwa","true","",""
"1861.7000000476837","","","","","5","html-slider-response","1228","","","","4",""
"2210","puppet","mazishi,napulo,lamok,godoro","mazishi","f","5","html-keyboard-response","1229","f","mazishi","true","",""
"4234.199999809265","","","","","5","html-slider-response","1230","","","","4",""
"2145","banana","kasamok,hagdan,twai,kazi","kazi","n","5","html-keyboard-response","1231","n","kazi","true","",""
"1894.4000000953674","","","","","5","html-slider-response","1232","","","","4",""
"3297","book","mali,kuhesa,picha,mara","mali","f","5","html-keyboard-response","1233","f","mali","true","",""
"2017.6000001430511","","","","","5","html-slider-response","1234","","","","4",""
"2737","triangle","kasadpan,kihozi,bentaha,liog","kasadpan","f","5","html-keyboard-response","1235","f","kasadpan","true","",""
"2168.399999856949","","","","","5","html-slider-response","1236","","","","4",""
"6659","poster","nchi,fedha,kasuko,madungog","madungog","n","5","html-keyboard-response","1237","j","kasuko","false","",""
"3363.100000143051","","","","","5","html-slider-response","1238","","","","2",""
"5806","box","kuacha,rafiki,adui,kitande","adui","j","5","html-keyboard-response","1239","j","adui","true","",""
"2630.0999999046326","","","","","5","html-slider-response","1240","","","","5",""
"2171","mosquito","martilyo,isda,taras,gutom","martilyo","f","5","html-keyboard-response","1241","f","martilyo","true","",""
"2086","","","","","5","html-slider-response","1242","","","","5",""
"1721","shelf","pamahaw,bungtod,kadaot,awit","pamahaw","f","5","html-keyboard-response","1243","f","pamahaw","true","",""
"2205.5999999046326","","","","","5","html-slider-response","1244","","","","5",""
"2737","scissors","duga,mtawa,suga,tanuri","tanuri","n","5","html-keyboard-response","1245","n","tanuri","true","",""
"2345.4000000953674","","","","","5","html-slider-response","1246","","","","5",""
"3682","hammer","napakyas,mekno,kitovu,layag","napakyas","f","5","html-keyboard-response","1247","f","napakyas","true","",""
"2472.600000143051","","","","","5","html-slider-response","1248","","","","4",""
