"rt","en_word","options","swa_word","correct_answer","phase","trial_type","trial_index","input_answer","input_word","accuracy","certainty","amt_choices"
"4502","bonfire","mwezi,mfuko,goti,kusanya","goti","j","2","html-keyboard-response","106","n","kusanya","false","",""
"19832.200000004377","","","","","2","html-slider-response","107","","","","5",""
"6886","flower","tamasha,bega,lobo,usiku","bega","v","2","html-keyboard-response","108","v","bega","true","",""
"5873.800000001211","","","","","2","html-slider-response","109","","","","5",""
"4907","column","pundok,dila,pala,ufagio","ufagio","n","2","html-keyboard-response","110","v","dila","false","",""
"5686.900000000605","","","","","2","html-slider-response","111","","","","5",""
"5340","music","mraba,mageho,baiski,tumbo","baiski","j","2","html-keyboard-response","112","f","mraba","false","",""
"5916.799999991781","","","","","2","html-slider-response","113","","","","4",""
"3719","spider","kamwe,bunyag,mkboa,atop","kamwe","f","2","html-keyboard-response","114","f","kamwe","true","",""
"3131.7000000126427","","","","","2","html-slider-response","115","","","","5",""
"4830","fork","baboy,paghago,gorisi,mgonjwa","mgonjwa","n","2","html-keyboard-response","116","j","gorisi","false","",""
"2432.199999995646","","","","","2","html-slider-response","117","","","","4",""
"4136","mosquito","martilyo,isda,taras,gutom","martilyo","f","2","html-keyboard-response","118","f","martilyo","true","",""
"2472.5000000034925","","","","","2","html-slider-response","119","","","","5",""
"3922","banana","kasamok,hagdan,twai,kazi","kazi","n","2","html-keyboard-response","120","f","kasamok","false","",""
"2476.699999999255","","","","","2","html-slider-response","121","","","","5",""
"10476","cup","dagat,shimoni,matumai,jeraha","matumai","j","2","html-keyboard-response","122","j","matumai","true","",""
"3553.4000000043306","","","","","2","html-slider-response","123","","","","5",""
"8683","shop","nopya,kerida,ndezu,samaki","samaki","n","2","html-keyboard-response","124","v","kerida","false","",""
"2638.999999995576","","","","","2","html-slider-response","125","","","","4",""
"11939","elephant","petye,kito,pagduol,suka","kito","v","2","html-keyboard-response","126","f","petye","false","",""
"3515.300000013667","","","","","2","html-slider-response","127","","","","5",""
"4771","bucket","baga,ijayo,kiatu,init","kiatu","j","2","html-keyboard-response","128","v","ijayo","false","",""
"3492.8000000072643","","","","","2","html-slider-response","129","","","","5",""
"5056","book","kuhesa,picha,mara,mali","mali","n","2","html-keyboard-response","130","v","picha","false","",""
"3579.7999999922467","","","","","2","html-slider-response","131","","","","4",""
"4981","mirror","rangi,sulagma,kanding,furaha","sulagma","v","2","html-keyboard-response","132","j","kanding","false","",""
"6037.700000000768","","","","","2","html-slider-response","133","","","","4",""
"5531","office","hazini,yatima,kuna,leso","leso","n","2","html-keyboard-response","134","n","leso","true","",""
"3884.1000000102213","","","","","2","html-slider-response","135","","","","4",""
"4749","body","nyundu,tindashan,jibini,kununa","tindashan","v","2","html-keyboard-response","136","n","kununa","false","",""
"3742.7000000025146","","","","","2","html-slider-response","137","","","","4",""
"4215","perfume","bino,sungura,ndogo,katuyoan","katuyoan","n","2","html-keyboard-response","138","f","bino","false","",""
"4287.899999995716","","","","","2","html-slider-response","139","","","","4",""
"5089","olive","jiwe,bata,siagi,welder","jiwe","f","2","html-keyboard-response","140","v","bata","false","",""
"3768.7999999907333","","","","","2","html-slider-response","141","","","","4",""
"4619","magazine","gundi,kiti,mchawi,bahandi","kiti","v","2","html-keyboard-response","142","v","kiti","true","",""
"3760.599999994156","","","","","2","html-slider-response","143","","","","5",""
"5291","bread","kaili,dizeli,dari,bugas","dari","j","2","html-keyboard-response","144","n","bugas","false","",""
"2865.799999999581","","","","","2","html-slider-response","145","","","","4",""
"4732","cave","ganti,kesho,maisha,nyundo","kesho","v","2","html-keyboard-response","146","v","kesho","true","",""
"4280.200000008335","","","","","2","html-slider-response","147","","","","4",""
"5317","ladder","pangalan,mashua,mwanga,kamba","pangalan","f","2","html-keyboard-response","148","f","pangalan","true","",""
"2781.1000000074273","","","","","2","html-slider-response","149","","","","4",""
"7498","human","tinapay,bado,kikapu,punguza","tinapay","f","2","html-keyboard-response","150","v","bado","false","",""
"7065.199999997276","","","","","2","html-slider-response","151","","","","4",""
"4588","clock","kartasi,mbwa,abang,osha","mbwa","v","2","html-keyboard-response","152","v","mbwa","true","",""
"3987.5000000029104","","","","","2","html-slider-response","153","","","","4",""
"7334","shelf","bungtod,kadaot,pamahaw,awit","pamahaw","j","2","html-keyboard-response","154","j","pamahaw","true","",""
"2717.2000000136904","","","","","2","html-slider-response","155","","","","4",""
"62776","salmon","mzungu,sensilyo,seri,baharia","sensilyo","v","2","html-keyboard-response","156","j","seri","false","",""
"3351.7999999894528","","","","","2","html-slider-response","157","","","","5",""
"3612","coffin","barua,tubag,kioo,hulma","kioo","j","2","html-keyboard-response","158","v","tubag","false","",""
"2768.8000000052853","","","","","2","html-slider-response","159","","","","4",""
"4069","notebook","msitu,kemia,kila,mdudu","kemia","v","2","html-keyboard-response","160","n","mdudu","false","",""
"2711.0000000102445","","","","","2","html-slider-response","161","","","","4",""
"6076","shoulder","kelele,mkuu,ndaniya,guruwe","mkuu","v","2","html-keyboard-response","162","v","mkuu","true","",""
"2570.799999986775","","","","","2","html-slider-response","163","","","","4",""
"4484","park","tambok,bunifu,pwani,ihalas","bunifu","v","2","html-keyboard-response","164","j","pwani","false","",""
"2539.199999999255","","","","","2","html-slider-response","165","","","","4",""
"3657","number","mundamo,shule,kengele,choori","mundamo","f","2","html-keyboard-response","166","j","kengele","false","",""
"2650.2000000036787","","","","","2","html-slider-response","167","","","","4",""
"4114","apple","ukame,estante,kisu,edad","kisu","j","2","html-keyboard-response","168","f","ukame","false","",""
"2314.200000007986","","","","","2","html-slider-response","169","","","","4",""
"6248","letter","filimbi,kifua,chuma,uhuru","kifua","v","2","html-keyboard-response","170","v","kifua","true","",""
"5459.3000000022585","","","","","2","html-slider-response","171","","","","5",""
"3807","eel","ishara,kunywa,kabuang,msumari","msumari","n","2","html-keyboard-response","172","j","kabuang","false","",""
"11168.899999989662","","","","","2","html-slider-response","173","","","","4",""
"6349","cop","bustani,mechezo,jikoni,bakus","mechezo","v","2","html-keyboard-response","174","v","mechezo","true","",""
"3309.799999988172","","","","","2","html-slider-response","175","","","","2",""
"4825","wolf","kaburi,ndizi,mchuzi,lugha","lugha","n","2","html-keyboard-response","176","j","mchuzi","false","",""
"2448.499999998603","","","","","2","html-slider-response","177","","","","4",""
"11338","squirrel","mahugaw,hofu,ukweli,kichwa","hofu","v","2","html-keyboard-response","178","n","kichwa","false","",""
"3119.200000001001","","","","","2","html-slider-response","179","","","","4",""
"5720","nose","gubat,kopa,sehemu,kidole","sehemu","j","2","html-keyboard-response","180","j","sehemu","true","",""
"4534.899999998743","","","","","2","html-slider-response","181","","","","4",""
"4535","sock","mamba,ndoora,kimysa,mtirka","mamba","f","2","html-keyboard-response","182","v","ndoora","false","",""
"5158.300000010058","","","","","2","html-slider-response","183","","","","4",""
"4670","bank","kudhibi,tualya,silingan,ofisi","silingan","j","2","html-keyboard-response","184","v","tualya","false","",""
"3609.9000000103842","","","","","2","html-slider-response","185","","","","4",""
"5107","donkey","bloke,lalake,elfu,rombus","elfu","j","2","html-keyboard-response","186","f","bloke","false","",""
"2427.299999995739","","","","","2","html-slider-response","187","","","","4",""
"5124","poster","nchi,fedha,kasuko,madungog","madungog","n","2","html-keyboard-response","188","v","fedha","false","",""
"3024.8999999894295","","","","","2","html-slider-response","189","","","","4",""
"29231","puppet","napulo,lamok,mazishi,godoro","mazishi","j","2","html-keyboard-response","190","f","napulo","false","",""
"3171.0999999922933","","","","","2","html-slider-response","191","","","","5",""
"6563","hill","matumbo,kushoto,kukimba,sweta","matumbo","f","2","html-keyboard-response","192","n","sweta","false","",""
"3425.9000000020023","","","","","2","html-slider-response","193","","","","4",""
"6762","tooth","kijiko,kabalaka,uadui,pahiyum","kabalaka","v","2","html-keyboard-response","194","v","kabalaka","true","",""
"2531.600000002072","","","","","2","html-slider-response","195","","","","5",""
"4934","woman","bandari,pagtabon,bituin,kovuli","pagtabon","v","2","html-keyboard-response","196","j","bituin","false","",""
"2582.399999999325","","","","","2","html-slider-response","197","","","","4",""
"7862","wheel","bafuni,punda,tawo,baadaye","bafuni","f","2","html-keyboard-response","198","n","baadaye","false","",""
"6073.400000008405","","","","","2","html-slider-response","199","","","","4",""
"8248","mother","kahawa,mbuzi,jokofu,babaye","babaye","n","2","html-keyboard-response","200","f","kahawa","false","",""
"2814.799999992829","","","","","2","html-slider-response","201","","","","5",""
"5680","bed","mapintas,kalipay,haraka,starehe","mapintas","f","2","html-keyboard-response","202","j","haraka","false","",""
"3317.2000000049593","","","","","2","html-slider-response","203","","","","5",""
"7343","key","miaka,goma,ahos,chombo","chombo","n","2","html-keyboard-response","204","j","ahos","false","",""
"2612.30000000773","","","","","2","html-slider-response","205","","","","4",""
"5063","page","wakala,ishiri,wimbo,skina","wimbo","j","2","html-keyboard-response","206","f","wakala","false","",""
"3396.900000006892","","","","","2","html-slider-response","207","","","","5",""
"5032","pants","pintal,chuki,hari,haki","haki","n","2","html-keyboard-response","208","n","haki","true","",""
"3360.500000009779","","","","","2","html-slider-response","209","","","","5",""
"5282","sun","bendi,luha,uongo,basi","basi","n","2","html-keyboard-response","210","j","uongo","false","",""
"3127.6999999971595","","","","","2","html-slider-response","211","","","","5",""
"18803","finger","moyo,simu,sufuria,lima","moyo","f","2","html-keyboard-response","212","f","moyo","true","",""
"5225.500000000466","","","","","2","html-slider-response","213","","","","4",""
"5631","shoe","nyeusi,uyoga,hatua,kama","uyoga","v","2","html-keyboard-response","214","n","kama","false","",""
"3496.1999999941327","","","","","2","html-slider-response","215","","","","4",""
"4615","giraffe","daraja,jumatu,hangyo,mahitabo","mahitabo","n","2","html-keyboard-response","216","f","daraja","false","",""
"2415.200000003213","","","","","2","html-slider-response","217","","","","4",""
"5330","dog","lubi,washia,kalamu,bahari","bahari","n","2","html-keyboard-response","218","j","kalamu","false","",""
"2443.2999999991152","","","","","2","html-slider-response","219","","","","4",""
"4710","box","kuacha,rafiki,adui,kitande","adui","j","2","html-keyboard-response","220","n","kitande","false","",""
"3613.2000000069384","","","","","2","html-slider-response","221","","","","4",""
"3685","scissors","duga,mtawa,suga,tanuri","tanuri","n","2","html-keyboard-response","222","f","duga","false","",""
"2651.100000002887","","","","","2","html-slider-response","223","","","","4",""
"3750","cat","neyemba,paghukom,baki,akili","paghukom","v","2","html-keyboard-response","224","f","neyemba","false","",""
"3737.699999997858","","","","","2","html-slider-response","225","","","","2",""
"5623","basket","kumba,kumbuka,utepe,hasira","kumba","f","2","html-keyboard-response","226","j","utepe","false","",""
"2509.6000000049826","","","","","2","html-slider-response","227","","","","4",""
"7915","snake","jansa,karon,pagtukod,mvringo","pagtukod","j","2","html-keyboard-response","228","j","pagtukod","true","",""
"3575.100000001956","","","","","2","html-slider-response","229","","","","4",""
"5684","gift","baba,nyange,pagtawag,baso","pagtawag","j","2","html-keyboard-response","230","v","nyange","false","",""
"3955.500000010943","","","","","2","html-slider-response","231","","","","4",""
"4366","train","sayari,itik,dakika,mungu","sayari","f","2","html-keyboard-response","232","f","sayari","true","",""
"3017.39999999688","","","","","2","html-slider-response","233","","","","4",""
"3905","pudding","abug,mpishi,iring,aibu","aibu","n","2","html-keyboard-response","234","j","iring","false","",""
"3845.499999995809","","","","","2","html-slider-response","235","","","","4",""
"11923","tomato","mvua,chupi,chupa,takatak","mvua","f","2","html-keyboard-response","236","v","chupi","false","",""
"2642.39999999688","","","","","2","html-slider-response","237","","","","4",""
"7299","stone","ulimwengu,mkasi,wingi,asili","wingi","j","2","html-keyboard-response","238","v","mkasi","false","",""
"4513.400000010617","","","","","2","html-slider-response","239","","","","4",""
"5946","hammer","napakyas,mekno,kitovu,layag","napakyas","f","2","html-keyboard-response","240","n","layag","false","",""
"8285.9000000027","","","","","2","html-slider-response","241","","","","4",""
"5427","knee","mvuke,kubale,bili,duka","duka","n","2","html-keyboard-response","242","v","kubale","false","",""
"3775.299999993993","","","","","2","html-slider-response","243","","","","5",""
"4328","ceiling","kugita,kawaida,maua,rayna","maua","j","2","html-keyboard-response","244","n","rayna","false","",""
"3800.899999987334","","","","","2","html-slider-response","245","","","","5",""
"8685","spoon","betri,nzuri,pagsulod,ngazi","pagsulod","j","2","html-keyboard-response","246","f","betri","false","",""
"6018.299999996088","","","","","2","html-slider-response","247","","","","4",""
"5221","marker","mapafu,salita,atay,maji","maji","n","2","html-keyboard-response","248","v","salita","false","",""
"2543.300000004703","","","","","2","html-slider-response","249","","","","4",""
"3588","candle","gabi,geza,farasi,kupanda","geza","v","2","html-keyboard-response","250","n","kupanda","false","",""
"3613.1000000024214","","","","","2","html-slider-response","251","","","","5",""
"4933","tissue","ugomvi,lamigas,kisiwa,katika","ugomvi","f","2","html-keyboard-response","252","v","lamigas","false","",""
"3087.7000000036787","","","","","2","html-slider-response","253","","","","4",""
"7611","bridge","daima,sahani,ngono,panya","sahani","v","2","html-keyboard-response","254","n","panya","false","",""
"2620.200000004843","","","","","2","html-slider-response","255","","","","4",""
"4118","berry","abogado,nogozi,kinywa,kofia","kofia","n","2","html-keyboard-response","256","f","abogado","false","",""
"2766.9999999925494","","","","","2","html-slider-response","257","","","","4",""
"5172","triangle","kihozi,bentaha,kasadpan,liog","kasadpan","j","2","html-keyboard-response","258","j","kasadpan","true","",""
"2340.700000000652","","","","","2","html-slider-response","259","","","","4",""
"5305","door","tena,surali,soko,nyota","surali","v","2","html-keyboard-response","260","j","soko","false","",""
"3044.5000000037253","","","","","2","html-slider-response","261","","","","4",""
"4571","fish","bala,buli,baho,imani","buli","v","2","html-keyboard-response","262","f","bala","false","",""
"2211.19999999064","","","","","2","html-slider-response","263","","","","4",""
"4968","curtain","lisud,mchanga,bulwawan,chubani","mchanga","v","2","html-keyboard-response","264","n","chubani","false","",""
"2180.3999999975786","","","","","2","html-slider-response","265","","","","4",""
"2887","flag","ndege,trekta,mkate,kawa","trekta","v","2","html-keyboard-response","266","f","ndege","false","",""
"4017.50000000163","","","","","2","html-slider-response","267","","","","4",""
"5596","boat","agalon,hamsi,pombe,kitanda","agalon","f","2","html-keyboard-response","268","j","pombe","false","",""
"2747.800000011921","","","","","2","html-slider-response","269","","","","4",""
"5752","rose","paghalad,singizi,mwanake,amani","paghalad","f","2","html-keyboard-response","270","n","amani","false","",""
"2234.400000001304","","","","","2","html-slider-response","271","","","","4",""
"8973","lamp","daub,bilaska,mbolea,afya","afya","n","2","html-keyboard-response","272","v","bilaska","false","",""
"4167.199999995995","","","","","2","html-slider-response","273","","","","4",""
"4640","cigar","ndugu,adhabu,kuta,mlango","adhabu","v","2","html-keyboard-response","274","j","kuta","false","",""
"2453.39999999851","","","","","2","html-slider-response","275","","","","4",""
"5688","list","alizeti,kuzama,wingu,kaso","wingu","j","2","html-keyboard-response","276","v","kuzama","false","",""
"3853.9000000017695","","","","","2","html-slider-response","277","","","","4",""
"3726","sheet","juuya,bililhon,watu,kamantis","bililhon","v","2","html-keyboard-response","278","v","bililhon","true","",""
"2559.1000000131316","","","","","2","html-slider-response","279","","","","4",""
"4195","picture","silya,kubwa,chaki,asin","kubwa","v","2","html-keyboard-response","280","n","asin","false","",""
"3345.300000000745","","","","","2","html-slider-response","281","","","","4",""
"4150","towel","tembo,funzi,pagpalit,pito","pagpalit","j","2","html-keyboard-response","282","f","tembo","false","",""
"3923.0999999998603","","","","","2","html-slider-response","283","","","","4",""
"4534","window","nanga,kujenga,kweli,umaga","kweli","j","2","html-keyboard-response","284","j","kweli","true","",""
"4254.300000000512","","","","","2","html-slider-response","285","","","","2",""
"25352","box","kuacha,adui,rafiki,kitande","adui","v","3","html-keyboard-response","293","f","kuacha","false","","4"
"3428.900000013644","","","","","3","html-slider-response","294","","","","4",""
"6266","","","","","3","html-keyboard-response","295","","","","",""
"2868","pants","pintal,chuki,haki,hari","haki","j","3","html-keyboard-response","296","f","pintal","false","","4"
"2680.600000007078","","","","","3","html-slider-response","297","","","","2",""
"4584","","","","","3","html-keyboard-response","298","","","","",""
"2093","cup","dagat,matumai,shimoni,jeraha","matumai","v","3","html-keyboard-response","299","f","dagat","false","","4"
"3066.199999986682","","","","","3","html-slider-response","300","","","","4",""
"3137","","","","","3","html-keyboard-response","301","","","","",""
"3095","triangle","kihozi,bentaha,kasadpan,liog","kasadpan","j","3","html-keyboard-response","302","v","bentaha","false","","4"
"3597.5000000032596","","","","","3","html-slider-response","303","","","","5",""
"4684","","","","","3","html-keyboard-response","304","","","","",""
"2858","curtain","lisud,mchanga,bulwawan,chubani","mchanga","v","3","html-keyboard-response","305","n","chubani","false","","4"
"3325.6000000108033","","","","","3","html-slider-response","306","","","","4",""
"4277","","","","","3","html-keyboard-response","307","","","","",""
"7039","clock","mbwa,kartasi,abang,osha","mbwa","f","3","html-keyboard-response","308","f","mbwa","true","","4"
"2852.9999999881256","","","","","3","html-slider-response","309","","","","4",""
"4094","","","","","3","html-keyboard-response","310","","","","",""
"2970","mirror","sulagma,rangi,kanding,furaha","sulagma","f","3","html-keyboard-response","311","v","rangi","false","","4"
"2730.7000000001863","","","","","3","html-slider-response","312","","","","4",""
"4915","","","","","3","html-keyboard-response","313","","","","",""
"8893","coffin","barua,kioo,tubag,hulma","kioo","v","3","html-keyboard-response","314","v","kioo","true","","1"
"2668.600000004517","","","","","3","html-slider-response","315","","","","4",""
"3950","","","","","3","html-keyboard-response","316","","","","",""
"4253","magazine","gundi,kiti,mchawi,bahandi","kiti","v","3","html-keyboard-response","317","n","bahandi","false","","4"
"2494.299999991199","","","","","3","html-slider-response","318","","","","4",""
"3156","","","","","3","html-keyboard-response","319","","","","",""
"3065","column","pundok,ufagio,dila,pala","ufagio","v","3","html-keyboard-response","320","v","ufagio","true","","1"
"2243.100000006845","","","","","3","html-slider-response","321","","","","4",""
"3989","","","","","3","html-keyboard-response","322","","","","",""
"4005","number","shule,kengele,mundamo,choori","mundamo","j","3","html-keyboard-response","323","f","shule","false","","4"
"6118.0000000020955","","","","","3","html-slider-response","324","","","","4",""
"3285","","","","","3","html-keyboard-response","325","","","","",""
"3246","rose","paghalad,singizi,mwanake,amani","paghalad","f","3","html-keyboard-response","326","v","singizi","false","","4"
"3411.900000006426","","","","","3","html-slider-response","327","","","","4",""
"3585","","","","","3","html-keyboard-response","328","","","","",""
"4251","eel","ishara,msumari,kunywa,kabuang","msumari","v","3","html-keyboard-response","329","f","ishara","false","","4"
"3360.1000000052154","","","","","3","html-slider-response","330","","","","4",""
"3725","","","","","3","html-keyboard-response","331","","","","",""
"2565","gift","baba,pagtawag,nyange,baso","pagtawag","v","3","html-keyboard-response","332","v","pagtawag","true","","4"
"3528.7999999998137","","","","","3","html-slider-response","333","","","","4",""
"3462","","","","","3","html-keyboard-response","334","","","","",""
"1894","apple","ukame,estante,kisu,edad","kisu","j","3","html-keyboard-response","335","j","kisu","true","","1"
"3515.7000000036787","","","","","3","html-slider-response","336","","","","4",""
"3064","","","","","3","html-keyboard-response","337","","","","",""
"1867","wheel","punda,tawo,baadaye,bafuni","bafuni","n","3","html-keyboard-response","338","n","bafuni","true","","1"
"3030.7999999932945","","","","","3","html-slider-response","339","","","","4",""
"2598","","","","","3","html-keyboard-response","340","","","","",""
"4023","knee","duka,mvuke,kubale,bili","duka","f","3","html-keyboard-response","341","v","mvuke","false","","4"
"3029.399999999441","","","","","3","html-slider-response","342","","","","4",""
"3151","","","","","3","html-keyboard-response","343","","","","",""
"1501","basket","kumba,kumbuka,utepe,hasira","kumba","f","3","html-keyboard-response","344","f","kumba","true","","1"
"3358.2000000025146","","","","","3","html-slider-response","345","","","","4",""
"3040","","","","","3","html-keyboard-response","346","","","","",""
"3738","park","tambok,pwani,bunifu,ihalas","bunifu","j","3","html-keyboard-response","347","v","pwani","false","","4"
"4115.39999999525","","","","","3","html-slider-response","348","","","","4",""
"3115","","","","","3","html-keyboard-response","349","","","","",""
"13102","finger","simu,sufuria,lima,moyo","moyo","n","3","html-keyboard-response","350","v","sufuria","false","","4"
"2960.0999999966007","","","","","3","html-slider-response","351","","","","4",""
"2803","","","","","3","html-keyboard-response","352","","","","",""
"1988","boat","agalon,hamsi,pombe,kitanda","agalon","f","3","html-keyboard-response","353","n","kitanda","false","","4"
"2404.500000004191","","","","","3","html-slider-response","354","","","","4",""
"3125","","","","","3","html-keyboard-response","355","","","","",""
"3728","hill","matumbo,kushoto,kukimba,sweta","matumbo","f","3","html-keyboard-response","356","f","matumbo","true","","4"
"2593.399999998044","","","","","3","html-slider-response","357","","","","4",""
"3550","","","","","3","html-keyboard-response","358","","","","",""
"1996","train","itik,dakika,mungu,sayari","sayari","n","3","html-keyboard-response","359","n","sayari","true","","4"
"2785.299999988638","","","","","3","html-slider-response","360","","","","4",""
"3239","","","","","3","html-keyboard-response","361","","","","",""
"2968","wolf","kaburi,ndizi,mchuzi,lugha","lugha","n","3","html-keyboard-response","362","v","ndizi","false","","4"
"2339.099999997532","","","","","3","html-slider-response","363","","","","4",""
"2915","","","","","3","html-keyboard-response","364","","","","",""
"3100","snake","jansa,pagtukod,karon,mvringo","pagtukod","v","3","html-keyboard-response","365","f","jansa","false","","4"
"2419.099999999162","","","","","3","html-slider-response","366","","","","4",""
"2738","","","","","3","html-keyboard-response","367","","","","",""
"2032","tooth","kijiko,uadui,pahiyum,kabalaka","kabalaka","n","3","html-keyboard-response","368","v","uadui","false","","4"
"2464.6999999969266","","","","","3","html-slider-response","369","","","","4",""
"3479","","","","","3","html-keyboard-response","370","","","","",""
"3582","notebook","kemia,msitu,kila,mdudu","kemia","f","3","html-keyboard-response","371","n","mdudu","false","","4"
"2507.5999999970663","","","","","3","html-slider-response","372","","","","4",""
"2489","","","","","3","html-keyboard-response","373","","","","",""
"3643","flag","trekta,ndege,mkate,kawa","trekta","f","3","html-keyboard-response","374","v","ndege","false","","4"
"7536.900000006426","","","","","3","html-slider-response","375","","","","4",""
"3931","","","","","3","html-keyboard-response","376","","","","",""
"3373","squirrel","hofu,mahugaw,ukweli,kichwa","hofu","f","3","html-keyboard-response","377","f","hofu","true","","4"
"4175.100000007544","","","","","3","html-slider-response","378","","","","4",""
"6600","","","","","3","html-keyboard-response","379","","","","",""
"7500","door","tena,soko,nyota,surali","surali","n","3","html-keyboard-response","380","v","soko","false","","4"
"3577.7999999988824","","","","","3","html-slider-response","381","","","","4",""
"5515","","","","","3","html-keyboard-response","382","","","","",""
"1541","salmon","mzungu,seri,baharia,sensilyo","sensilyo","n","3","html-keyboard-response","383","v","seri","false","","4"
"4476.399999999441","","","","","3","html-slider-response","384","","","","5",""
"4358","","","","","3","html-keyboard-response","385","","","","",""
"8567","shoulder","kelele,ndaniya,mkuu,guruwe","mkuu","j","3","html-keyboard-response","386","f","kelele","false","","4"
"3495.100000000093","","","","","3","html-slider-response","387","","","","4",""
"3315","","","","","3","html-keyboard-response","388","","","","",""
"19746","lamp","afya,daub,bilaska,mbolea","afya","f","3","html-keyboard-response","389","v","daub","false","","4"
"2608.6999999969266","","","","","3","html-slider-response","390","","","","5",""
"3411","","","","","3","html-keyboard-response","391","","","","",""
"1573","shelf","pamahaw,bungtod,kadaot,awit","pamahaw","f","3","html-keyboard-response","392","f","pamahaw","true","","1"
"4486.999999993714","","","","","3","html-slider-response","393","","","","5",""
"4788","","","","","3","html-keyboard-response","394","","","","",""
"3020","human","tinapay,bado,kikapu,punguza","tinapay","f","3","html-keyboard-response","395","v","bado","false","","4"
"7806.899999995716","","","","","3","html-slider-response","396","","","","4",""
"3567","","","","","3","html-keyboard-response","397","","","","",""
"2238","towel","tembo,funzi,pito,pagpalit","pagpalit","n","3","html-keyboard-response","398","v","funzi","false","","4"
"3408.3000000100583","","","","","3","html-slider-response","399","","","","4",""
"3322","","","","","3","html-keyboard-response","400","","","","",""
"3181","cat","neyemba,baki,akili,paghukom","paghukom","n","3","html-keyboard-response","401","v","baki","false","","4"
"2297.0000000060536","","","","","3","html-slider-response","402","","","","5",""
"4023","","","","","3","html-keyboard-response","403","","","","",""
"5072","spider","bunyag,kamwe,mkboa,atop","kamwe","v","3","html-keyboard-response","404","v","kamwe","true","","4"
"2490.900000004098","","","","","3","html-slider-response","405","","","","4",""
"3656","","","","","3","html-keyboard-response","406","","","","",""
"26299","window","nanga,kweli,kujenga,umaga","kweli","v","3","html-keyboard-response","407","f","nanga","false","","4"
"2426.9999999962747","","","","","3","html-slider-response","408","","","","5",""
"4590","","","","","3","html-keyboard-response","409","","","","",""
"1609","woman","bandari,bituin,kovuli,pagtabon","pagtabon","n","3","html-keyboard-response","410","n","pagtabon","true","","1"
"2545.6000000122003","","","","","3","html-slider-response","411","","","","5",""
"4002","","","","","3","html-keyboard-response","412","","","","",""
"9909","giraffe","mahitabo,daraja,jumatu,hangyo","mahitabo","f","3","html-keyboard-response","413","n","hangyo","false","","4"
"3570.9999999962747","","","","","3","html-slider-response","414","","","","5",""
"6569","","","","","3","html-keyboard-response","415","","","","",""
"2800","elephant","petye,kito,pagduol,suka","kito","v","3","html-keyboard-response","416","f","petye","false","","4"
"3547.59999999078","","","","","3","html-slider-response","417","","","","4",""
"3410","","","","","3","html-keyboard-response","418","","","","",""
"1712","cave","ganti,maisha,nyundo,kesho","kesho","n","3","html-keyboard-response","419","v","maisha","false","","4"
"2693.599999998696","","","","","3","html-slider-response","420","","","","4",""
"2592","","","","","3","html-keyboard-response","421","","","","",""
"1665","bread","dari,kaili,dizeli,bugas","dari","f","3","html-keyboard-response","422","n","bugas","false","","4"
"2543.799999999348","","","","","3","html-slider-response","423","","","","4",""
"3430","","","","","3","html-keyboard-response","424","","","","",""
"2114","stone","ulimwengu,wingi,mkasi,asili","wingi","v","3","html-keyboard-response","425","f","ulimwengu","false","","4"
"2990.3999999947846","","","","","3","html-slider-response","426","","","","4",""
"2765","","","","","3","html-keyboard-response","427","","","","",""
"2135","donkey","elfu,bloke,lalake,rombus","elfu","f","3","html-keyboard-response","428","f","elfu","true","","4"
"3409.599999998696","","","","","3","html-slider-response","429","","","","4",""
"16933","","","","","3","html-keyboard-response","430","","","","",""
"1355","bridge","daima,sahani,ngono,panya","sahani","v","3","html-keyboard-response","431","f","daima","false","","4"
"2782.300000006333","","","","","3","html-slider-response","432","","","","4",""
"4466","","","","","3","html-keyboard-response","433","","","","",""
"1875","bonfire","mwezi,mfuko,goti,kusanya","goti","j","3","html-keyboard-response","434","f","mwezi","false","","4"
"3795.3000000123866","","","","","3","html-slider-response","435","","","","5",""
"3291","","","","","3","html-keyboard-response","436","","","","",""
"11823","book","kuhesa,picha,mara,mali","mali","n","3","html-keyboard-response","437","v","picha","false","","4"
"2568.599999998696","","","","","3","html-slider-response","438","","","","5",""
"3412","","","","","3","html-keyboard-response","439","","","","",""
"3262","fish","bala,buli,baho,imani","buli","v","3","html-keyboard-response","440","f","bala","false","","4"
"4485.499999995343","","","","","3","html-slider-response","441","","","","4",""
"3025","","","","","3","html-keyboard-response","442","","","","",""
"1456","spoon","betri,nzuri,ngazi,pagsulod","pagsulod","n","3","html-keyboard-response","443","v","nzuri","false","","4"
"2495.5000000046566","","","","","3","html-slider-response","444","","","","4",""
"3403","","","","","3","html-keyboard-response","445","","","","",""
"2204","scissors","duga,mtawa,suga,tanuri","tanuri","n","3","html-keyboard-response","446","j","suga","false","","4"
"2290.099999998696","","","","","3","html-slider-response","447","","","","4",""
"2868","","","","","3","html-keyboard-response","448","","","","",""
"1740","page","wakala,ishiri,skina,wimbo","wimbo","n","3","html-keyboard-response","449","f","wakala","false","","4"
"3489.600000000559","","","","","3","html-slider-response","450","","","","4",""
"3162","","","","","3","html-keyboard-response","451","","","","",""
"1571","nose","gubat,kopa,sehemu,kidole","sehemu","j","3","html-keyboard-response","452","j","sehemu","true","","1"
"2685.9000000115484","","","","","3","html-slider-response","453","","","","4",""
"2887","","","","","3","html-keyboard-response","454","","","","",""
"1782","ceiling","maua,kugita,kawaida,rayna","maua","f","3","html-keyboard-response","455","n","rayna","false","","4"
"3885.800000003539","","","","","3","html-slider-response","456","","","","4",""
"3397","","","","","3","html-keyboard-response","457","","","","",""
"3243","bucket","baga,ijayo,init,kiatu","kiatu","n","3","html-keyboard-response","458","f","baga","false","","4"
"2685.800000006333","","","","","3","html-slider-response","459","","","","4",""
"3283","","","","","3","html-keyboard-response","460","","","","",""
"3769","berry","abogado,kofia,nogozi,kinywa","kofia","v","3","html-keyboard-response","461","v","kofia","true","","1"
"2517.6000000061467","","","","","3","html-slider-response","462","","","","4",""
"3614","","","","","3","html-keyboard-response","463","","","","",""
"1651","mother","kahawa,mbuzi,jokofu,babaye","babaye","n","3","html-keyboard-response","464","n","babaye","true","","1"
"2564.80000000773","","","","","3","html-slider-response","465","","","","4",""
"2630","","","","","3","html-keyboard-response","466","","","","",""
"1948","mosquito","martilyo,isda,taras,gutom","martilyo","f","3","html-keyboard-response","467","v","isda","false","","4"
"3808.099999994505","","","","","3","html-slider-response","468","","","","4",""
"2743","","","","","3","html-keyboard-response","469","","","","",""
"3020","perfume","bino,sungura,katuyoan,ndogo","katuyoan","j","3","html-keyboard-response","470","n","ndogo","false","","4"
"4507.800000006333","","","","","3","html-slider-response","471","","","","4",""
"2943","","","","","3","html-keyboard-response","472","","","","",""
"2359","sheet","juuya,watu,bililhon,kamantis","bililhon","j","3","html-keyboard-response","473","j","bililhon","true","","4"
"2116.5999999940395","","","","","3","html-slider-response","474","","","","4",""
"2672","","","","","3","html-keyboard-response","475","","","","",""
"1581","puppet","napulo,lamok,mazishi,godoro","mazishi","j","3","html-keyboard-response","476","j","mazishi","true","","1"
"3635.3999999989755","","","","","3","html-slider-response","477","","","","4",""
"5618","","","","","3","html-keyboard-response","478","","","","",""
"3248","poster","madungog,nchi,fedha,kasuko","madungog","f","3","html-keyboard-response","479","j","fedha","false","","4"
"2368.6999999918044","","","","","3","html-slider-response","480","","","","4",""
"5331","","","","","3","html-keyboard-response","481","","","","",""
"3485","music","mraba,mageho,baiski,tumbo","baiski","j","3","html-keyboard-response","482","j","baiski","true","","4"
"2750.500000009313","","","","","3","html-slider-response","483","","","","4",""
"13920","","","","","3","html-keyboard-response","484","","","","",""
"9728","key","miaka,chombo,goma,ahos","chombo","v","3","html-keyboard-response","485","f","miaka","false","","4"
"4582.0999999996275","","","","","3","html-slider-response","486","","","","4",""
"3718","","","","","3","html-keyboard-response","487","","","","",""
"2149","sock","ndoora,mamba,kimysa,mtirka","mamba","v","3","html-keyboard-response","488","j","kimysa","false","","4"
"2429.799999997951","","","","","3","html-slider-response","489","","","","4",""
"3456","","","","","3","html-keyboard-response","490","","","","",""
"1544","marker","mapafu,maji,salita,atay","maji","v","3","html-keyboard-response","491","v","maji","true","","4"
"4734.899999995716","","","","","3","html-slider-response","492","","","","5",""
"3127","","","","","3","html-keyboard-response","493","","","","",""
"2094","office","hazini,leso,yatima,kuna","leso","v","3","html-keyboard-response","494","f","hazini","false","","4"
"2377.3000000072643","","","","","3","html-slider-response","495","","","","5",""
"3543","","","","","3","html-keyboard-response","496","","","","",""
"4507","shoe","nyeusi,hatua,kama,uyoga","uyoga","n","3","html-keyboard-response","497","n","uyoga","true","","4"
"2421.60000000149","","","","","3","html-slider-response","498","","","","4",""
"2969","","","","","3","html-keyboard-response","499","","","","",""
"5625","cop","bustani,mechezo,jikoni,bakus","mechezo","v","3","html-keyboard-response","500","v","mechezo","true","","4"
"2500.599999999162","","","","","3","html-slider-response","501","","","","4",""
"10078","","","","","3","html-keyboard-response","502","","","","",""
"1698","bank","kudhibi,silingan,tualya,ofisi","silingan","v","3","html-keyboard-response","503","f","kudhibi","false","","4"
"2524.900000004098","","","","","3","html-slider-response","504","","","","5",""
"3923","","","","","3","html-keyboard-response","505","","","","",""
"1587","letter","filimbi,kifua,chuma,uhuru","kifua","v","3","html-keyboard-response","506","v","kifua","true","","1"
"2219.5999999968335","","","","","3","html-slider-response","507","","","","4",""
"2679","","","","","3","html-keyboard-response","508","","","","",""
"1552","dog","lubi,washia,kalamu,bahari","bahari","n","3","html-keyboard-response","509","n","bahari","true","","1"
"5449.599999992643","","","","","3","html-slider-response","510","","","","4",""
"12502","","","","","3","html-keyboard-response","511","","","","",""
"3761","shop","samaki,nopya,kerida,ndezu","samaki","f","3","html-keyboard-response","512","v","nopya","false","","4"
"8921.000000002328","","","","","3","html-slider-response","513","","","","5",""
"3633","","","","","3","html-keyboard-response","514","","","","",""
"1637","flower","tamasha,lobo,usiku,bega","bega","n","3","html-keyboard-response","515","n","bega","true","","4"
"2709.0999999926426","","","","","3","html-slider-response","516","","","","5",""
"8584","","","","","3","html-keyboard-response","517","","","","",""
"1857","cigar","ndugu,kuta,mlango,adhabu","adhabu","n","3","html-keyboard-response","518","n","adhabu","true","","1"
"5089.400000011548","","","","","3","html-slider-response","519","","","","4",""
"3945","","","","","3","html-keyboard-response","520","","","","",""
"7703","hammer","mekno,napakyas,kitovu,layag","napakyas","v","3","html-keyboard-response","521","f","mekno","false","","4"
"2837.599999998696","","","","","3","html-slider-response","522","","","","4",""
"6979","","","","","3","html-keyboard-response","523","","","","",""
"2696","fork","baboy,paghago,mgonjwa,gorisi","mgonjwa","j","3","html-keyboard-response","524","v","paghago","false","","4"
"3348.899999997113","","","","","3","html-slider-response","525","","","","4",""
"3905","","","","","3","html-keyboard-response","526","","","","",""
"3397","sun","bendi,luha,basi,uongo","basi","j","3","html-keyboard-response","527","j","basi","true","","1"
"2550.7999999970198","","","","","3","html-slider-response","528","","","","4",""
"3346","","","","","3","html-keyboard-response","529","","","","",""
"1666","ladder","pangalan,mashua,mwanga,kamba","pangalan","f","3","html-keyboard-response","530","n","kamba","false","","4"
"3567.100000000093","","","","","3","html-slider-response","531","","","","4",""
"3604","","","","","3","html-keyboard-response","532","","","","",""
"1675","banana","kazi,kasamok,hagdan,twai","kazi","f","3","html-keyboard-response","533","f","kazi","true","","1"
"16452.40000000922","","","","","3","html-slider-response","534","","","","4",""
"4064","","","","","3","html-keyboard-response","535","","","","",""
"6472","pudding","aibu,abug,mpishi,iring","aibu","f","3","html-keyboard-response","536","f","aibu","true","","4"
"10739.499999995809","","","","","3","html-slider-response","537","","","","4",""
"3710","","","","","3","html-keyboard-response","538","","","","",""
"2118","body","nyundu,jibini,tindashan,kununa","tindashan","j","3","html-keyboard-response","539","f","nyundu","false","","4"
"2431.20000000624","","","","","3","html-slider-response","540","","","","4",""
"4627","","","","","3","html-keyboard-response","541","","","","",""
"10803","bed","kalipay,haraka,mapintas,starehe","mapintas","j","3","html-keyboard-response","542","f","kalipay","false","","4"
"2328.899999992922","","","","","3","html-slider-response","543","","","","4",""
"3224","","","","","3","html-keyboard-response","544","","","","",""
"1868","tissue","lamigas,ugomvi,kisiwa,katika","ugomvi","v","3","html-keyboard-response","545","v","ugomvi","true","","4"
"2424.2999999988824","","","","","3","html-slider-response","546","","","","4",""
"7468","","","","","3","html-keyboard-response","547","","","","",""
"10132","candle","gabi,geza,farasi,kupanda","geza","v","3","html-keyboard-response","548","f","gabi","false","","4"
"9840.799999990966","","","","","3","html-slider-response","549","","","","4",""
"3666","","","","","3","html-keyboard-response","550","","","","",""
"1596","tomato","mvua,chupi,chupa,takatak","mvua","f","3","html-keyboard-response","551","f","mvua","true","","1"
"2544.5000000037253","","","","","3","html-slider-response","552","","","","4",""
"3657","","","","","3","html-keyboard-response","553","","","","",""
"7646","list","alizeti,kuzama,kaso,wingu","wingu","n","3","html-keyboard-response","554","f","alizeti","false","","4"
"5486.000000004191","","","","","3","html-slider-response","555","","","","5",""
"5760","","","","","3","html-keyboard-response","556","","","","",""
"2055","olive","bata,siagi,welder,jiwe","jiwe","n","3","html-keyboard-response","557","v","siagi","false","","4"
"2466.2999999998137","","","","","3","html-slider-response","558","","","","4",""
"3082","","","","","3","html-keyboard-response","559","","","","",""
"1781","picture","silya,chaki,asin,kubwa","kubwa","n","3","html-keyboard-response","560","n","kubwa","true","","1"
"2671.4999999967404","","","","","3","html-slider-response","561","","","","4",""
"3434","","","","","3","html-keyboard-response","562","","","","",""
"42350","page","wakala,ishiri,wimbo,skina","wimbo","j","4","html-keyboard-response","888","v","ishiri","false","",""
"4501.000000003725","","","","","4","html-slider-response","889","","","","5",""
"6053","sheet","bililhon,juuya,watu,kamantis","bililhon","f","4","html-keyboard-response","890","v","juuya","false","",""
"2195.4000000110827","","","","","4","html-slider-response","891","","","","4",""
"5794","ladder","mashua,mwanga,pangalan,kamba","pangalan","j","4","html-keyboard-response","892","j","pangalan","true","",""
"5810.5999999968335","","","","","4","html-slider-response","893","","","","5",""
"3675","door","tena,surali,soko,nyota","surali","v","4","html-keyboard-response","894","v","surali","true","",""
"2333.799999992829","","","","","4","html-slider-response","895","","","","4",""
"5289","spider","bunyag,mkboa,kamwe,atop","kamwe","j","4","html-keyboard-response","896","n","atop","false","",""
"2451.999999990221","","","","","4","html-slider-response","897","","","","4",""
"6429","picture","kubwa,silya,chaki,asin","kubwa","f","4","html-keyboard-response","898","v","silya","false","",""
"4447.899999999441","","","","","4","html-slider-response","899","","","","5",""
"3868","boat","hamsi,pombe,agalon,kitanda","agalon","j","4","html-keyboard-response","900","v","pombe","false","",""
"4375.800000008661","","","","","4","html-slider-response","901","","","","5",""
"5615","donkey","bloke,lalake,elfu,rombus","elfu","j","4","html-keyboard-response","902","f","bloke","false","",""
"3996.89999999851","","","","","4","html-slider-response","903","","","","5",""
"4009","book","kuhesa,picha,mara,mali","mali","n","4","html-keyboard-response","904","j","mara","false","",""
"2257.400000002235","","","","","4","html-slider-response","905","","","","5",""
"5627","cup","dagat,shimoni,matumai,jeraha","matumai","j","4","html-keyboard-response","906","f","dagat","false","",""
"2168.5000000144355","","","","","4","html-slider-response","907","","","","5",""
"4599","sun","basi,bendi,luha,uongo","basi","f","4","html-keyboard-response","908","f","basi","true","",""
"4082.399999999441","","","","","4","html-slider-response","909","","","","5",""
"20315","pudding","aibu,abug,mpishi,iring","aibu","f","4","html-keyboard-response","910","f","aibu","true","",""
"5035.900000002235","","","","","4","html-slider-response","911","","","","5",""
"5416","human","tinapay,bado,kikapu,punguza","tinapay","f","4","html-keyboard-response","912","f","tinapay","true","",""
"4153.399999995716","","","","","4","html-slider-response","913","","","","4",""
"3576","squirrel","mahugaw,ukweli,kichwa,hofu","hofu","n","4","html-keyboard-response","914","n","hofu","true","",""
"3786.099999997765","","","","","4","html-slider-response","915","","","","4",""
"4139","park","tambok,pwani,ihalas,bunifu","bunifu","n","4","html-keyboard-response","916","n","bunifu","true","",""
"2424.700000003446","","","","","4","html-slider-response","917","","","","5",""
"4830","poster","madungog,nchi,fedha,kasuko","madungog","f","4","html-keyboard-response","918","n","kasuko","false","",""
"6365.799999999348","","","","","4","html-slider-response","919","","","","4",""
"6274","wolf","kaburi,ndizi,lugha,mchuzi","lugha","j","4","html-keyboard-response","920","v","ndizi","false","",""
"3550.6000000024214","","","","","4","html-slider-response","921","","","","4",""
"3367","cat","paghukom,neyemba,baki,akili","paghukom","f","4","html-keyboard-response","922","v","neyemba","false","",""
"2448.3999999938533","","","","","4","html-slider-response","923","","","","4",""
"3923","fish","bala,buli,baho,imani","buli","v","4","html-keyboard-response","924","j","baho","false","",""
"3303.199999995064","","","","","4","html-slider-response","925","","","","5",""
"6656","tooth","kijiko,uadui,pahiyum,kabalaka","kabalaka","n","4","html-keyboard-response","926","v","uadui","false","",""
"2923.6000000094064","","","","","4","html-slider-response","927","","","","5",""
"8643","cave","kesho,ganti,maisha,nyundo","kesho","f","4","html-keyboard-response","928","j","maisha","false","",""
"7051.999999995809","","","","","4","html-slider-response","929","","","","5",""
"8577","lamp","daub,afya,bilaska,mbolea","afya","v","4","html-keyboard-response","930","v","afya","true","",""
"2407.4000000110827","","","","","4","html-slider-response","931","","","","4",""
"5783","banana","kasamok,kazi,hagdan,twai","kazi","v","4","html-keyboard-response","932","j","hagdan","false","",""
"2378.5000000060536","","","","","4","html-slider-response","933","","","","4",""
"3541","bonfire","goti,mwezi,mfuko,kusanya","goti","f","4","html-keyboard-response","934","f","goti","true","",""
"2680.700000011362","","","","","4","html-slider-response","935","","","","5",""
"4611","cop","bustani,jikoni,bakus,mechezo","mechezo","n","4","html-keyboard-response","936","v","jikoni","false","",""
"2688.1999999899417","","","","","4","html-slider-response","937","","","","2",""
"3960","marker","maji,mapafu,salita,atay","maji","f","4","html-keyboard-response","938","n","atay","false","",""
"4592.600000003353","","","","","4","html-slider-response","939","","","","4",""
"4870","window","nanga,kujenga,kweli,umaga","kweli","j","4","html-keyboard-response","940","f","nanga","false","",""
"4170.100000002887","","","","","4","html-slider-response","941","","","","4",""
"3488","body","nyundu,jibini,kununa,tindashan","tindashan","n","4","html-keyboard-response","942","j","kununa","false","",""
"2201.0000000009313","","","","","4","html-slider-response","943","","","","5",""
"3374","apple","kisu,ukame,estante,edad","kisu","f","4","html-keyboard-response","944","j","estante","false","",""
"3184.599999993108","","","","","4","html-slider-response","945","","","","4",""
"3497","salmon","sensilyo,mzungu,seri,baharia","sensilyo","f","4","html-keyboard-response","946","j","seri","false","",""
"2998.699999996461","","","","","4","html-slider-response","947","","","","5",""
"3822","bed","kalipay,mapintas,haraka,starehe","mapintas","v","4","html-keyboard-response","948","j","haraka","false","",""
"4083.4999999934807","","","","","4","html-slider-response","949","","","","5",""
"4681","berry","kofia,abogado,nogozi,kinywa","kofia","f","4","html-keyboard-response","950","j","nogozi","false","",""
"3644.800000009127","","","","","4","html-slider-response","951","","","","4",""
"4092","mirror","rangi,kanding,furaha,sulagma","sulagma","n","4","html-keyboard-response","952","f","rangi","false","",""
"3290.099999998696","","","","","4","html-slider-response","953","","","","4",""
"17168","flag","ndege,mkate,trekta,kawa","trekta","j","4","html-keyboard-response","954","f","ndege","false","",""
"2231.8000000086613","","","","","4","html-slider-response","955","","","","4",""
"3753","shoulder","mkuu,kelele,ndaniya,guruwe","mkuu","f","4","html-keyboard-response","956","n","guruwe","false","",""
"2906.3000000026077","","","","","4","html-slider-response","957","","","","5",""
"4494","tissue","lamigas,kisiwa,ugomvi,katika","ugomvi","j","4","html-keyboard-response","958","f","lamigas","false","",""
"2533.499999990221","","","","","4","html-slider-response","959","","","","4",""
"3500","notebook","kemia,msitu,kila,mdudu","kemia","f","4","html-keyboard-response","960","f","kemia","true","",""
"3025.099999999162","","","","","4","html-slider-response","961","","","","5",""
"4559","snake","jansa,pagtukod,karon,mvringo","pagtukod","v","4","html-keyboard-response","962","j","karon","false","",""
"3027.3000000016764","","","","","4","html-slider-response","963","","","","5",""
"4782","finger","moyo,simu,sufuria,lima","moyo","f","4","html-keyboard-response","964","j","sufuria","false","",""
"2640.200000009034","","","","","4","html-slider-response","965","","","","4",""
"5089","basket","kumbuka,utepe,kumba,hasira","kumba","j","4","html-keyboard-response","966","j","kumba","true","",""
"2153.299999990966","","","","","4","html-slider-response","967","","","","5",""
"4233","curtain","lisud,mchanga,bulwawan,chubani","mchanga","v","4","html-keyboard-response","968","j","bulwawan","false","",""
"5292.799999995623","","","","","4","html-slider-response","969","","","","4",""
"3663","perfume","bino,sungura,katuyoan,ndogo","katuyoan","j","4","html-keyboard-response","970","j","katuyoan","true","",""
"3196.400000000838","","","","","4","html-slider-response","971","","","","5",""
"2613","key","miaka,goma,ahos,chombo","chombo","n","4","html-keyboard-response","972","f","miaka","false","",""
"2230.5000000051223","","","","","4","html-slider-response","973","","","","5",""
"3431","olive","bata,jiwe,siagi,welder","jiwe","v","4","html-keyboard-response","974","f","bata","false","",""
"1994.2999999909662","","","","","4","html-slider-response","975","","","","5",""
"2823","rose","singizi,paghalad,mwanake,amani","paghalad","v","4","html-keyboard-response","976","j","mwanake","false","",""
"2297.6999999955297","","","","","4","html-slider-response","977","","","","5",""
"4115","bridge","daima,sahani,ngono,panya","sahani","v","4","html-keyboard-response","978","v","sahani","true","",""
"2201.400000005495","","","","","4","html-slider-response","979","","","","4",""
"3113","hill","kushoto,kukimba,sweta,matumbo","matumbo","n","4","html-keyboard-response","980","j","sweta","false","",""
"2674.899999998044","","","","","4","html-slider-response","981","","","","5",""
"4318","letter","filimbi,chuma,kifua,uhuru","kifua","j","4","html-keyboard-response","982","j","kifua","true","",""
"8365.700000009034","","","","","4","html-slider-response","983","","","","5",""
"5165","sock","ndoora,mamba,kimysa,mtirka","mamba","v","4","html-keyboard-response","984","n","mtirka","false","",""
"3888.1000000108033","","","","","4","html-slider-response","985","","","","4",""
"4084","fork","baboy,mgonjwa,paghago,gorisi","mgonjwa","v","4","html-keyboard-response","986","v","mgonjwa","true","",""
"3251.7999999984168","","","","","4","html-slider-response","987","","","","4",""
"15119","box","kuacha,adui,rafiki,kitande","adui","v","4","html-keyboard-response","988","f","kuacha","false","",""
"2834.1000000075437","","","","","4","html-slider-response","989","","","","5",""
"10915","gift","baba,nyange,baso,pagtawag","pagtawag","n","4","html-keyboard-response","990","v","nyange","false","",""
"2396.500000002794","","","","","4","html-slider-response","991","","","","4",""
"9262","bucket","kiatu,baga,ijayo,init","kiatu","f","4","html-keyboard-response","992","v","baga","false","",""
"2181.8000000058673","","","","","4","html-slider-response","993","","","","5",""
"4584","shop","samaki,nopya,kerida,ndezu","samaki","f","4","html-keyboard-response","994","f","samaki","true","",""
"2658.8000000044703","","","","","4","html-slider-response","995","","","","5",""
"4497","puppet","napulo,lamok,godoro,mazishi","mazishi","n","4","html-keyboard-response","996","j","godoro","false","",""
"4195.000000006985","","","","","4","html-slider-response","997","","","","5",""
"6911","nose","gubat,sehemu,kopa,kidole","sehemu","v","4","html-keyboard-response","998","n","kidole","false","",""
"19344.700000001583","","","","","4","html-slider-response","999","","","","4",""
"6188","music","baiski,mraba,mageho,tumbo","baiski","f","4","html-keyboard-response","1000","v","mraba","false","",""
"2594.8999999961816","","","","","4","html-slider-response","1001","","","","4",""
"5420","dog","lubi,washia,kalamu,bahari","bahari","n","4","html-keyboard-response","1002","j","kalamu","false","",""
"2808.3000000040047","","","","","4","html-slider-response","1003","","","","4",""
"7842","eel","msumari,ishara,kunywa,kabuang","msumari","f","4","html-keyboard-response","1004","j","kunywa","false","",""
"2199.6000000075437","","","","","4","html-slider-response","1005","","","","4",""
"3495","number","shule,mundamo,kengele,choori","mundamo","v","4","html-keyboard-response","1006","v","mundamo","true","",""
"3540.8000000026077","","","","","4","html-slider-response","1007","","","","4",""
"27474","tomato","mvua,chupi,chupa,takatak","mvua","f","4","html-keyboard-response","1008","f","mvua","true","",""
"2809.699999997858","","","","","4","html-slider-response","1009","","","","2",""
"4647","coffin","barua,tubag,hulma,kioo","kioo","n","4","html-keyboard-response","1010","v","tubag","false","",""
"2866.0999999996275","","","","","4","html-slider-response","1011","","","","4",""
"4655","knee","mvuke,kubale,bili,duka","duka","n","4","html-keyboard-response","1012","f","mvuke","false","",""
"6130.199999999255","","","","","4","html-slider-response","1013","","","","4",""
"4486","woman","bandari,pagtabon,bituin,kovuli","pagtabon","v","4","html-keyboard-response","1014","j","bituin","false","",""
"2258.999999990687","","","","","4","html-slider-response","1015","","","","4",""
"3961","stone","wingi,ulimwengu,mkasi,asili","wingi","f","4","html-keyboard-response","1016","v","ulimwengu","false","",""
"2221.6999999945983","","","","","4","html-slider-response","1017","","","","4",""
"3956","bread","kaili,dari,dizeli,bugas","dari","v","4","html-keyboard-response","1018","v","dari","true","",""
"3514.4000000003725","","","","","4","html-slider-response","1019","","","","4",""
"8150","triangle","kihozi,bentaha,kasadpan,liog","kasadpan","j","4","html-keyboard-response","1020","v","bentaha","false","",""
"2780.1000000038184","","","","","4","html-slider-response","1021","","","","4",""
"10253","scissors","tanuri,duga,mtawa,suga","tanuri","f","4","html-keyboard-response","1022","j","mtawa","false","",""
"2797.5000000004657","","","","","4","html-slider-response","1023","","","","4",""
"4335","giraffe","mahitabo,daraja,jumatu,hangyo","mahitabo","f","4","html-keyboard-response","1024","v","daraja","false","",""
"6264.999999999534","","","","","4","html-slider-response","1025","","","","5",""
"5073","flower","tamasha,lobo,bega,usiku","bega","j","4","html-keyboard-response","1026","j","bega","true","",""
"2741.6999999983236","","","","","4","html-slider-response","1027","","","","4",""
"4107","candle","gabi,farasi,geza,kupanda","geza","j","4","html-keyboard-response","1028","j","geza","true","",""
"7125.10000000475","","","","","4","html-slider-response","1029","","","","4",""
"15115","mother","kahawa,mbuzi,babaye,jokofu","babaye","j","4","html-keyboard-response","1030","f","kahawa","false","",""
"2279.999999998603","","","","","4","html-slider-response","1031","","","","4",""
"30698","towel","tembo,funzi,pagpalit,pito","pagpalit","j","4","html-keyboard-response","1032","v","funzi","false","",""
"2267.299999992363","","","","","4","html-slider-response","1033","","","","4",""
"3415","elephant","petye,kito,pagduol,suka","kito","v","4","html-keyboard-response","1034","v","kito","true","",""
"2036.599999992177","","","","","4","html-slider-response","1035","","","","4",""
"3392","shelf","pamahaw,bungtod,kadaot,awit","pamahaw","f","4","html-keyboard-response","1036","j","kadaot","false","",""
"3614.4000000059605","","","","","4","html-slider-response","1037","","","","4",""
"4397","mosquito","isda,martilyo,taras,gutom","martilyo","v","4","html-keyboard-response","1038","f","isda","false","",""
"2119.099999995902","","","","","4","html-slider-response","1039","","","","4",""
"5757","column","pundok,dila,ufagio,pala","ufagio","j","4","html-keyboard-response","1040","j","ufagio","true","",""
"95021.90000000689","","","","","4","html-slider-response","1041","","","","4",""
"3453","pants","pintal,chuki,haki,hari","haki","j","4","html-keyboard-response","1042","f","pintal","false","",""
"2898.999999990687","","","","","4","html-slider-response","1043","","","","5",""
"4505","list","alizeti,kuzama,kaso,wingu","wingu","n","4","html-keyboard-response","1044","j","kaso","false","",""
"2218.2000000029802","","","","","4","html-slider-response","1045","","","","4",""
"3403","bank","silingan,kudhibi,tualya,ofisi","silingan","f","4","html-keyboard-response","1046","f","silingan","true","",""
"2300.099999993108","","","","","4","html-slider-response","1047","","","","4",""
"3267","clock","kartasi,mbwa,abang,osha","mbwa","v","4","html-keyboard-response","1048","j","abang","false","",""
"2030.4999999934807","","","","","4","html-slider-response","1049","","","","4",""
"3543","ceiling","kugita,kawaida,rayna,maua","maua","n","4","html-keyboard-response","1050","f","kugita","false","",""
"2966.300000000745","","","","","4","html-slider-response","1051","","","","4",""
"3562","train","itik,dakika,mungu,sayari","sayari","n","4","html-keyboard-response","1052","f","itik","false","",""
"2943.100000004284","","","","","4","html-slider-response","1053","","","","4",""
"3723","magazine","gundi,mchawi,kiti,bahandi","kiti","j","4","html-keyboard-response","1054","f","gundi","false","",""
"4623.200000002049","","","","","4","html-slider-response","1055","","","","4",""
"3539","office","leso,hazini,yatima,kuna","leso","f","4","html-keyboard-response","1056","f","leso","true","",""
"2038.0999999903142","","","","","4","html-slider-response","1057","","","","4",""
"3119","wheel","bafuni,punda,tawo,baadaye","bafuni","f","4","html-keyboard-response","1058","j","tawo","false","",""
"3006.6000000080094","","","","","4","html-slider-response","1059","","","","4",""
"3827","spoon","pagsulod,betri,nzuri,ngazi","pagsulod","f","4","html-keyboard-response","1060","f","pagsulod","true","",""
"2239.3000000016764","","","","","4","html-slider-response","1061","","","","4",""
"3676","hammer","mekno,kitovu,napakyas,layag","napakyas","j","4","html-keyboard-response","1062","j","napakyas","true","",""
"2137.6000000024214","","","","","4","html-slider-response","1063","","","","4",""
"3635","cigar","ndugu,adhabu,kuta,mlango","adhabu","v","4","html-keyboard-response","1064","j","kuta","false","",""
"3454.5000000074506","","","","","4","html-slider-response","1065","","","","4",""
"4655","shoe","nyeusi,hatua,kama,uyoga","uyoga","n","4","html-keyboard-response","1066","f","nyeusi","false","",""
"4160.000000003725","","","","","4","html-slider-response","1067","","","","4",""
"2547","list","wingu,alizeti,kuzama,kaso","wingu","f","5","html-keyboard-response","1069","f","wingu","true","",""
"4846.200000000186","","","","","5","html-slider-response","1070","","","","4",""
"3051","number","shule,kengele,mundamo,choori","mundamo","j","5","html-keyboard-response","1071","f","shule","false","",""
"2786.700000011362","","","","","5","html-slider-response","1072","","","","4",""
"3212","apple","ukame,estante,edad,kisu","kisu","n","5","html-keyboard-response","1073","f","ukame","false","",""
"3358.3999999975786","","","","","5","html-slider-response","1074","","","","4",""
"5750","knee","duka,mvuke,kubale,bili","duka","f","5","html-keyboard-response","1075","v","mvuke","false","",""
"3638.6999999955297","","","","","5","html-slider-response","1076","","","","4",""
"3489","tooth","kijiko,uadui,pahiyum,kabalaka","kabalaka","n","5","html-keyboard-response","1077","j","pahiyum","false","",""
"3113.2000000067055","","","","","5","html-slider-response","1078","","","","4",""
"3632","berry","kofia,abogado,nogozi,kinywa","kofia","f","5","html-keyboard-response","1079","j","nogozi","false","",""
"6034.599999998696","","","","","5","html-slider-response","1080","","","","4",""
"3894","bridge","daima,sahani,ngono,panya","sahani","v","5","html-keyboard-response","1081","f","daima","false","",""
"4177.599999994971","","","","","5","html-slider-response","1082","","","","4",""
"3374","perfume","bino,katuyoan,sungura,ndogo","katuyoan","v","5","html-keyboard-response","1083","f","bino","false","",""
"2288.700000004843","","","","","5","html-slider-response","1084","","","","4",""
"4717","ladder","mashua,mwanga,kamba,pangalan","pangalan","n","5","html-keyboard-response","1085","v","mwanga","false","",""
"4089.5000000018626","","","","","5","html-slider-response","1086","","","","2",""
"3290","pants","pintal,chuki,hari,haki","haki","n","5","html-keyboard-response","1087","v","chuki","false","",""
"2116.2000000039116","","","","","5","html-slider-response","1088","","","","4",""
"3040","salmon","mzungu,sensilyo,seri,baharia","sensilyo","v","5","html-keyboard-response","1089","n","baharia","false","",""
"2644.899999999441","","","","","5","html-slider-response","1090","","","","4",""
"3005","coffin","barua,tubag,hulma,kioo","kioo","n","5","html-keyboard-response","1091","f","barua","false","",""
"4905.499999993481","","","","","5","html-slider-response","1092","","","","4",""
"3541","park","tambok,pwani,ihalas,bunifu","bunifu","n","5","html-keyboard-response","1093","f","tambok","false","",""
"2942.4000000003725","","","","","5","html-slider-response","1094","","","","2",""
"5141","giraffe","daraja,mahitabo,jumatu,hangyo","mahitabo","v","5","html-keyboard-response","1095","v","mahitabo","true","",""
"2703.099999998696","","","","","5","html-slider-response","1096","","","","4",""
"3539","mirror","rangi,kanding,furaha,sulagma","sulagma","n","5","html-keyboard-response","1097","v","kanding","false","",""
"2271.899999992922","","","","","5","html-slider-response","1098","","","","4",""
"6598","ceiling","kugita,kawaida,maua,rayna","maua","j","5","html-keyboard-response","1099","v","kawaida","false","",""
"4395.400000008754","","","","","5","html-slider-response","1100","","","","4",""
"5066","marker","mapafu,salita,atay,maji","maji","n","5","html-keyboard-response","1101","f","mapafu","false","",""
"2666.5999999968335","","","","","5","html-slider-response","1102","","","","4",""
"7267","sock","ndoora,kimysa,mamba,mtirka","mamba","j","5","html-keyboard-response","1103","f","ndoora","false","",""
"4009.900000004098","","","","","5","html-slider-response","1104","","","","4",""
"7354","cop","bustani,mechezo,jikoni,bakus","mechezo","v","5","html-keyboard-response","1105","f","bustani","false","",""
"4735.5999999996275","","","","","5","html-slider-response","1106","","","","4",""
"4034","gift","baba,pagtawag,nyange,baso","pagtawag","v","5","html-keyboard-response","1107","f","baba","false","",""
"2995.000000009313","","","","","5","html-slider-response","1108","","","","4",""
"2898","notebook","msitu,kila,mdudu,kemia","kemia","n","5","html-keyboard-response","1109","j","mdudu","false","",""
"2080.8000000109896","","","","","5","html-slider-response","1110","","","","4",""
"4640","bank","silingan,kudhibi,tualya,ofisi","silingan","f","5","html-keyboard-response","1111","v","kudhibi","false","",""
"2060.1000000024214","","","","","5","html-slider-response","1112","","","","4",""
"4751","letter","filimbi,chuma,kifua,uhuru","kifua","j","5","html-keyboard-response","1113","f","filimbi","false","",""
"3063.0999999996275","","","","","5","html-slider-response","1114","","","","2",""
"5048","candle","gabi,farasi,geza,kupanda","geza","j","5","html-keyboard-response","1115","f","gabi","false","",""
"4769.69999998901","","","","","5","html-slider-response","1116","","","","4",""
"3881","bread","kaili,dizeli,bugas,dari","dari","n","5","html-keyboard-response","1117","f","kaili","false","",""
"2656.1999999973923","","","","","5","html-slider-response","1118","","","","4",""
"4353","snake","jansa,karon,mvringo,pagtukod","pagtukod","n","5","html-keyboard-response","1119","f","jansa","false","",""
"3332.9999999981374","","","","","5","html-slider-response","1120","","","","4",""
"3821","rose","paghalad,singizi,mwanake,amani","paghalad","f","5","html-keyboard-response","1121","v","singizi","false","",""
"2167.8000000109896","","","","","5","html-slider-response","1122","","","","4",""
"3640","hill","kushoto,matumbo,kukimba,sweta","matumbo","v","5","html-keyboard-response","1123","j","kukimba","false","",""
"2822.500000009313","","","","","5","html-slider-response","1124","","","","4",""
"3149","train","sayari,itik,dakika,mungu","sayari","f","5","html-keyboard-response","1125","j","dakika","false","",""
"4644.399999990128","","","","","5","html-slider-response","1126","","","","5",""
"3241","shop","samaki,nopya,kerida,ndezu","samaki","f","5","html-keyboard-response","1127","v","nopya","false","",""
"2287.400000001304","","","","","5","html-slider-response","1128","","","","2",""
"3494","nose","gubat,kopa,sehemu,kidole","sehemu","j","5","html-keyboard-response","1129","f","gubat","false","",""
"3203.099999998696","","","","","5","html-slider-response","1130","","","","4",""
"3376","boat","hamsi,agalon,pombe,kitanda","agalon","v","5","html-keyboard-response","1131","j","pombe","false","",""
"2104.9999999962747","","","","","5","html-slider-response","1132","","","","4",""
"4033","body","tindashan,nyundu,jibini,kununa","tindashan","f","5","html-keyboard-response","1133","f","tindashan","true","",""
"2064.8999999975786","","","","","5","html-slider-response","1134","","","","4",""
"3716","bed","kalipay,haraka,mapintas,starehe","mapintas","j","5","html-keyboard-response","1135","j","mapintas","true","",""
"4677.800000005402","","","","","5","html-slider-response","1136","","","","5",""
"10313","squirrel","mahugaw,ukweli,kichwa,hofu","hofu","n","5","html-keyboard-response","1137","f","mahugaw","false","",""
"4822.499999994412","","","","","5","html-slider-response","1138","","","","5",""
"3792","window","nanga,kujenga,kweli,umaga","kweli","j","5","html-keyboard-response","1139","f","nanga","false","",""
"3712.599999998696","","","","","5","html-slider-response","1140","","","","5",""
"4152","bonfire","mwezi,mfuko,kusanya,goti","goti","n","5","html-keyboard-response","1141","j","kusanya","false","",""
"2269.400000004098","","","","","5","html-slider-response","1142","","","","4",""
"3374","fish","bala,baho,buli,imani","buli","j","5","html-keyboard-response","1143","v","baho","false","",""
"4190.600000002421","","","","","5","html-slider-response","1144","","","","4",""
"4206","cat","neyemba,paghukom,baki,akili","paghukom","v","5","html-keyboard-response","1145","n","akili","false","",""
"3923.5000000046566","","","","","5","html-slider-response","1146","","","","4",""
"3892","spider","bunyag,kamwe,mkboa,atop","kamwe","v","5","html-keyboard-response","1147","v","kamwe","true","",""
"2543.7999999998137","","","","","5","html-slider-response","1148","","","","2",""
"3672","eel","msumari,ishara,kunywa,kabuang","msumari","f","5","html-keyboard-response","1149","n","kabuang","false","",""
"3347.1999999899417","","","","","5","html-slider-response","1150","","","","4",""
"3987","woman","pagtabon,bandari,bituin,kovuli","pagtabon","f","5","html-keyboard-response","1151","n","kovuli","false","",""
"3396.2999999932945","","","","","5","html-slider-response","1152","","","","4",""
"5701","magazine","gundi,mchawi,bahandi,kiti","kiti","n","5","html-keyboard-response","1153","v","mchawi","false","",""
"3030.3000000128523","","","","","5","html-slider-response","1154","","","","4",""
"3528","pudding","aibu,abug,mpishi,iring","aibu","f","5","html-keyboard-response","1155","j","mpishi","false","",""
"2151.3000000128523","","","","","5","html-slider-response","1156","","","","4",""
"3179","lamp","afya,daub,bilaska,mbolea","afya","f","5","html-keyboard-response","1157","j","bilaska","false","",""
"2166.5000000065193","","","","","5","html-slider-response","1158","","","","4",""
"8200","cave","kesho,ganti,maisha,nyundo","kesho","f","5","html-keyboard-response","1159","j","maisha","false","",""
"3907.8999999910593","","","","","5","html-slider-response","1160","","","","4",""
"3497","shoulder","kelele,ndaniya,guruwe,mkuu","mkuu","n","5","html-keyboard-response","1161","v","ndaniya","false","",""
"2075.2999999960884","","","","","5","html-slider-response","1162","","","","4",""
"6312","stone","ulimwengu,mkasi,asili,wingi","wingi","n","5","html-keyboard-response","1163","j","asili","false","",""
"2111.099999994971","","","","","5","html-slider-response","1164","","","","4",""
"3055","column","pundok,ufagio,dila,pala","ufagio","v","5","html-keyboard-response","1165","f","pundok","false","",""
"4006.8000000026077","","","","","5","html-slider-response","1166","","","","4",""
"3334","page","wakala,wimbo,ishiri,skina","wimbo","v","5","html-keyboard-response","1167","v","wimbo","true","",""
"5420.400000002235","","","","","5","html-slider-response","1168","","","","4",""
"4204","shoe","nyeusi,hatua,kama,uyoga","uyoga","n","5","html-keyboard-response","1169","f","nyeusi","false","",""
"8433.200000000186","","","","","5","html-slider-response","1170","","","","4",""
"4783","clock","kartasi,abang,osha,mbwa","mbwa","n","5","html-keyboard-response","1171","j","osha","false","",""
"3416.1000000024214","","","","","5","html-slider-response","1172","","","","4",""
"4777","towel","tembo,funzi,pagpalit,pito","pagpalit","j","5","html-keyboard-response","1173","v","funzi","false","",""
"3287.1999999918044","","","","","5","html-slider-response","1174","","","","4",""
"3656","tomato","chupi,mvua,chupa,takatak","mvua","v","5","html-keyboard-response","1175","f","chupi","false","",""
"3493.499999997206","","","","","5","html-slider-response","1176","","","","4",""
"5157","bucket","kiatu,baga,ijayo,init","kiatu","f","5","html-keyboard-response","1177","v","baga","false","",""
"14638.899999990128","","","","","5","html-slider-response","1178","","","","4",""
"3952","finger","moyo,simu,sufuria,lima","moyo","f","5","html-keyboard-response","1179","v","simu","false","",""
"2077.099999994971","","","","","5","html-slider-response","1180","","","","4",""
"3322","mother","babaye,kahawa,mbuzi,jokofu","babaye","f","5","html-keyboard-response","1181","v","kahawa","false","",""
"2607.300000003539","","","","","5","html-slider-response","1182","","","","4",""
"3924","human","bado,kikapu,punguza,tinapay","tinapay","n","5","html-keyboard-response","1183","v","kikapu","false","",""
"2836.6000000089407","","","","","5","html-slider-response","1184","","","","4",""
"4162","sun","basi,bendi,luha,uongo","basi","f","5","html-keyboard-response","1185","v","bendi","false","",""
"2575.800000006333","","","","","5","html-slider-response","1186","","","","4",""
"4199","fork","baboy,paghago,gorisi,mgonjwa","mgonjwa","n","5","html-keyboard-response","1187","n","mgonjwa","true","",""
"2106.5999999996275","","","","","5","html-slider-response","1188","","","","4",""
"3288","donkey","bloke,lalake,elfu,rombus","elfu","j","5","html-keyboard-response","1189","n","rombus","false","",""
"3175.3000000026077","","","","","5","html-slider-response","1190","","","","5",""
"3254","wolf","lugha,kaburi,ndizi,mchuzi","lugha","f","5","html-keyboard-response","1191","f","lugha","true","",""
"2424.400000004098","","","","","5","html-slider-response","1192","","","","5",""
"3356","cigar","ndugu,adhabu,kuta,mlango","adhabu","v","5","html-keyboard-response","1193","j","kuta","false","",""
"2481.3999999891967","","","","","5","html-slider-response","1194","","","","5",""
"3459","olive","bata,siagi,welder,jiwe","jiwe","n","5","html-keyboard-response","1195","v","siagi","false","",""
"2036.3999999966472","","","","","5","html-slider-response","1196","","","","2",""
"5856","key","miaka,goma,chombo,ahos","chombo","j","5","html-keyboard-response","1197","v","goma","false","",""
"2571.600000009872","","","","","5","html-slider-response","1198","","","","4",""
"2923","door","tena,surali,soko,nyota","surali","v","5","html-keyboard-response","1199","f","tena","false","",""
"2574.3000000081956","","","","","5","html-slider-response","1200","","","","2",""
"5205","wheel","punda,tawo,baadaye,bafuni","bafuni","n","5","html-keyboard-response","1201","f","punda","false","",""
"4070.0999999968335","","","","","5","html-slider-response","1202","","","","4",""
"3654","basket","kumbuka,utepe,hasira,kumba","kumba","n","5","html-keyboard-response","1203","v","utepe","false","",""
"3779.699999999255","","","","","5","html-slider-response","1204","","","","2",""
"3420","elephant","petye,pagduol,suka,kito","kito","n","5","html-keyboard-response","1205","f","petye","false","",""
"2235.9000000003725","","","","","5","html-slider-response","1206","","","","2",""
"3571","office","hazini,leso,yatima,kuna","leso","v","5","html-keyboard-response","1207","f","hazini","false","",""
"2482.4999999981374","","","","","5","html-slider-response","1208","","","","2",""
"4579","music","mraba,mageho,baiski,tumbo","baiski","j","5","html-keyboard-response","1209","j","baiski","true","",""
"2226.9000000087544","","","","","5","html-slider-response","1210","","","","4",""
"3639","tissue","lamigas,kisiwa,katika,ugomvi","ugomvi","n","5","html-keyboard-response","1211","n","ugomvi","true","",""
"3247.000000002794","","","","","5","html-slider-response","1212","","","","4",""
"3300","curtain","lisud,bulwawan,mchanga,chubani","mchanga","j","5","html-keyboard-response","1213","f","lisud","false","",""
"2998.3000000072643","","","","","5","html-slider-response","1214","","","","4",""
"3834","flag","ndege,mkate,kawa,trekta","trekta","n","5","html-keyboard-response","1215","f","ndege","false","",""
"4269.400000005029","","","","","5","html-slider-response","1216","","","","2",""
"2908","dog","bahari,lubi,washia,kalamu","bahari","f","5","html-keyboard-response","1217","f","bahari","true","",""
"2398.0000000009313","","","","","5","html-slider-response","1218","","","","2",""
"2951","cup","dagat,matumai,shimoni,jeraha","matumai","v","5","html-keyboard-response","1219","f","dagat","false","",""
"2889.600000009872","","","","","5","html-slider-response","1220","","","","2",""
"3412","sheet","juuya,watu,bililhon,kamantis","bililhon","j","5","html-keyboard-response","1221","j","bililhon","true","",""
"3435.5999999968335","","","","","5","html-slider-response","1222","","","","2",""
"3577","spoon","pagsulod,betri,nzuri,ngazi","pagsulod","f","5","html-keyboard-response","1223","j","nzuri","false","",""
"2302.3000000109896","","","","","5","html-slider-response","1224","","","","4",""
"4012","flower","tamasha,lobo,usiku,bega","bega","n","5","html-keyboard-response","1225","f","tamasha","false","",""
"2205.600000000559","","","","","5","html-slider-response","1226","","","","2",""
"3270","picture","kubwa,silya,chaki,asin","kubwa","f","5","html-keyboard-response","1227","j","chaki","false","",""
"2718.3999999975786","","","","","5","html-slider-response","1228","","","","2",""
"3469","puppet","mazishi,napulo,lamok,godoro","mazishi","f","5","html-keyboard-response","1229","j","lamok","false","",""
"2772.800000006333","","","","","5","html-slider-response","1230","","","","2",""
"3265","banana","kasamok,hagdan,kazi,twai","kazi","j","5","html-keyboard-response","1231","f","kasamok","false","",""
"6680.699999997392","","","","","5","html-slider-response","1232","","","","2",""
"3991","book","kuhesa,picha,mara,mali","mali","n","5","html-keyboard-response","1233","j","mara","false","",""
"2101.5000000037253","","","","","5","html-slider-response","1234","","","","2",""
"3127","triangle","kihozi,bentaha,kasadpan,liog","kasadpan","j","5","html-keyboard-response","1235","j","kasadpan","true","",""
"2366.399999999441","","","","","5","html-slider-response","1236","","","","2",""
"2954","poster","nchi,madungog,fedha,kasuko","madungog","v","5","html-keyboard-response","1237","v","madungog","true","",""
"2877.2000000029802","","","","","5","html-slider-response","1238","","","","2",""
"3325","box","kuacha,rafiki,adui,kitande","adui","j","5","html-keyboard-response","1239","f","kuacha","false","",""
"2205.4999999962747","","","","","5","html-slider-response","1240","","","","2",""
"3328","mosquito","isda,martilyo,taras,gutom","martilyo","v","5","html-keyboard-response","1241","v","martilyo","true","",""
"2140.6999999890104","","","","","5","html-slider-response","1242","","","","2",""
"3549","shelf","bungtod,kadaot,awit,pamahaw","pamahaw","n","5","html-keyboard-response","1243","f","bungtod","false","",""
"4644.299999999814","","","","","5","html-slider-response","1244","","","","4",""
"4258","scissors","duga,tanuri,mtawa,suga","tanuri","v","5","html-keyboard-response","1245","f","duga","false","",""
"2102.7999999932945","","","","","5","html-slider-response","1246","","","","2",""
"3111","hammer","mekno,kitovu,napakyas,layag","napakyas","j","5","html-keyboard-response","1247","v","kitovu","false","",""
"5709.7000000067055","","","","","5","html-slider-response","1248","","","","2",""
