"rt","en_word","options","swa_word","correct_answer","phase","trial_type","trial_index","input_answer","input_word","accuracy","certainty","amt_choices"
"3183","bonfire","mwezi,goti,mfuko,kusanya","goti","v","2","html-keyboard-response","106","v","goti","true","",""
"1832.1000000014901","","","","","2","html-slider-response","107","","","","2",""
"7220","flower","tamasha,bega,lobo,usiku","bega","v","2","html-keyboard-response","108","n","usiku","false","",""
"2071.39999999851","","","","","2","html-slider-response","109","","","","1",""
"4116","column","pundok,dila,ufagio,pala","ufagio","j","2","html-keyboard-response","110","j","ufagio","true","",""
"1901","","","","","2","html-slider-response","111","","","","4",""
"3051","music","baiski,mraba,mageho,tumbo","baiski","f","2","html-keyboard-response","112","n","tumbo","false","",""
"1849.8999999985099","","","","","2","html-slider-response","113","","","","2",""
"4814","spider","bunyag,kamwe,mkboa,atop","kamwe","v","2","html-keyboard-response","114","j","mkboa","false","",""
"2238","","","","","2","html-slider-response","115","","","","4",""
"12674","fork","baboy,paghago,gorisi,mgonjwa","mgonjwa","n","2","html-keyboard-response","116","j","gorisi","false","",""
"1723.8999999985099","","","","","2","html-slider-response","117","","","","1",""
"24127","mosquito","isda,taras,martilyo,gutom","martilyo","j","2","html-keyboard-response","118","j","martilyo","true","",""
"1704.6999999955297","","","","","2","html-slider-response","119","","","","2",""
"2562","banana","kazi,kasamok,hagdan,twai","kazi","f","2","html-keyboard-response","120","n","twai","false","",""
"2106.0999999940395","","","","","2","html-slider-response","121","","","","1",""
"2768","cup","dagat,matumai,shimoni,jeraha","matumai","v","2","html-keyboard-response","122","f","dagat","false","",""
"1766.8000000044703","","","","","2","html-slider-response","123","","","","2",""
"2825","shop","nopya,samaki,kerida,ndezu","samaki","v","2","html-keyboard-response","124","n","ndezu","false","",""
"3280","","","","","2","html-slider-response","125","","","","1",""
"3537","elephant","petye,pagduol,kito,suka","kito","j","2","html-keyboard-response","126","j","kito","true","",""
"3091.39999999851","","","","","2","html-slider-response","127","","","","5",""
"3003","bucket","baga,ijayo,kiatu,init","kiatu","j","2","html-keyboard-response","128","v","ijayo","false","",""
"1990.6000000014901","","","","","2","html-slider-response","129","","","","2",""
"3591","book","kuhesa,picha,mara,mali","mali","n","2","html-keyboard-response","130","n","mali","true","",""
"1786.1000000014901","","","","","2","html-slider-response","131","","","","2",""
"3266","mirror","sulagma,rangi,kanding,furaha","sulagma","f","2","html-keyboard-response","132","j","kanding","false","",""
"1834.1000000014901","","","","","2","html-slider-response","133","","","","2",""
"3110","office","hazini,yatima,kuna,leso","leso","n","2","html-keyboard-response","134","n","leso","true","",""
"1730.3000000044703","","","","","2","html-slider-response","135","","","","4",""
"2386","body","tindashan,nyundu,jibini,kununa","tindashan","f","2","html-keyboard-response","136","j","jibini","false","",""
"4063.89999999851","","","","","2","html-slider-response","137","","","","2",""
"2782","perfume","bino,sungura,ndogo,katuyoan","katuyoan","n","2","html-keyboard-response","138","f","bino","false","",""
"2171.3000000044703","","","","","2","html-slider-response","139","","","","4",""
"30641","olive","bata,siagi,jiwe,welder","jiwe","j","2","html-keyboard-response","140","f","bata","false","",""
"1962.7999999970198","","","","","2","html-slider-response","141","","","","2",""
"2398","magazine","kiti,gundi,mchawi,bahandi","kiti","f","2","html-keyboard-response","142","j","mchawi","false","",""
"1843.5999999940395","","","","","2","html-slider-response","143","","","","2",""
"2337","bread","kaili,dizeli,bugas,dari","dari","n","2","html-keyboard-response","144","n","dari","true","",""
"1884.2000000029802","","","","","2","html-slider-response","145","","","","4",""
"3584","cave","ganti,kesho,maisha,nyundo","kesho","v","2","html-keyboard-response","146","f","ganti","false","",""
"2129.7999999970198","","","","","2","html-slider-response","147","","","","2",""
"2293","ladder","mashua,mwanga,kamba,pangalan","pangalan","n","2","html-keyboard-response","148","v","mwanga","false","",""
"1830.7999999970198","","","","","2","html-slider-response","149","","","","1",""
"3072","human","bado,tinapay,kikapu,punguza","tinapay","v","2","html-keyboard-response","150","n","punguza","false","",""
"1872.7999999970198","","","","","2","html-slider-response","151","","","","2",""
"2837","clock","kartasi,mbwa,abang,osha","mbwa","v","2","html-keyboard-response","152","j","abang","false","",""
"1952.1000000014901","","","","","2","html-slider-response","153","","","","1",""
"3153","shelf","bungtod,kadaot,awit,pamahaw","pamahaw","n","2","html-keyboard-response","154","f","bungtod","false","",""
"1728","","","","","2","html-slider-response","155","","","","2",""
"3590","salmon","sensilyo,mzungu,seri,baharia","sensilyo","f","2","html-keyboard-response","156","f","sensilyo","true","",""
"1450.6999999955297","","","","","2","html-slider-response","157","","","","4",""
"4060","coffin","barua,tubag,kioo,hulma","kioo","j","2","html-keyboard-response","158","v","tubag","false","",""
"2227.2999999970198","","","","","2","html-slider-response","159","","","","1",""
"2764","notebook","kemia,msitu,kila,mdudu","kemia","f","2","html-keyboard-response","160","v","msitu","false","",""
"1857.7999999970198","","","","","2","html-slider-response","161","","","","1",""
"3468","shoulder","kelele,mkuu,ndaniya,guruwe","mkuu","v","2","html-keyboard-response","162","f","kelele","false","",""
"2298.39999999851","","","","","2","html-slider-response","163","","","","2",""
"3577","park","bunifu,tambok,pwani,ihalas","bunifu","f","2","html-keyboard-response","164","n","ihalas","false","",""
"2270.5","","","","","2","html-slider-response","165","","","","2",""
"3233","number","shule,kengele,choori,mundamo","mundamo","n","2","html-keyboard-response","166","n","mundamo","true","",""
"2028.1000000014901","","","","","2","html-slider-response","167","","","","1",""
"15475","apple","ukame,estante,edad,kisu","kisu","n","2","html-keyboard-response","168","n","kisu","true","",""
"1919.1000000014901","","","","","2","html-slider-response","169","","","","1",""
"2634","letter","filimbi,kifua,chuma,uhuru","kifua","v","2","html-keyboard-response","170","f","filimbi","false","",""
"2192.60000000149","","","","","2","html-slider-response","171","","","","2",""
"14905","eel","ishara,kunywa,kabuang,msumari","msumari","n","2","html-keyboard-response","172","v","kunywa","false","",""
"1802.7000000029802","","","","","2","html-slider-response","173","","","","1",""
"3718","cop","bustani,jikoni,bakus,mechezo","mechezo","n","2","html-keyboard-response","174","v","jikoni","false","",""
"1541.2999999970198","","","","","2","html-slider-response","175","","","","1",""
"4167","wolf","lugha,kaburi,ndizi,mchuzi","lugha","f","2","html-keyboard-response","176","j","ndizi","false","",""
"1767","","","","","2","html-slider-response","177","","","","1",""
"3176","squirrel","mahugaw,ukweli,hofu,kichwa","hofu","j","2","html-keyboard-response","178","v","ukweli","false","",""
"2232.5","","","","","2","html-slider-response","179","","","","2",""
"4472","nose","sehemu,gubat,kopa,kidole","sehemu","f","2","html-keyboard-response","180","f","sehemu","true","",""
"1643.8000000044703","","","","","2","html-slider-response","181","","","","2",""
"3506","sock","ndoora,kimysa,mamba,mtirka","mamba","j","2","html-keyboard-response","182","n","mtirka","false","",""
"2134.2999999970198","","","","","2","html-slider-response","183","","","","2",""
"2974","bank","kudhibi,silingan,tualya,ofisi","silingan","v","2","html-keyboard-response","184","f","kudhibi","false","",""
"2127.5","","","","","2","html-slider-response","185","","","","2",""
"2852","donkey","elfu,bloke,lalake,rombus","elfu","f","2","html-keyboard-response","186","j","lalake","false","",""
"1538.6000000014901","","","","","2","html-slider-response","187","","","","2",""
"1990","poster","madungog,nchi,fedha,kasuko","madungog","f","2","html-keyboard-response","188","v","nchi","false","",""
"1830.6000000014901","","","","","2","html-slider-response","189","","","","2",""
"3687","puppet","napulo,lamok,mazishi,godoro","mazishi","j","2","html-keyboard-response","190","n","godoro","false","",""
"1845.6000000014901","","","","","2","html-slider-response","191","","","","1",""
"2425","hill","kushoto,kukimba,sweta,matumbo","matumbo","n","2","html-keyboard-response","192","f","kushoto","false","",""
"1866.2000000029802","","","","","2","html-slider-response","193","","","","2",""
"21546","tooth","kijiko,uadui,kabalaka,pahiyum","kabalaka","j","2","html-keyboard-response","194","v","uadui","false","",""
"1783.1999999955297","","","","","2","html-slider-response","195","","","","1",""
"2325","woman","bandari,bituin,pagtabon,kovuli","pagtabon","j","2","html-keyboard-response","196","f","bandari","false","",""
"1542.5","","","","","2","html-slider-response","197","","","","4",""
"2792","wheel","bafuni,punda,tawo,baadaye","bafuni","f","2","html-keyboard-response","198","j","tawo","false","",""
"1413.7000000029802","","","","","2","html-slider-response","199","","","","2",""
"4220","mother","kahawa,babaye,mbuzi,jokofu","babaye","v","2","html-keyboard-response","200","v","babaye","true","",""
"3000.39999999851","","","","","2","html-slider-response","201","","","","2",""
"2534","bed","kalipay,haraka,starehe,mapintas","mapintas","n","2","html-keyboard-response","202","j","starehe","false","",""
"1604.7000000029802","","","","","2","html-slider-response","203","","","","1",""
"1736","key","miaka,chombo,goma,ahos","chombo","v","2","html-keyboard-response","204","v","chombo","true","",""
"1583.6000000014901","","","","","2","html-slider-response","205","","","","2",""
"2023","page","wimbo,wakala,ishiri,skina","wimbo","f","2","html-keyboard-response","206","n","skina","false","",""
"1561.7000000029802","","","","","2","html-slider-response","207","","","","1",""
"2004","pants","pintal,chuki,haki,hari","haki","j","2","html-keyboard-response","208","f","pintal","false","",""
"2777.7999999970198","","","","","2","html-slider-response","209","","","","3",""
"14552","sun","basi,bendi,luha,uongo","basi","f","2","html-keyboard-response","210","j","luha","false","",""
"1688.7999999970198","","","","","2","html-slider-response","211","","","","2",""
"4616","finger","simu,moyo,sufuria,lima","moyo","v","2","html-keyboard-response","212","n","lima","false","",""
"1702.8999999985099","","","","","2","html-slider-response","213","","","","2",""
"2492","shoe","nyeusi,hatua,uyoga,kama","uyoga","j","2","html-keyboard-response","214","v","hatua","false","",""
"1533.3999999985099","","","","","2","html-slider-response","215","","","","2",""
"3034","giraffe","daraja,jumatu,hangyo,mahitabo","mahitabo","n","2","html-keyboard-response","216","n","mahitabo","true","",""
"1493.6999999955297","","","","","2","html-slider-response","217","","","","2",""
"3599","dog","lubi,bahari,washia,kalamu","bahari","v","2","html-keyboard-response","218","j","washia","false","",""
"1453.2000000029802","","","","","2","html-slider-response","219","","","","2",""
"3104","box","kuacha,adui,rafiki,kitande","adui","v","2","html-keyboard-response","220","n","kitande","false","",""
"1748.6000000014901","","","","","2","html-slider-response","221","","","","1",""
"2170","scissors","duga,mtawa,suga,tanuri","tanuri","n","2","html-keyboard-response","222","v","mtawa","false","",""
"1505.7999999970198","","","","","2","html-slider-response","223","","","","1",""
"2220","cat","neyemba,paghukom,baki,akili","paghukom","v","2","html-keyboard-response","224","n","akili","false","",""
"1860.1000000014901","","","","","2","html-slider-response","225","","","","2",""
"3028","basket","kumbuka,utepe,hasira,kumba","kumba","n","2","html-keyboard-response","226","n","kumba","true","",""
"2002","","","","","2","html-slider-response","227","","","","1",""
"3870","snake","jansa,karon,pagtukod,mvringo","pagtukod","j","2","html-keyboard-response","228","j","pagtukod","true","",""
"1557","","","","","2","html-slider-response","229","","","","2",""
"2695","gift","baba,pagtawag,nyange,baso","pagtawag","v","2","html-keyboard-response","230","v","pagtawag","true","",""
"1671.5","","","","","2","html-slider-response","231","","","","1",""
"2573","train","itik,dakika,sayari,mungu","sayari","j","2","html-keyboard-response","232","v","dakika","false","",""
"1877.7999999970198","","","","","2","html-slider-response","233","","","","1",""
"2892","pudding","aibu,abug,mpishi,iring","aibu","f","2","html-keyboard-response","234","n","iring","false","",""
"1636.2999999970198","","","","","2","html-slider-response","235","","","","2",""
"3568","tomato","chupi,chupa,takatak,mvua","mvua","n","2","html-keyboard-response","236","n","mvua","true","",""
"1598.5","","","","","2","html-slider-response","237","","","","5",""
"2860","stone","wingi,ulimwengu,mkasi,asili","wingi","f","2","html-keyboard-response","238","j","mkasi","false","",""
"2080.7999999970198","","","","","2","html-slider-response","239","","","","2",""
"3371","hammer","napakyas,mekno,kitovu,layag","napakyas","f","2","html-keyboard-response","240","n","layag","false","",""
"1970.1000000014901","","","","","2","html-slider-response","241","","","","2",""
"3657","knee","duka,mvuke,kubale,bili","duka","f","2","html-keyboard-response","242","n","bili","false","",""
"2180.89999999851","","","","","2","html-slider-response","243","","","","2",""
"2881","ceiling","kugita,maua,kawaida,rayna","maua","v","2","html-keyboard-response","244","n","rayna","false","",""
"1560.1999999955297","","","","","2","html-slider-response","245","","","","2",""
"2491","spoon","betri,pagsulod,nzuri,ngazi","pagsulod","v","2","html-keyboard-response","246","f","betri","false","",""
"1688.0999999940395","","","","","2","html-slider-response","247","","","","1",""
"1688","marker","mapafu,salita,atay,maji","maji","n","2","html-keyboard-response","248","v","salita","false","",""
"2021.8999999985099","","","","","2","html-slider-response","249","","","","1",""
"2090","candle","gabi,farasi,geza,kupanda","geza","j","2","html-keyboard-response","250","j","geza","true","",""
"2100","","","","","2","html-slider-response","251","","","","1",""
"2931","tissue","ugomvi,lamigas,kisiwa,katika","ugomvi","f","2","html-keyboard-response","252","n","katika","false","",""
"1928.6000000014901","","","","","2","html-slider-response","253","","","","2",""
"2109","bridge","sahani,daima,ngono,panya","sahani","f","2","html-keyboard-response","254","v","daima","false","",""
"1953.5","","","","","2","html-slider-response","255","","","","1",""
"3185","berry","abogado,nogozi,kinywa,kofia","kofia","n","2","html-keyboard-response","256","f","abogado","false","",""
"4404","","","","","2","html-slider-response","257","","","","3",""
"2704","triangle","kihozi,bentaha,liog,kasadpan","kasadpan","n","2","html-keyboard-response","258","n","kasadpan","true","",""
"1789","","","","","2","html-slider-response","259","","","","1",""
"1643","door","tena,soko,surali,nyota","surali","j","2","html-keyboard-response","260","f","tena","false","",""
"2642","","","","","2","html-slider-response","261","","","","1",""
"3805","fish","buli,bala,baho,imani","buli","f","2","html-keyboard-response","262","f","buli","true","",""
"1526.6000000014901","","","","","2","html-slider-response","263","","","","1",""
"2104","curtain","lisud,mchanga,bulwawan,chubani","mchanga","v","2","html-keyboard-response","264","n","chubani","false","",""
"1888.5","","","","","2","html-slider-response","265","","","","1",""
"2001","flag","ndege,mkate,trekta,kawa","trekta","j","2","html-keyboard-response","266","f","ndege","false","",""
"1389.1000000014901","","","","","2","html-slider-response","267","","","","2",""
"1752","boat","hamsi,pombe,agalon,kitanda","agalon","j","2","html-keyboard-response","268","j","agalon","true","",""
"1628.8000000044703","","","","","2","html-slider-response","269","","","","2",""
"1862","rose","singizi,mwanake,paghalad,amani","paghalad","j","2","html-keyboard-response","270","v","mwanake","false","",""
"1630","","","","","2","html-slider-response","271","","","","1",""
"1729","lamp","daub,bilaska,mbolea,afya","afya","n","2","html-keyboard-response","272","j","mbolea","false","",""
"1542.6000000014901","","","","","2","html-slider-response","273","","","","2",""
"2090","cigar","ndugu,kuta,mlango,adhabu","adhabu","n","2","html-keyboard-response","274","v","kuta","false","",""
"1832.5","","","","","2","html-slider-response","275","","","","1",""
"1872","list","alizeti,wingu,kuzama,kaso","wingu","v","2","html-keyboard-response","276","n","kaso","false","",""
"1402.8999999985099","","","","","2","html-slider-response","277","","","","1",""
"2024","sheet","bililhon,juuya,watu,kamantis","bililhon","f","2","html-keyboard-response","278","v","juuya","false","",""
"1338.7000000029802","","","","","2","html-slider-response","279","","","","1",""
"1851","picture","silya,chaki,kubwa,asin","kubwa","j","2","html-keyboard-response","280","n","asin","false","",""
"1487","","","","","2","html-slider-response","281","","","","1",""
"1270","towel","tembo,funzi,pito,pagpalit","pagpalit","n","2","html-keyboard-response","282","v","funzi","false","",""
"1789.7000000029802","","","","","2","html-slider-response","283","","","","1",""
"1936","window","nanga,kweli,kujenga,umaga","kweli","v","2","html-keyboard-response","284","f","nanga","false","",""
"1626","","","","","2","html-slider-response","285","","","","1",""
"6280","box","kuacha,adui,rafiki,kitande","adui","v","3","html-keyboard-response","293","v","adui","true","","4"
"2415.5","","","","","3","html-slider-response","294","","","","1",""
"2793","","","","","3","html-keyboard-response","295","","","","",""
"2605","pants","pintal,chuki,haki,hari","haki","j","3","html-keyboard-response","296","j","haki","true","","4"
"2028.7000000029802","","","","","3","html-slider-response","297","","","","2",""
"2905","","","","","3","html-keyboard-response","298","","","","",""
"3331","cup","dagat,shimoni,matumai,jeraha","matumai","j","3","html-keyboard-response","299","j","matumai","true","","4"
"1847.7000000029802","","","","","3","html-slider-response","300","","","","2",""
"2924","","","","","3","html-keyboard-response","301","","","","",""
"1858","triangle","kihozi,bentaha,kasadpan,liog","kasadpan","j","3","html-keyboard-response","302","v","bentaha","false","","4"
"1912.7000000029802","","","","","3","html-slider-response","303","","","","1",""
"2087","","","","","3","html-keyboard-response","304","","","","",""
"7161","curtain","mchanga,lisud,bulwawan,chubani","mchanga","f","3","html-keyboard-response","305","j","bulwawan","false","","4"
"1894.6000000014901","","","","","3","html-slider-response","306","","","","2",""
"2543","","","","","3","html-keyboard-response","307","","","","",""
"3270","clock","mbwa,kartasi,abang,osha","mbwa","f","3","html-keyboard-response","308","j","abang","false","","4"
"1909.6000000014901","","","","","3","html-slider-response","309","","","","2",""
"3103","","","","","3","html-keyboard-response","310","","","","",""
"2900","mirror","rangi,kanding,furaha,sulagma","sulagma","n","3","html-keyboard-response","311","v","kanding","false","","4"
"1690.3999999985099","","","","","3","html-slider-response","312","","","","2",""
"1380","","","","","3","html-keyboard-response","313","","","","",""
"2258","coffin","barua,tubag,kioo,hulma","kioo","j","3","html-keyboard-response","314","j","kioo","true","","1"
"2217.60000000149","","","","","3","html-slider-response","315","","","","5",""
"1734","","","","","3","html-keyboard-response","316","","","","",""
"2957","magazine","kiti,gundi,mchawi,bahandi","kiti","f","3","html-keyboard-response","317","f","kiti","true","","4"
"2393.2999999970198","","","","","3","html-slider-response","318","","","","2",""
"1665","","","","","3","html-keyboard-response","319","","","","",""
"2365","column","pundok,dila,pala,ufagio","ufagio","n","3","html-keyboard-response","320","n","ufagio","true","","1"
"1971.5999999940395","","","","","3","html-slider-response","321","","","","5",""
"995","","","","","3","html-keyboard-response","322","","","","",""
"2846","number","shule,kengele,mundamo,choori","mundamo","j","3","html-keyboard-response","323","j","mundamo","true","","4"
"2296.5","","","","","3","html-slider-response","324","","","","2",""
"1072","","","","","3","html-keyboard-response","325","","","","",""
"2853","rose","paghalad,singizi,mwanake,amani","paghalad","f","3","html-keyboard-response","326","j","mwanake","false","","4"
"1597.7000000029802","","","","","3","html-slider-response","327","","","","2",""
"2202","","","","","3","html-keyboard-response","328","","","","",""
"2686","eel","ishara,kunywa,kabuang,msumari","msumari","n","3","html-keyboard-response","329","f","ishara","false","","4"
"1580","","","","","3","html-slider-response","330","","","","2",""
"1142","","","","","3","html-keyboard-response","331","","","","",""
"2717","gift","baba,pagtawag,nyange,baso","pagtawag","v","3","html-keyboard-response","332","v","pagtawag","true","","4"
"1396.2000000029802","","","","","3","html-slider-response","333","","","","2",""
"2210","","","","","3","html-keyboard-response","334","","","","",""
"1415","apple","ukame,estante,edad,kisu","kisu","n","3","html-keyboard-response","335","n","kisu","true","","1"
"1715.3999999985099","","","","","3","html-slider-response","336","","","","5",""
"724","","","","","3","html-keyboard-response","337","","","","",""
"2214","wheel","punda,bafuni,tawo,baadaye","bafuni","v","3","html-keyboard-response","338","v","bafuni","true","","1"
"1914.5","","","","","3","html-slider-response","339","","","","5",""
"1072","","","","","3","html-keyboard-response","340","","","","",""
"2630","knee","mvuke,kubale,duka,bili","duka","j","3","html-keyboard-response","341","j","duka","true","","4"
"3298.2999999970198","","","","","3","html-slider-response","342","","","","2",""
"1093","","","","","3","html-keyboard-response","343","","","","",""
"1628","basket","kumbuka,utepe,kumba,hasira","kumba","j","3","html-keyboard-response","344","j","kumba","true","","1"
"2727.5999999940395","","","","","3","html-slider-response","345","","","","5",""
"3202","","","","","3","html-keyboard-response","346","","","","",""
"2748","park","tambok,bunifu,pwani,ihalas","bunifu","v","3","html-keyboard-response","347","j","pwani","false","","4"
"2298.5","","","","","3","html-slider-response","348","","","","2",""
"1424","","","","","3","html-keyboard-response","349","","","","",""
"2606","finger","simu,sufuria,lima,moyo","moyo","n","3","html-keyboard-response","350","f","simu","false","","4"
"1797.1000000014901","","","","","3","html-slider-response","351","","","","2",""
"1801","","","","","3","html-keyboard-response","352","","","","",""
"4145","boat","hamsi,agalon,pombe,kitanda","agalon","v","3","html-keyboard-response","353","v","agalon","true","","4"
"1561.8999999985099","","","","","3","html-slider-response","354","","","","2",""
"939","","","","","3","html-keyboard-response","355","","","","",""
"2932","hill","kushoto,kukimba,sweta,matumbo","matumbo","n","3","html-keyboard-response","356","n","matumbo","true","","4"
"1585.1999999955297","","","","","3","html-slider-response","357","","","","4",""
"969","","","","","3","html-keyboard-response","358","","","","",""
"2992","train","sayari,itik,dakika,mungu","sayari","f","3","html-keyboard-response","359","f","sayari","true","","4"
"2635.9000000059605","","","","","3","html-slider-response","360","","","","2",""
"1755","","","","","3","html-keyboard-response","361","","","","",""
"2919","wolf","lugha,kaburi,ndizi,mchuzi","lugha","f","3","html-keyboard-response","362","n","mchuzi","false","","4"
"1528.7000000029802","","","","","3","html-slider-response","363","","","","2",""
"1517","","","","","3","html-keyboard-response","364","","","","",""
"2500","snake","jansa,pagtukod,karon,mvringo","pagtukod","v","3","html-keyboard-response","365","v","pagtukod","true","","4"
"1495.3999999985099","","","","","3","html-slider-response","366","","","","2",""
"2228","","","","","3","html-keyboard-response","367","","","","",""
"2378","tooth","kijiko,kabalaka,uadui,pahiyum","kabalaka","v","3","html-keyboard-response","368","f","kijiko","false","","4"
"1688.2000000029802","","","","","3","html-slider-response","369","","","","2",""
"9903","","","","","3","html-keyboard-response","370","","","","",""
"1730","notebook","msitu,kila,mdudu,kemia","kemia","n","3","html-keyboard-response","371","j","mdudu","false","","4"
"1393.7999999970198","","","","","3","html-slider-response","372","","","","2",""
"791","","","","","3","html-keyboard-response","373","","","","",""
"2401","flag","ndege,trekta,mkate,kawa","trekta","v","3","html-keyboard-response","374","f","ndege","false","","4"
"2532","","","","","3","html-slider-response","375","","","","2",""
"1055","","","","","3","html-keyboard-response","376","","","","",""
"3005","squirrel","mahugaw,ukweli,kichwa,hofu","hofu","n","3","html-keyboard-response","377","j","kichwa","false","","4"
"1737.1999999955297","","","","","3","html-slider-response","378","","","","1",""
"1579","","","","","3","html-keyboard-response","379","","","","",""
"2794","door","tena,soko,nyota,surali","surali","n","3","html-keyboard-response","380","f","tena","false","","4"
"1452","","","","","3","html-slider-response","381","","","","2",""
"867","","","","","3","html-keyboard-response","382","","","","",""
"3003","salmon","mzungu,seri,sensilyo,baharia","sensilyo","j","3","html-keyboard-response","383","j","sensilyo","true","","4"
"2165.89999999851","","","","","3","html-slider-response","384","","","","5",""
"791","","","","","3","html-keyboard-response","385","","","","",""
"2853","shoulder","kelele,ndaniya,mkuu,guruwe","mkuu","j","3","html-keyboard-response","386","v","ndaniya","false","","4"
"1547.1000000014901","","","","","3","html-slider-response","387","","","","2",""
"1812","","","","","3","html-keyboard-response","388","","","","",""
"1905","lamp","daub,bilaska,mbolea,afya","afya","n","3","html-keyboard-response","389","f","daub","false","","4"
"2342.89999999851","","","","","3","html-slider-response","390","","","","2",""
"1280","","","","","3","html-keyboard-response","391","","","","",""
"1626","shelf","bungtod,pamahaw,kadaot,awit","pamahaw","v","3","html-keyboard-response","392","v","pamahaw","true","","1"
"1704.3000000044703","","","","","3","html-slider-response","393","","","","5",""
"1342","","","","","3","html-keyboard-response","394","","","","",""
"3138","human","bado,tinapay,kikapu,punguza","tinapay","v","3","html-keyboard-response","395","v","tinapay","true","","4"
"1745.1000000014901","","","","","3","html-slider-response","396","","","","1",""
"1058","","","","","3","html-keyboard-response","397","","","","",""
"1834","towel","tembo,funzi,pito,pagpalit","pagpalit","n","3","html-keyboard-response","398","f","tembo","false","","4"
"1647.1000000014901","","","","","3","html-slider-response","399","","","","2",""
"2090","","","","","3","html-keyboard-response","400","","","","",""
"2549","cat","neyemba,paghukom,baki,akili","paghukom","v","3","html-keyboard-response","401","j","baki","false","","4"
"1664.7999999970198","","","","","3","html-slider-response","402","","","","2",""
"1863","","","","","3","html-keyboard-response","403","","","","",""
"1848","spider","bunyag,kamwe,mkboa,atop","kamwe","v","3","html-keyboard-response","404","f","bunyag","false","","4"
"3091.5","","","","","3","html-slider-response","405","","","","4",""
"2863","","","","","3","html-keyboard-response","406","","","","",""
"2571","window","nanga,kujenga,umaga,kweli","kweli","n","3","html-keyboard-response","407","j","umaga","false","","4"
"2170.5999999940395","","","","","3","html-slider-response","408","","","","2",""
"809","","","","","3","html-keyboard-response","409","","","","",""
"1413","woman","bandari,bituin,kovuli,pagtabon","pagtabon","n","3","html-keyboard-response","410","n","pagtabon","true","","1"
"1854.2999999970198","","","","","3","html-slider-response","411","","","","5",""
"745","","","","","3","html-keyboard-response","412","","","","",""
"2046","giraffe","daraja,mahitabo,jumatu,hangyo","mahitabo","v","3","html-keyboard-response","413","f","daraja","false","","4"
"2521.5","","","","","3","html-slider-response","414","","","","4",""
"864","","","","","3","html-keyboard-response","415","","","","",""
"2426","elephant","petye,pagduol,suka,kito","kito","n","3","html-keyboard-response","416","n","kito","true","","4"
"2628.6999999955297","","","","","3","html-slider-response","417","","","","5",""
"723","","","","","3","html-keyboard-response","418","","","","",""
"2628","cave","ganti,kesho,maisha,nyundo","kesho","v","3","html-keyboard-response","419","f","ganti","false","","4"
"1498.8999999985099","","","","","3","html-slider-response","420","","","","2",""
"1557","","","","","3","html-keyboard-response","421","","","","",""
"2245","bread","dari,kaili,dizeli,bugas","dari","f","3","html-keyboard-response","422","v","kaili","false","","4"
"2429.89999999851","","","","","3","html-slider-response","423","","","","2",""
"976","","","","","3","html-keyboard-response","424","","","","",""
"4857","stone","wingi,ulimwengu,mkasi,asili","wingi","f","3","html-keyboard-response","425","n","asili","false","","4"
"1595.5","","","","","3","html-slider-response","426","","","","2",""
"11017","","","","","3","html-keyboard-response","427","","","","",""
"1912","donkey","bloke,elfu,lalake,rombus","elfu","v","3","html-keyboard-response","428","f","bloke","false","","4"
"1892.7999999970198","","","","","3","html-slider-response","429","","","","2",""
"1574","","","","","3","html-keyboard-response","430","","","","",""
"2562","bridge","sahani,daima,ngono,panya","sahani","f","3","html-keyboard-response","431","n","panya","false","","4"
"1652.5","","","","","3","html-slider-response","432","","","","2",""
"1078","","","","","3","html-keyboard-response","433","","","","",""
"3214","bonfire","mwezi,goti,mfuko,kusanya","goti","v","3","html-keyboard-response","434","j","mfuko","false","","4"
"2004.2000000029802","","","","","3","html-slider-response","435","","","","2",""
"998","","","","","3","html-keyboard-response","436","","","","",""
"2470","book","kuhesa,picha,mara,mali","mali","n","3","html-keyboard-response","437","n","mali","true","","4"
"1372.5","","","","","3","html-slider-response","438","","","","2",""
"955","","","","","3","html-keyboard-response","439","","","","",""
"7980","fish","bala,baho,imani,buli","buli","n","3","html-keyboard-response","440","n","buli","true","","4"
"1737.3999999985099","","","","","3","html-slider-response","441","","","","2",""
"950","","","","","3","html-keyboard-response","442","","","","",""
"3188","spoon","pagsulod,betri,nzuri,ngazi","pagsulod","f","3","html-keyboard-response","443","f","pagsulod","true","","4"
"1632.5999999940395","","","","","3","html-slider-response","444","","","","2",""
"1520","","","","","3","html-keyboard-response","445","","","","",""
"3091","scissors","duga,mtawa,tanuri,suga","tanuri","j","3","html-keyboard-response","446","j","tanuri","true","","4"
"3158.7000000029802","","","","","3","html-slider-response","447","","","","2",""
"887","","","","","3","html-keyboard-response","448","","","","",""
"6354","page","wimbo,wakala,ishiri,skina","wimbo","f","3","html-keyboard-response","449","f","wimbo","true","","4"
"1575.0999999940395","","","","","3","html-slider-response","450","","","","2",""
"1162","","","","","3","html-keyboard-response","451","","","","",""
"1568","nose","gubat,sehemu,kopa,kidole","sehemu","v","3","html-keyboard-response","452","v","sehemu","true","","1"
"1551.7000000029802","","","","","3","html-slider-response","453","","","","5",""
"888","","","","","3","html-keyboard-response","454","","","","",""
"17249","ceiling","kugita,kawaida,rayna,maua","maua","n","3","html-keyboard-response","455","j","rayna","false","","4"
"1592.6000000014901","","","","","3","html-slider-response","456","","","","2",""
"1124","","","","","3","html-keyboard-response","457","","","","",""
"2395","bucket","baga,kiatu,ijayo,init","kiatu","v","3","html-keyboard-response","458","v","kiatu","true","","4"
"1558.7000000029802","","","","","3","html-slider-response","459","","","","2",""
"1049","","","","","3","html-keyboard-response","460","","","","",""
"1431","berry","abogado,kofia,nogozi,kinywa","kofia","v","3","html-keyboard-response","461","v","kofia","true","","1"
"1878.8000000044703","","","","","3","html-slider-response","462","","","","5",""
"1239","","","","","3","html-keyboard-response","463","","","","",""
"1455","mother","kahawa,mbuzi,jokofu,babaye","babaye","n","3","html-keyboard-response","464","n","babaye","true","","1"
"1900","","","","","3","html-slider-response","465","","","","5",""
"818","","","","","3","html-keyboard-response","466","","","","",""
"2281","mosquito","isda,taras,gutom,martilyo","martilyo","n","3","html-keyboard-response","467","f","isda","false","","4"
"1463.3000000044703","","","","","3","html-slider-response","468","","","","1",""
"1242","","","","","3","html-keyboard-response","469","","","","",""
"3474","perfume","bino,sungura,katuyoan,ndogo","katuyoan","j","3","html-keyboard-response","470","v","sungura","false","","4"
"1393.6000000014901","","","","","3","html-slider-response","471","","","","2",""
"929","","","","","3","html-keyboard-response","472","","","","",""
"1969","sheet","juuya,watu,bililhon,kamantis","bililhon","j","3","html-keyboard-response","473","j","bililhon","true","","4"
"2101","","","","","3","html-slider-response","474","","","","1",""
"923","","","","","3","html-keyboard-response","475","","","","",""
"1308","puppet","napulo,lamok,mazishi,godoro","mazishi","j","3","html-keyboard-response","476","j","mazishi","true","","1"
"1641.2999999970198","","","","","3","html-slider-response","477","","","","5",""
"1036","","","","","3","html-keyboard-response","478","","","","",""
"1856","poster","nchi,fedha,kasuko,madungog","madungog","n","3","html-keyboard-response","479","f","nchi","false","","4"
"1514.8999999985099","","","","","3","html-slider-response","480","","","","2",""
"761","","","","","3","html-keyboard-response","481","","","","",""
"2173","music","mraba,baiski,mageho,tumbo","baiski","v","3","html-keyboard-response","482","f","mraba","false","","4"
"1652.6999999955297","","","","","3","html-slider-response","483","","","","2",""
"1163","","","","","3","html-keyboard-response","484","","","","",""
"1977","key","miaka,chombo,goma,ahos","chombo","v","3","html-keyboard-response","485","j","goma","false","","4"
"1682.7999999970198","","","","","3","html-slider-response","486","","","","4",""
"1081","","","","","3","html-keyboard-response","487","","","","",""
"22603","sock","ndoora,kimysa,mamba,mtirka","mamba","j","3","html-keyboard-response","488","f","ndoora","false","","4"
"1598.2999999970198","","","","","3","html-slider-response","489","","","","2",""
"982","","","","","3","html-keyboard-response","490","","","","",""
"3125","marker","mapafu,salita,maji,atay","maji","j","3","html-keyboard-response","491","j","maji","true","","4"
"1534","","","","","3","html-slider-response","492","","","","2",""
"857","","","","","3","html-keyboard-response","493","","","","",""
"2433","office","hazini,yatima,kuna,leso","leso","n","3","html-keyboard-response","494","f","hazini","false","","4"
"1546.8999999985099","","","","","3","html-slider-response","495","","","","2",""
"978","","","","","3","html-keyboard-response","496","","","","",""
"3172","shoe","nyeusi,hatua,kama,uyoga","uyoga","n","3","html-keyboard-response","497","n","uyoga","true","","4"
"1917.1999999955297","","","","","3","html-slider-response","498","","","","5",""
"833","","","","","3","html-keyboard-response","499","","","","",""
"3252","cop","mechezo,bustani,jikoni,bakus","mechezo","f","3","html-keyboard-response","500","f","mechezo","true","","4"
"1369.5","","","","","3","html-slider-response","501","","","","2",""
"824","","","","","3","html-keyboard-response","502","","","","",""
"3041","bank","kudhibi,tualya,ofisi,silingan","silingan","n","3","html-keyboard-response","503","f","kudhibi","false","","4"
"1384.2000000029802","","","","","3","html-slider-response","504","","","","2",""
"876","","","","","3","html-keyboard-response","505","","","","",""
"1346","letter","filimbi,chuma,kifua,uhuru","kifua","j","3","html-keyboard-response","506","j","kifua","true","","1"
"1802.7999999970198","","","","","3","html-slider-response","507","","","","5",""
"701","","","","","3","html-keyboard-response","508","","","","",""
"1440","dog","lubi,washia,kalamu,bahari","bahari","n","3","html-keyboard-response","509","n","bahari","true","","1"
"1620.5","","","","","3","html-slider-response","510","","","","5",""
"690","","","","","3","html-keyboard-response","511","","","","",""
"32494","shop","nopya,samaki,kerida,ndezu","samaki","v","3","html-keyboard-response","512","f","nopya","false","","4"
"1668.1000000014901","","","","","3","html-slider-response","513","","","","2",""
"616","","","","","3","html-keyboard-response","514","","","","",""
"2605","flower","tamasha,bega,lobo,usiku","bega","v","3","html-keyboard-response","515","n","usiku","false","","4"
"1583","","","","","3","html-slider-response","516","","","","2",""
"919","","","","","3","html-keyboard-response","517","","","","",""
"1296","cigar","ndugu,kuta,mlango,adhabu","adhabu","n","3","html-keyboard-response","518","n","adhabu","true","","1"
"2069.39999999851","","","","","3","html-slider-response","519","","","","5",""
"1205","","","","","3","html-keyboard-response","520","","","","",""
"2126","hammer","napakyas,mekno,kitovu,layag","napakyas","f","3","html-keyboard-response","521","v","mekno","false","","4"
"1435.2000000029802","","","","","3","html-slider-response","522","","","","2",""
"1035","","","","","3","html-keyboard-response","523","","","","",""
"5994","fork","mgonjwa,baboy,paghago,gorisi","mgonjwa","f","3","html-keyboard-response","524","j","paghago","false","","4"
"2229.89999999851","","","","","3","html-slider-response","525","","","","1",""
"886","","","","","3","html-keyboard-response","526","","","","",""
"1292","sun","basi,bendi,luha,uongo","basi","f","3","html-keyboard-response","527","f","basi","true","","1"
"2554.39999999851","","","","","3","html-slider-response","528","","","","5",""
"717","","","","","3","html-keyboard-response","529","","","","",""
"33654","ladder","mashua,mwanga,kamba,pangalan","pangalan","n","3","html-keyboard-response","530","v","mwanga","false","","4"
"1623.7000000029802","","","","","3","html-slider-response","531","","","","1",""
"1083","","","","","3","html-keyboard-response","532","","","","",""
"1508","banana","kasamok,kazi,hagdan,twai","kazi","v","3","html-keyboard-response","533","v","kazi","true","","1"
"2403.1999999955297","","","","","3","html-slider-response","534","","","","5",""
"867","","","","","3","html-keyboard-response","535","","","","",""
"3479","pudding","abug,mpishi,aibu,iring","aibu","j","3","html-keyboard-response","536","n","iring","false","","4"
"1889.6000000014901","","","","","3","html-slider-response","537","","","","1",""
"1057","","","","","3","html-keyboard-response","538","","","","",""
"3599","body","tindashan,nyundu,jibini,kununa","tindashan","f","3","html-keyboard-response","539","v","nyundu","false","","4"
"1958.7000000029802","","","","","3","html-slider-response","540","","","","1",""
"900","","","","","3","html-keyboard-response","541","","","","",""
"2553","bed","mapintas,kalipay,haraka,starehe","mapintas","f","3","html-keyboard-response","542","v","kalipay","false","","4"
"1830.6999999955297","","","","","3","html-slider-response","543","","","","2",""
"1078","","","","","3","html-keyboard-response","544","","","","",""
"2596","tissue","ugomvi,lamigas,kisiwa,katika","ugomvi","f","3","html-keyboard-response","545","n","katika","false","","4"
"1679.8999999985099","","","","","3","html-slider-response","546","","","","2",""
"974","","","","","3","html-keyboard-response","547","","","","",""
"4741","candle","geza,gabi,farasi,kupanda","geza","f","3","html-keyboard-response","548","f","geza","true","","4"
"1732.3000000044703","","","","","3","html-slider-response","549","","","","2",""
"1629","","","","","3","html-keyboard-response","550","","","","",""
"1625","tomato","chupi,chupa,takatak,mvua","mvua","n","3","html-keyboard-response","551","n","mvua","true","","1"
"1818.2999999970198","","","","","3","html-slider-response","552","","","","5",""
"922","","","","","3","html-keyboard-response","553","","","","",""
"4843","list","wingu,alizeti,kuzama,kaso","wingu","f","3","html-keyboard-response","554","n","kaso","false","","4"
"2299.5","","","","","3","html-slider-response","555","","","","2",""
"694","","","","","3","html-keyboard-response","556","","","","",""
"4727","olive","bata,siagi,jiwe,welder","jiwe","j","3","html-keyboard-response","557","j","jiwe","true","","4"
"2831.8000000044703","","","","","3","html-slider-response","558","","","","2",""
"4473","","","","","3","html-keyboard-response","559","","","","",""
"1556","picture","silya,kubwa,chaki,asin","kubwa","v","3","html-keyboard-response","560","v","kubwa","true","","1"
"8682.89999999851","","","","","3","html-slider-response","561","","","","5",""
"717","","","","","3","html-keyboard-response","562","","","","",""
"4313","page","wakala,ishiri,wimbo,skina","wimbo","j","4","html-keyboard-response","888","j","wimbo","true","",""
"2349","","","","","4","html-slider-response","889","","","","1",""
"2736","sheet","bililhon,juuya,watu,kamantis","bililhon","f","4","html-keyboard-response","890","f","bililhon","true","",""
"2127.5","","","","","4","html-slider-response","891","","","","2",""
"2771","ladder","mashua,mwanga,pangalan,kamba","pangalan","j","4","html-keyboard-response","892","v","mwanga","false","",""
"2129.5","","","","","4","html-slider-response","893","","","","4",""
"2168","door","surali,tena,soko,nyota","surali","f","4","html-keyboard-response","894","j","soko","false","",""
"2297.60000000149","","","","","4","html-slider-response","895","","","","2",""
"6148","spider","bunyag,kamwe,mkboa,atop","kamwe","v","4","html-keyboard-response","896","f","bunyag","false","",""
"2349.1999999955297","","","","","4","html-slider-response","897","","","","4",""
"3610","picture","silya,chaki,asin,kubwa","kubwa","n","4","html-keyboard-response","898","f","silya","false","",""
"2271.1999999955297","","","","","4","html-slider-response","899","","","","3",""
"2839","boat","hamsi,pombe,kitanda,agalon","agalon","n","4","html-keyboard-response","900","v","pombe","false","",""
"1626.1999999955297","","","","","4","html-slider-response","901","","","","2",""
"2457","donkey","elfu,bloke,lalake,rombus","elfu","f","4","html-keyboard-response","902","f","elfu","true","",""
"2025.6999999955297","","","","","4","html-slider-response","903","","","","4",""
"2874","book","kuhesa,picha,mara,mali","mali","n","4","html-keyboard-response","904","v","picha","false","",""
"1639.5","","","","","4","html-slider-response","905","","","","4",""
"4223","cup","matumai,dagat,shimoni,jeraha","matumai","f","4","html-keyboard-response","906","j","shimoni","false","",""
"1788.5","","","","","4","html-slider-response","907","","","","2",""
"3369","sun","bendi,basi,luha,uongo","basi","v","4","html-keyboard-response","908","v","basi","true","",""
"1806.7000000029802","","","","","4","html-slider-response","909","","","","5",""
"3248","pudding","abug,aibu,mpishi,iring","aibu","v","4","html-keyboard-response","910","j","mpishi","false","",""
"2134.0999999940395","","","","","4","html-slider-response","911","","","","2",""
"2522","human","bado,kikapu,tinapay,punguza","tinapay","j","4","html-keyboard-response","912","j","tinapay","true","",""
"1801.3000000044703","","","","","4","html-slider-response","913","","","","5",""
"4520","squirrel","hofu,mahugaw,ukweli,kichwa","hofu","f","4","html-keyboard-response","914","f","hofu","true","",""
"1666.7000000029802","","","","","4","html-slider-response","915","","","","4",""
"2062","park","tambok,pwani,bunifu,ihalas","bunifu","j","4","html-keyboard-response","916","v","pwani","false","",""
"2565.8000000044703","","","","","4","html-slider-response","917","","","","2",""
"4613","poster","madungog,nchi,fedha,kasuko","madungog","f","4","html-keyboard-response","918","v","nchi","false","",""
"3198.6999999955297","","","","","4","html-slider-response","919","","","","2",""
"9095","wolf","kaburi,ndizi,mchuzi,lugha","lugha","n","4","html-keyboard-response","920","n","lugha","true","",""
"4036.39999999851","","","","","4","html-slider-response","921","","","","2",""
"5321","cat","neyemba,baki,paghukom,akili","paghukom","j","4","html-keyboard-response","922","j","paghukom","true","",""
"2924.10000000149","","","","","4","html-slider-response","923","","","","3",""
"3397","fish","bala,baho,imani,buli","buli","n","4","html-keyboard-response","924","n","buli","true","",""
"1678.5","","","","","4","html-slider-response","925","","","","4",""
"2531","tooth","kijiko,kabalaka,uadui,pahiyum","kabalaka","v","4","html-keyboard-response","926","j","uadui","false","",""
"2557.7999999970198","","","","","4","html-slider-response","927","","","","1",""
"2915","cave","kesho,ganti,maisha,nyundo","kesho","f","4","html-keyboard-response","928","n","nyundo","false","",""
"3071.7999999970198","","","","","4","html-slider-response","929","","","","2",""
"2853","lamp","daub,afya,bilaska,mbolea","afya","v","4","html-keyboard-response","930","f","daub","false","",""
"1800.3999999985099","","","","","4","html-slider-response","931","","","","2",""
"2452","banana","kazi,kasamok,hagdan,twai","kazi","f","4","html-keyboard-response","932","f","kazi","true","",""
"1533.1000000014901","","","","","4","html-slider-response","933","","","","5",""
"1743","bonfire","goti,mwezi,mfuko,kusanya","goti","f","4","html-keyboard-response","934","f","goti","true","",""
"1721","","","","","4","html-slider-response","935","","","","5",""
"3370","cop","bustani,jikoni,bakus,mechezo","mechezo","n","4","html-keyboard-response","936","f","bustani","false","",""
"1730.2000000029802","","","","","4","html-slider-response","937","","","","2",""
"2509","marker","mapafu,salita,maji,atay","maji","j","4","html-keyboard-response","938","f","mapafu","false","",""
"2146.5","","","","","4","html-slider-response","939","","","","2",""
"8883","window","kweli,nanga,kujenga,umaga","kweli","f","4","html-keyboard-response","940","n","umaga","false","",""
"2655.60000000149","","","","","4","html-slider-response","941","","","","2",""
"3722","body","tindashan,nyundu,jibini,kununa","tindashan","f","4","html-keyboard-response","942","f","tindashan","true","",""
"2036.3000000044703","","","","","4","html-slider-response","943","","","","2",""
"3537","apple","ukame,estante,kisu,edad","kisu","j","4","html-keyboard-response","944","n","edad","false","",""
"2213.2999999970198","","","","","4","html-slider-response","945","","","","2",""
"2640","salmon","mzungu,seri,baharia,sensilyo","sensilyo","n","4","html-keyboard-response","946","n","sensilyo","true","",""
"1823.5999999940395","","","","","4","html-slider-response","947","","","","5",""
"3690","bed","mapintas,kalipay,haraka,starehe","mapintas","f","4","html-keyboard-response","948","n","starehe","false","",""
"1784.3999999985099","","","","","4","html-slider-response","949","","","","2",""
"6742","berry","abogado,nogozi,kofia,kinywa","kofia","j","4","html-keyboard-response","950","v","nogozi","false","",""
"2587.39999999851","","","","","4","html-slider-response","951","","","","4",""
"2635","mirror","rangi,sulagma,kanding,furaha","sulagma","v","4","html-keyboard-response","952","n","furaha","false","",""
"1414.6000000014901","","","","","4","html-slider-response","953","","","","2",""
"8665","flag","ndege,trekta,mkate,kawa","trekta","v","4","html-keyboard-response","954","f","ndege","false","",""
"4385.10000000149","","","","","4","html-slider-response","955","","","","2",""
"5302","shoulder","kelele,ndaniya,guruwe,mkuu","mkuu","n","4","html-keyboard-response","956","n","mkuu","true","",""
"4082.7999999970198","","","","","4","html-slider-response","957","","","","3",""
"8592","tissue","lamigas,ugomvi,kisiwa,katika","ugomvi","v","4","html-keyboard-response","958","j","kisiwa","false","",""
"1571.7999999970198","","","","","4","html-slider-response","959","","","","2",""
"2993","notebook","msitu,kemia,kila,mdudu","kemia","v","4","html-keyboard-response","960","f","msitu","false","",""
"1387.8999999985099","","","","","4","html-slider-response","961","","","","2",""
"3613","snake","jansa,pagtukod,karon,mvringo","pagtukod","v","4","html-keyboard-response","962","j","karon","false","",""
"1567.2999999970198","","","","","4","html-slider-response","963","","","","2",""
"3411","finger","simu,moyo,sufuria,lima","moyo","v","4","html-keyboard-response","964","n","lima","false","",""
"2133.2000000029802","","","","","4","html-slider-response","965","","","","2",""
"5072","basket","kumbuka,utepe,kumba,hasira","kumba","j","4","html-keyboard-response","966","j","kumba","true","",""
"1696.6999999955297","","","","","4","html-slider-response","967","","","","2",""
"3840","curtain","lisud,mchanga,bulwawan,chubani","mchanga","v","4","html-keyboard-response","968","v","mchanga","true","",""
"1674.6000000014901","","","","","4","html-slider-response","969","","","","2",""
"2744","perfume","bino,sungura,katuyoan,ndogo","katuyoan","j","4","html-keyboard-response","970","n","ndogo","false","",""
"1926.1999999955297","","","","","4","html-slider-response","971","","","","2",""
"3090","key","chombo,miaka,goma,ahos","chombo","f","4","html-keyboard-response","972","j","goma","false","",""
"2698.7000000029802","","","","","4","html-slider-response","973","","","","4",""
"3124","olive","bata,jiwe,siagi,welder","jiwe","v","4","html-keyboard-response","974","v","jiwe","true","",""
"1690.7999999970198","","","","","4","html-slider-response","975","","","","4",""
"2543","rose","singizi,mwanake,paghalad,amani","paghalad","j","4","html-keyboard-response","976","j","paghalad","true","",""
"1662.9000000059605","","","","","4","html-slider-response","977","","","","5",""
"3116","bridge","sahani,daima,ngono,panya","sahani","f","4","html-keyboard-response","978","n","panya","false","",""
"2009","","","","","4","html-slider-response","979","","","","2",""
"6295","hill","kushoto,kukimba,matumbo,sweta","matumbo","j","4","html-keyboard-response","980","f","kushoto","false","",""
"2039.5","","","","","4","html-slider-response","981","","","","2",""
"5363","letter","kifua,filimbi,chuma,uhuru","kifua","f","4","html-keyboard-response","982","j","chuma","false","",""
"2055.7999999970198","","","","","4","html-slider-response","983","","","","1",""
"4419","sock","ndoora,mamba,kimysa,mtirka","mamba","v","4","html-keyboard-response","984","f","ndoora","false","",""
"2332","","","","","4","html-slider-response","985","","","","2",""
"5405","fork","mgonjwa,baboy,paghago,gorisi","mgonjwa","f","4","html-keyboard-response","986","v","baboy","false","",""
"1651.2999999970198","","","","","4","html-slider-response","987","","","","4",""
"3268","box","kuacha,adui,rafiki,kitande","adui","v","4","html-keyboard-response","988","v","adui","true","",""
"1750.8999999985099","","","","","4","html-slider-response","989","","","","2",""
"6926","gift","baba,nyange,pagtawag,baso","pagtawag","j","4","html-keyboard-response","990","n","baso","false","",""
"3529.7999999970198","","","","","4","html-slider-response","991","","","","2",""
"3074","bucket","kiatu,baga,ijayo,init","kiatu","f","4","html-keyboard-response","992","n","init","false","",""
"2929.2999999970198","","","","","4","html-slider-response","993","","","","2",""
"2755","shop","nopya,kerida,ndezu,samaki","samaki","n","4","html-keyboard-response","994","f","nopya","false","",""
"1981.8000000044703","","","","","4","html-slider-response","995","","","","2",""
"2785","puppet","mazishi,napulo,lamok,godoro","mazishi","f","4","html-keyboard-response","996","n","godoro","false","",""
"1666.6000000014901","","","","","4","html-slider-response","997","","","","4",""
"5299","nose","sehemu,gubat,kopa,kidole","sehemu","f","4","html-keyboard-response","998","v","gubat","false","",""
"1494","","","","","4","html-slider-response","999","","","","2",""
"3082","music","baiski,mraba,mageho,tumbo","baiski","f","4","html-keyboard-response","1000","n","tumbo","false","",""
"1727.0999999940395","","","","","4","html-slider-response","1001","","","","5",""
"3204","dog","lubi,bahari,washia,kalamu","bahari","v","4","html-keyboard-response","1002","v","bahari","true","",""
"1570.3999999985099","","","","","4","html-slider-response","1003","","","","5",""
"3058","eel","ishara,msumari,kunywa,kabuang","msumari","v","4","html-keyboard-response","1004","n","kabuang","false","",""
"2296.6999999955297","","","","","4","html-slider-response","1005","","","","2",""
"2770","number","mundamo,shule,kengele,choori","mundamo","f","4","html-keyboard-response","1006","f","mundamo","true","",""
"1982.3999999985099","","","","","4","html-slider-response","1007","","","","2",""
"5019","tomato","chupi,chupa,takatak,mvua","mvua","n","4","html-keyboard-response","1008","n","mvua","true","",""
"1545.2000000029802","","","","","4","html-slider-response","1009","","","","4",""
"2845","coffin","barua,kioo,tubag,hulma","kioo","v","4","html-keyboard-response","1010","j","tubag","false","",""
"1479.5","","","","","4","html-slider-response","1011","","","","2",""
"4617","knee","mvuke,kubale,duka,bili","duka","j","4","html-keyboard-response","1012","j","duka","true","",""
"3248","","","","","4","html-slider-response","1013","","","","3",""
"4204","woman","bandari,bituin,pagtabon,kovuli","pagtabon","j","4","html-keyboard-response","1014","n","kovuli","false","",""
"1910.1000000014901","","","","","4","html-slider-response","1015","","","","2",""
"2526","stone","ulimwengu,mkasi,wingi,asili","wingi","j","4","html-keyboard-response","1016","j","wingi","true","",""
"1630.7999999970198","","","","","4","html-slider-response","1017","","","","2",""
"3536","bread","kaili,dari,dizeli,bugas","dari","v","4","html-keyboard-response","1018","f","kaili","false","",""
"1746.8999999985099","","","","","4","html-slider-response","1019","","","","2",""
"3942","triangle","kasadpan,kihozi,bentaha,liog","kasadpan","f","4","html-keyboard-response","1020","j","bentaha","false","",""
"2318.5","","","","","4","html-slider-response","1021","","","","1",""
"2184","scissors","tanuri,duga,mtawa,suga","tanuri","f","4","html-keyboard-response","1022","f","tanuri","true","",""
"1629.7000000029802","","","","","4","html-slider-response","1023","","","","4",""
"2780","giraffe","daraja,jumatu,hangyo,mahitabo","mahitabo","n","4","html-keyboard-response","1024","j","hangyo","false","",""
"2707.7000000029802","","","","","4","html-slider-response","1025","","","","3",""
"3009","flower","tamasha,lobo,usiku,bega","bega","n","4","html-keyboard-response","1026","j","usiku","false","",""
"1341.8999999985099","","","","","4","html-slider-response","1027","","","","2",""
"2917","candle","gabi,farasi,geza,kupanda","geza","j","4","html-keyboard-response","1028","j","geza","true","",""
"1816.5999999940395","","","","","4","html-slider-response","1029","","","","2",""
"1554","mother","babaye,kahawa,mbuzi,jokofu","babaye","f","4","html-keyboard-response","1030","f","babaye","true","",""
"1804.5","","","","","4","html-slider-response","1031","","","","5",""
"3480","towel","pagpalit,tembo,funzi,pito","pagpalit","f","4","html-keyboard-response","1032","j","funzi","false","",""
"1746.5","","","","","4","html-slider-response","1033","","","","2",""
"2215","elephant","petye,pagduol,suka,kito","kito","n","4","html-keyboard-response","1034","n","kito","true","",""
"1745.4000000059605","","","","","4","html-slider-response","1035","","","","5",""
"2530","shelf","bungtod,kadaot,pamahaw,awit","pamahaw","j","4","html-keyboard-response","1036","f","bungtod","false","",""
"1564.8000000044703","","","","","4","html-slider-response","1037","","","","2",""
"2539","mosquito","martilyo,isda,taras,gutom","martilyo","f","4","html-keyboard-response","1038","f","martilyo","true","",""
"1593.2999999970198","","","","","4","html-slider-response","1039","","","","4",""
"3012","column","ufagio,pundok,dila,pala","ufagio","f","4","html-keyboard-response","1040","f","ufagio","true","",""
"1594.7000000029802","","","","","4","html-slider-response","1041","","","","4",""
"3861","pants","haki,pintal,chuki,hari","haki","f","4","html-keyboard-response","1042","v","pintal","false","",""
"1530.6000000014901","","","","","4","html-slider-response","1043","","","","2",""
"3080","list","alizeti,kuzama,wingu,kaso","wingu","j","4","html-keyboard-response","1044","f","alizeti","false","",""
"1479.3999999985099","","","","","4","html-slider-response","1045","","","","2",""
"4281","bank","silingan,kudhibi,tualya,ofisi","silingan","f","4","html-keyboard-response","1046","v","kudhibi","false","",""
"1482","","","","","4","html-slider-response","1047","","","","2",""
"3114","clock","kartasi,mbwa,abang,osha","mbwa","v","4","html-keyboard-response","1048","f","kartasi","false","",""
"1482.2999999970198","","","","","4","html-slider-response","1049","","","","2",""
"2413","ceiling","kugita,kawaida,maua,rayna","maua","j","4","html-keyboard-response","1050","j","maua","true","",""
"1984","","","","","4","html-slider-response","1051","","","","2",""
"2771","train","itik,dakika,mungu,sayari","sayari","n","4","html-keyboard-response","1052","v","dakika","false","",""
"1430.1000000014901","","","","","4","html-slider-response","1053","","","","2",""
"4806","magazine","gundi,mchawi,bahandi,kiti","kiti","n","4","html-keyboard-response","1054","v","mchawi","false","",""
"1285.8999999985099","","","","","4","html-slider-response","1055","","","","2",""
"2360","office","hazini,yatima,kuna,leso","leso","n","4","html-keyboard-response","1056","v","yatima","false","",""
"2672.2999999970198","","","","","4","html-slider-response","1057","","","","3",""
"8517","wheel","punda,tawo,baadaye,bafuni","bafuni","n","4","html-keyboard-response","1058","v","tawo","false","",""
"2184.5999999940395","","","","","4","html-slider-response","1059","","","","2",""
"5680","spoon","betri,nzuri,pagsulod,ngazi","pagsulod","j","4","html-keyboard-response","1060","v","nzuri","false","",""
"3481.3000000044703","","","","","4","html-slider-response","1061","","","","4",""
"2594","hammer","napakyas,mekno,kitovu,layag","napakyas","f","4","html-keyboard-response","1062","v","mekno","false","",""
"2072.39999999851","","","","","4","html-slider-response","1063","","","","2",""
"2510","cigar","ndugu,adhabu,kuta,mlango","adhabu","v","4","html-keyboard-response","1064","v","adhabu","true","",""
"1779","","","","","4","html-slider-response","1065","","","","2",""
"2631","shoe","nyeusi,uyoga,hatua,kama","uyoga","v","4","html-keyboard-response","1066","v","uyoga","true","",""
"2259.10000000149","","","","","4","html-slider-response","1067","","","","5",""
"5945","list","wingu,alizeti,kuzama,kaso","wingu","f","5","html-keyboard-response","1069","v","alizeti","false","",""
"2314","","","","","5","html-slider-response","1070","","","","2",""
"2579","number","mundamo,shule,kengele,choori","mundamo","f","5","html-keyboard-response","1071","f","mundamo","true","",""
"1796.2999999970198","","","","","5","html-slider-response","1072","","","","2",""
"4901","apple","kisu,ukame,estante,edad","kisu","f","5","html-keyboard-response","1073","f","kisu","true","",""
"1480.5999999940395","","","","","5","html-slider-response","1074","","","","2",""
"4059","knee","mvuke,duka,kubale,bili","duka","v","5","html-keyboard-response","1075","v","duka","true","",""
"2182.39999999851","","","","","5","html-slider-response","1076","","","","3",""
"2347","tooth","kijiko,uadui,pahiyum,kabalaka","kabalaka","n","5","html-keyboard-response","1077","f","kijiko","false","",""
"2009.8000000044703","","","","","5","html-slider-response","1078","","","","2",""
"5666","berry","kofia,abogado,nogozi,kinywa","kofia","f","5","html-keyboard-response","1079","f","kofia","true","",""
"2187.39999999851","","","","","5","html-slider-response","1080","","","","3",""
"3385","bridge","daima,sahani,ngono,panya","sahani","v","5","html-keyboard-response","1081","f","daima","false","",""
"1524.8000000044703","","","","","5","html-slider-response","1082","","","","2",""
"6371","perfume","bino,katuyoan,sungura,ndogo","katuyoan","v","5","html-keyboard-response","1083","j","sungura","false","",""
"3545.3000000044703","","","","","5","html-slider-response","1084","","","","3",""
"2143","ladder","pangalan,mashua,mwanga,kamba","pangalan","f","5","html-keyboard-response","1085","f","pangalan","true","",""
"2329.6999999955297","","","","","5","html-slider-response","1086","","","","3",""
"3237","pants","pintal,chuki,haki,hari","haki","j","5","html-keyboard-response","1087","j","haki","true","",""
"2749.3000000044703","","","","","5","html-slider-response","1088","","","","3",""
"1722","salmon","sensilyo,mzungu,seri,baharia","sensilyo","f","5","html-keyboard-response","1089","f","sensilyo","true","",""
"1829.6999999955297","","","","","5","html-slider-response","1090","","","","5",""
"3550","coffin","barua,kioo,tubag,hulma","kioo","v","5","html-keyboard-response","1091","j","tubag","false","",""
"2242.2000000029802","","","","","5","html-slider-response","1092","","","","2",""
"2579","park","bunifu,tambok,pwani,ihalas","bunifu","f","5","html-keyboard-response","1093","f","bunifu","true","",""
"1533.2000000029802","","","","","5","html-slider-response","1094","","","","2",""
"2838","giraffe","daraja,jumatu,mahitabo,hangyo","mahitabo","j","5","html-keyboard-response","1095","n","hangyo","false","",""
"1512.8999999985099","","","","","5","html-slider-response","1096","","","","4",""
"7624","mirror","sulagma,rangi,kanding,furaha","sulagma","f","5","html-keyboard-response","1097","j","kanding","false","",""
"1837.2999999970198","","","","","5","html-slider-response","1098","","","","1",""
"2277","ceiling","maua,kugita,kawaida,rayna","maua","f","5","html-keyboard-response","1099","f","maua","true","",""
"1651.2000000029802","","","","","5","html-slider-response","1100","","","","4",""
"3082","marker","mapafu,salita,maji,atay","maji","j","5","html-keyboard-response","1101","j","maji","true","",""
"1663.5","","","","","5","html-slider-response","1102","","","","2",""
"2546","sock","ndoora,mamba,kimysa,mtirka","mamba","v","5","html-keyboard-response","1103","f","ndoora","false","",""
"1779.8000000044703","","","","","5","html-slider-response","1104","","","","2",""
"1846","cop","bustani,mechezo,jikoni,bakus","mechezo","v","5","html-keyboard-response","1105","f","bustani","false","",""
"2003.2000000029802","","","","","5","html-slider-response","1106","","","","4",""
"2532","gift","baba,pagtawag,nyange,baso","pagtawag","v","5","html-keyboard-response","1107","n","baso","false","",""
"1402.7999999970198","","","","","5","html-slider-response","1108","","","","2",""
"1923","notebook","msitu,kila,mdudu,kemia","kemia","n","5","html-keyboard-response","1109","f","msitu","false","",""
"1917.7000000029802","","","","","5","html-slider-response","1110","","","","2",""
"3127","bank","silingan,kudhibi,tualya,ofisi","silingan","f","5","html-keyboard-response","1111","n","ofisi","false","",""
"1656.5999999940395","","","","","5","html-slider-response","1112","","","","4",""
"3370","letter","filimbi,kifua,chuma,uhuru","kifua","v","5","html-keyboard-response","1113","f","filimbi","false","",""
"1825.3999999985099","","","","","5","html-slider-response","1114","","","","2",""
"3123","candle","geza,gabi,farasi,kupanda","geza","f","5","html-keyboard-response","1115","f","geza","true","",""
"2606.39999999851","","","","","5","html-slider-response","1116","","","","2",""
"2080","bread","dari,kaili,dizeli,bugas","dari","f","5","html-keyboard-response","1117","f","dari","true","",""
"2237.2000000029802","","","","","5","html-slider-response","1118","","","","2",""
"4368","snake","jansa,karon,mvringo,pagtukod","pagtukod","n","5","html-keyboard-response","1119","n","pagtukod","true","",""
"1661.3000000044703","","","","","5","html-slider-response","1120","","","","4",""
"2459","rose","singizi,mwanake,paghalad,amani","paghalad","j","5","html-keyboard-response","1121","j","paghalad","true","",""
"1637.5","","","","","5","html-slider-response","1122","","","","5",""
"2528","hill","kushoto,kukimba,sweta,matumbo","matumbo","n","5","html-keyboard-response","1123","f","kushoto","false","",""
"1558","","","","","5","html-slider-response","1124","","","","2",""
"2777","train","itik,dakika,mungu,sayari","sayari","n","5","html-keyboard-response","1125","f","itik","false","",""
"1648.1000000014901","","","","","5","html-slider-response","1126","","","","2",""
"4020","shop","nopya,samaki,kerida,ndezu","samaki","v","5","html-keyboard-response","1127","v","samaki","true","",""
"1832.7999999970198","","","","","5","html-slider-response","1128","","","","2",""
"3775","nose","gubat,kopa,kidole,sehemu","sehemu","n","5","html-keyboard-response","1129","v","kopa","false","",""
"1805.1999999955297","","","","","5","html-slider-response","1130","","","","2",""
"2468","boat","hamsi,agalon,pombe,kitanda","agalon","v","5","html-keyboard-response","1131","j","pombe","false","",""
"1452.6000000014901","","","","","5","html-slider-response","1132","","","","2",""
"2983","body","nyundu,tindashan,jibini,kununa","tindashan","v","5","html-keyboard-response","1133","n","kununa","false","",""
"1319.7000000029802","","","","","5","html-slider-response","1134","","","","2",""
"3048","bed","kalipay,mapintas,haraka,starehe","mapintas","v","5","html-keyboard-response","1135","j","haraka","false","",""
"2465.3000000044703","","","","","5","html-slider-response","1136","","","","1",""
"3420","squirrel","mahugaw,ukweli,kichwa,hofu","hofu","n","5","html-keyboard-response","1137","n","hofu","true","",""
"1791.1999999955297","","","","","5","html-slider-response","1138","","","","5",""
"1954","window","nanga,kujenga,umaga,kweli","kweli","n","5","html-keyboard-response","1139","f","nanga","false","",""
"1381.6999999955297","","","","","5","html-slider-response","1140","","","","2",""
"1355","bonfire","goti,mwezi,mfuko,kusanya","goti","f","5","html-keyboard-response","1141","f","goti","true","",""
"1757.8999999985099","","","","","5","html-slider-response","1142","","","","5",""
"2607","fish","bala,buli,baho,imani","buli","v","5","html-keyboard-response","1143","n","imani","false","",""
"3095.60000000149","","","","","5","html-slider-response","1144","","","","2",""
"5185","cat","neyemba,baki,akili,paghukom","paghukom","n","5","html-keyboard-response","1145","v","baki","false","",""
"2828","","","","","5","html-slider-response","1146","","","","2",""
"2545","spider","bunyag,kamwe,mkboa,atop","kamwe","v","5","html-keyboard-response","1147","f","bunyag","false","",""
"1443.1999999955297","","","","","5","html-slider-response","1148","","","","4",""
"3170","eel","ishara,kunywa,kabuang,msumari","msumari","n","5","html-keyboard-response","1149","n","msumari","true","",""
"1873.5","","","","","5","html-slider-response","1150","","","","2",""
"4165","woman","bandari,pagtabon,bituin,kovuli","pagtabon","v","5","html-keyboard-response","1151","n","kovuli","false","",""
"2348.7000000029802","","","","","5","html-slider-response","1152","","","","3",""
"3109","magazine","gundi,mchawi,bahandi,kiti","kiti","n","5","html-keyboard-response","1153","n","kiti","true","",""
"1288.5","","","","","5","html-slider-response","1154","","","","4",""
"2208","pudding","abug,aibu,mpishi,iring","aibu","v","5","html-keyboard-response","1155","f","abug","false","",""
"1877.8999999985099","","","","","5","html-slider-response","1156","","","","2",""
"2815","lamp","afya,daub,bilaska,mbolea","afya","f","5","html-keyboard-response","1157","v","daub","false","",""
"1527.7000000029802","","","","","5","html-slider-response","1158","","","","2",""
"3924","cave","ganti,maisha,kesho,nyundo","kesho","j","5","html-keyboard-response","1159","f","ganti","false","",""
"1457.5","","","","","5","html-slider-response","1160","","","","2",""
"4268","shoulder","kelele,mkuu,ndaniya,guruwe","mkuu","v","5","html-keyboard-response","1161","j","ndaniya","false","",""
"1766.3999999985099","","","","","5","html-slider-response","1162","","","","4",""
"2240","stone","ulimwengu,mkasi,asili,wingi","wingi","n","5","html-keyboard-response","1163","v","mkasi","false","",""
"1520.7999999970198","","","","","5","html-slider-response","1164","","","","1",""
"5228","column","pundok,dila,pala,ufagio","ufagio","n","5","html-keyboard-response","1165","n","ufagio","true","",""
"2143.2999999970198","","","","","5","html-slider-response","1166","","","","2",""
"2389","page","wakala,ishiri,wimbo,skina","wimbo","j","5","html-keyboard-response","1167","v","ishiri","false","",""
"2280.89999999851","","","","","5","html-slider-response","1168","","","","2",""
"2407","shoe","nyeusi,hatua,uyoga,kama","uyoga","j","5","html-keyboard-response","1169","j","uyoga","true","",""
"1788.3000000044703","","","","","5","html-slider-response","1170","","","","5",""
"2183","clock","kartasi,abang,mbwa,osha","mbwa","j","5","html-keyboard-response","1171","f","kartasi","false","",""
"1606.2999999970198","","","","","5","html-slider-response","1172","","","","2",""
"2311","towel","tembo,funzi,pagpalit,pito","pagpalit","j","5","html-keyboard-response","1173","f","tembo","false","",""
"1347.3999999985099","","","","","5","html-slider-response","1174","","","","2",""
"5588","tomato","chupi,mvua,chupa,takatak","mvua","v","5","html-keyboard-response","1175","v","mvua","true","",""
"2436.6999999955297","","","","","5","html-slider-response","1176","","","","4",""
"5657","bucket","baga,kiatu,ijayo,init","kiatu","v","5","html-keyboard-response","1177","j","ijayo","false","",""
"1474.8999999985099","","","","","5","html-slider-response","1178","","","","2",""
"2514","finger","simu,moyo,sufuria,lima","moyo","v","5","html-keyboard-response","1179","v","moyo","true","",""
"1508.5999999940395","","","","","5","html-slider-response","1180","","","","2",""
"1981","mother","kahawa,babaye,mbuzi,jokofu","babaye","v","5","html-keyboard-response","1181","v","babaye","true","",""
"1756.2999999970198","","","","","5","html-slider-response","1182","","","","5",""
"2997","human","bado,tinapay,kikapu,punguza","tinapay","v","5","html-keyboard-response","1183","v","tinapay","true","",""
"2586.89999999851","","","","","5","html-slider-response","1184","","","","5",""
"2933","sun","basi,bendi,luha,uongo","basi","f","5","html-keyboard-response","1185","f","basi","true","",""
"2243.60000000149","","","","","5","html-slider-response","1186","","","","5",""
"3220","fork","baboy,paghago,gorisi,mgonjwa","mgonjwa","n","5","html-keyboard-response","1187","v","paghago","false","",""
"1374.2999999970198","","","","","5","html-slider-response","1188","","","","4",""
"2725","donkey","bloke,elfu,lalake,rombus","elfu","v","5","html-keyboard-response","1189","f","bloke","false","",""
"1755.1000000014901","","","","","5","html-slider-response","1190","","","","4",""
"2598","wolf","kaburi,lugha,ndizi,mchuzi","lugha","v","5","html-keyboard-response","1191","v","lugha","true","",""
"1305.3000000044703","","","","","5","html-slider-response","1192","","","","2",""
"3304","cigar","ndugu,kuta,mlango,adhabu","adhabu","n","5","html-keyboard-response","1193","j","mlango","false","",""
"1528.5","","","","","5","html-slider-response","1194","","","","2",""
"3428","olive","bata,siagi,welder,jiwe","jiwe","n","5","html-keyboard-response","1195","n","jiwe","true","",""
"2499.10000000149","","","","","5","html-slider-response","1196","","","","3",""
"2632","key","miaka,chombo,goma,ahos","chombo","v","5","html-keyboard-response","1197","f","miaka","false","",""
"1599.9000000059605","","","","","5","html-slider-response","1198","","","","2",""
"2247","door","tena,soko,nyota,surali","surali","n","5","html-keyboard-response","1199","f","tena","false","",""
"2297.2000000029802","","","","","5","html-slider-response","1200","","","","1",""
"2232","wheel","bafuni,punda,tawo,baadaye","bafuni","f","5","html-keyboard-response","1201","j","tawo","false","",""
"1371.3999999985099","","","","","5","html-slider-response","1202","","","","2",""
"2968","basket","kumbuka,utepe,hasira,kumba","kumba","n","5","html-keyboard-response","1203","f","kumbuka","false","",""
"1923.3999999985099","","","","","5","html-slider-response","1204","","","","2",""
"1746","elephant","petye,pagduol,suka,kito","kito","n","5","html-keyboard-response","1205","n","kito","true","",""
"1782.7999999970198","","","","","5","html-slider-response","1206","","","","5",""
"3648","office","hazini,leso,yatima,kuna","leso","v","5","html-keyboard-response","1207","v","leso","true","",""
"1392.2000000029802","","","","","5","html-slider-response","1208","","","","2",""
"2888","music","mraba,mageho,baiski,tumbo","baiski","j","5","html-keyboard-response","1209","n","tumbo","false","",""
"1532.6999999955297","","","","","5","html-slider-response","1210","","","","2",""
"2619","tissue","ugomvi,lamigas,kisiwa,katika","ugomvi","f","5","html-keyboard-response","1211","v","lamigas","false","",""
"1742.5","","","","","5","html-slider-response","1212","","","","2",""
"2043","curtain","mchanga,lisud,bulwawan,chubani","mchanga","f","5","html-keyboard-response","1213","f","mchanga","true","",""
"1367","","","","","5","html-slider-response","1214","","","","2",""
"2246","flag","trekta,ndege,mkate,kawa","trekta","f","5","html-keyboard-response","1215","j","mkate","false","",""
"1417.5","","","","","5","html-slider-response","1216","","","","2",""
"2840","dog","bahari,lubi,washia,kalamu","bahari","f","5","html-keyboard-response","1217","f","bahari","true","",""
"1571.1999999955297","","","","","5","html-slider-response","1218","","","","5",""
"1708","cup","dagat,shimoni,jeraha,matumai","matumai","n","5","html-keyboard-response","1219","f","dagat","false","",""
"2358.60000000149","","","","","5","html-slider-response","1220","","","","4",""
"3353","sheet","juuya,watu,kamantis,bililhon","bililhon","n","5","html-keyboard-response","1221","v","watu","false","",""
"1367.7000000029802","","","","","5","html-slider-response","1222","","","","2",""
"2752","spoon","betri,nzuri,ngazi,pagsulod","pagsulod","n","5","html-keyboard-response","1223","n","pagsulod","true","",""
"1762.7000000029802","","","","","5","html-slider-response","1224","","","","2",""
"5955","flower","tamasha,lobo,bega,usiku","bega","j","5","html-keyboard-response","1225","n","usiku","false","",""
"2289.8000000044703","","","","","5","html-slider-response","1226","","","","2",""
"3298","picture","silya,chaki,asin,kubwa","kubwa","n","5","html-keyboard-response","1227","f","silya","false","",""
"1657.3000000044703","","","","","5","html-slider-response","1228","","","","2",""
"2184","puppet","napulo,lamok,mazishi,godoro","mazishi","j","5","html-keyboard-response","1229","n","godoro","false","",""
"1628.7000000029802","","","","","5","html-slider-response","1230","","","","4",""
"2357","banana","kasamok,hagdan,twai,kazi","kazi","n","5","html-keyboard-response","1231","n","kazi","true","",""
"1776.2000000029802","","","","","5","html-slider-response","1232","","","","5",""
"2313","book","kuhesa,picha,mali,mara","mali","j","5","html-keyboard-response","1233","f","kuhesa","false","",""
"1510","","","","","5","html-slider-response","1234","","","","2",""
"2074","triangle","kihozi,kasadpan,bentaha,liog","kasadpan","v","5","html-keyboard-response","1235","v","kasadpan","true","",""
"1392.6999999955297","","","","","5","html-slider-response","1236","","","","2",""
"2482","poster","nchi,fedha,kasuko,madungog","madungog","n","5","html-keyboard-response","1237","v","fedha","false","",""
"1572.2000000029802","","","","","5","html-slider-response","1238","","","","2",""
"2336","box","kuacha,rafiki,adui,kitande","adui","j","5","html-keyboard-response","1239","j","adui","true","",""
"1961.7000000029802","","","","","5","html-slider-response","1240","","","","2",""
"2220","mosquito","martilyo,isda,taras,gutom","martilyo","f","5","html-keyboard-response","1241","f","martilyo","true","",""
"1632.7999999970198","","","","","5","html-slider-response","1242","","","","5",""
"2382","shelf","pamahaw,bungtod,kadaot,awit","pamahaw","f","5","html-keyboard-response","1243","f","pamahaw","true","",""
"1958.2999999970198","","","","","5","html-slider-response","1244","","","","2",""
"2520","scissors","duga,mtawa,suga,tanuri","tanuri","n","5","html-keyboard-response","1245","n","tanuri","true","",""
"2097","","","","","5","html-slider-response","1246","","","","3",""
"2629","hammer","mekno,kitovu,napakyas,layag","napakyas","j","5","html-keyboard-response","1247","j","napakyas","true","",""
"1365.3000000044703","","","","","5","html-slider-response","1248","","","","2",""
