"rt","en_word","options","swa_word","correct_answer","phase","trial_type","trial_index","input_answer","input_word","accuracy","certainty","amt_choices"
"4083","bonfire","mwezi,mfuko,kusanya,goti","goti","n","2","html-keyboard-response","106","n","goti","true","",""
"1797.2000000178814","","","","","2","html-slider-response","107","","","","5",""
"1570","flower","tamasha,lobo,usiku,bega","bega","n","2","html-keyboard-response","108","n","bega","true","",""
"1644.9000000059605","","","","","2","html-slider-response","109","","","","5",""
"1841","column","pundok,dila,ufagio,pala","ufagio","j","2","html-keyboard-response","110","f","pundok","false","",""
"2310.5999999940395","","","","","2","html-slider-response","111","","","","2",""
"1526","music","mraba,mageho,baiski,tumbo","baiski","j","2","html-keyboard-response","112","n","tumbo","false","",""
"1096.5","","","","","2","html-slider-response","113","","","","2",""
"1334","spider","bunyag,mkboa,atop,kamwe","kamwe","n","2","html-keyboard-response","114","n","kamwe","true","",""
"1364.9000000059605","","","","","2","html-slider-response","115","","","","5",""
"1379","fork","baboy,paghago,gorisi,mgonjwa","mgonjwa","n","2","html-keyboard-response","116","n","mgonjwa","true","",""
"1366.199999988079","","","","","2","html-slider-response","117","","","","1",""
"1324","mosquito","martilyo,isda,taras,gutom","martilyo","f","2","html-keyboard-response","118","f","martilyo","true","",""
"1231.7999999821186","","","","","2","html-slider-response","119","","","","5",""
"3876","banana","kasamok,hagdan,kazi,twai","kazi","j","2","html-keyboard-response","120","j","kazi","true","",""
"1934.7000000178814","","","","","2","html-slider-response","121","","","","4",""
"1192","cup","dagat,matumai,shimoni,jeraha","matumai","v","2","html-keyboard-response","122","f","dagat","false","",""
"1187.9000000059605","","","","","2","html-slider-response","123","","","","1",""
"806","shop","nopya,samaki,kerida,ndezu","samaki","v","2","html-keyboard-response","124","f","nopya","false","",""
"1509.300000011921","","","","","2","html-slider-response","125","","","","1",""
"4156","elephant","petye,pagduol,suka,kito","kito","n","2","html-keyboard-response","126","j","suka","false","",""
"1301","","","","","2","html-slider-response","127","","","","5",""
"1603","bucket","kiatu,baga,ijayo,init","kiatu","f","2","html-keyboard-response","128","f","kiatu","true","",""
"1192.199999988079","","","","","2","html-slider-response","129","","","","2",""
"825","book","kuhesa,picha,mara,mali","mali","n","2","html-keyboard-response","130","f","kuhesa","false","",""
"1044.5","","","","","2","html-slider-response","131","","","","1",""
"1572","mirror","rangi,sulagma,kanding,furaha","sulagma","v","2","html-keyboard-response","132","f","rangi","false","",""
"1396.699999988079","","","","","2","html-slider-response","133","","","","1",""
"884","office","hazini,yatima,leso,kuna","leso","j","2","html-keyboard-response","134","f","hazini","false","",""
"1187.0999999940395","","","","","2","html-slider-response","135","","","","1",""
"2286","body","nyundu,jibini,tindashan,kununa","tindashan","j","2","html-keyboard-response","136","n","kununa","false","",""
"4119.5","","","","","2","html-slider-response","137","","","","1",""
"2544","perfume","katuyoan,bino,sungura,ndogo","katuyoan","f","2","html-keyboard-response","138","j","sungura","false","",""
"1070.800000011921","","","","","2","html-slider-response","139","","","","1",""
"1326","olive","bata,siagi,jiwe,welder","jiwe","j","2","html-keyboard-response","140","f","bata","false","",""
"1270.5","","","","","2","html-slider-response","141","","","","1",""
"2102","magazine","kiti,gundi,mchawi,bahandi","kiti","f","2","html-keyboard-response","142","n","bahandi","false","",""
"1549.5","","","","","2","html-slider-response","143","","","","1",""
"3493","bread","kaili,dari,dizeli,bugas","dari","v","2","html-keyboard-response","144","v","dari","true","",""
"1526.2000000178814","","","","","2","html-slider-response","145","","","","1",""
"1927","cave","kesho,ganti,maisha,nyundo","kesho","f","2","html-keyboard-response","146","n","nyundo","false","",""
"1412","","","","","2","html-slider-response","147","","","","1",""
"849","ladder","mashua,mwanga,kamba,pangalan","pangalan","n","2","html-keyboard-response","148","n","pangalan","true","",""
"2372.7000000178814","","","","","2","html-slider-response","149","","","","1",""
"2682","human","bado,tinapay,kikapu,punguza","tinapay","v","2","html-keyboard-response","150","j","kikapu","false","",""
"1345.7999999821186","","","","","2","html-slider-response","151","","","","5",""
"2880","clock","mbwa,kartasi,abang,osha","mbwa","f","2","html-keyboard-response","152","f","mbwa","true","",""
"1118.5999999940395","","","","","2","html-slider-response","153","","","","4",""
"883","shelf","bungtod,kadaot,pamahaw,awit","pamahaw","j","2","html-keyboard-response","154","n","awit","false","",""
"1588.800000011921","","","","","2","html-slider-response","155","","","","1",""
"2969","salmon","mzungu,sensilyo,seri,baharia","sensilyo","v","2","html-keyboard-response","156","v","sensilyo","true","",""
"1621.1000000238419","","","","","2","html-slider-response","157","","","","5",""
"1646","coffin","barua,tubag,kioo,hulma","kioo","j","2","html-keyboard-response","158","j","kioo","true","",""
"1191.7000000178814","","","","","2","html-slider-response","159","","","","5",""
"32491","notebook","msitu,kemia,kila,mdudu","kemia","v","2","html-keyboard-response","160","f","msitu","false","",""
"1584.699999988079","","","","","2","html-slider-response","161","","","","1",""
"30920","shoulder","kelele,ndaniya,guruwe,mkuu","mkuu","n","2","html-keyboard-response","162","v","ndaniya","false","",""
"1384.4000000059605","","","","","2","html-slider-response","163","","","","1",""
"1383","park","tambok,pwani,ihalas,bunifu","bunifu","n","2","html-keyboard-response","164","n","bunifu","true","",""
"1278.7000000178814","","","","","2","html-slider-response","165","","","","1",""
"879","number","mundamo,shule,kengele,choori","mundamo","f","2","html-keyboard-response","166","v","shule","false","",""
"1090","","","","","2","html-slider-response","167","","","","1",""
"917","apple","kisu,ukame,estante,edad","kisu","f","2","html-keyboard-response","168","v","ukame","false","",""
"1614.300000011921","","","","","2","html-slider-response","169","","","","1",""
"1126","letter","filimbi,kifua,chuma,uhuru","kifua","v","2","html-keyboard-response","170","v","kifua","true","",""
"1302.7999999821186","","","","","2","html-slider-response","171","","","","1",""
"981","eel","msumari,ishara,kunywa,kabuang","msumari","f","2","html-keyboard-response","172","v","ishara","false","",""
"1204","","","","","2","html-slider-response","173","","","","1",""
"820","cop","mechezo,bustani,jikoni,bakus","mechezo","f","2","html-keyboard-response","174","v","bustani","false","",""
"1134.0999999940395","","","","","2","html-slider-response","175","","","","1",""
"791","wolf","lugha,kaburi,ndizi,mchuzi","lugha","f","2","html-keyboard-response","176","v","kaburi","false","",""
"1952.4000000059605","","","","","2","html-slider-response","177","","","","1",""
"1475","squirrel","hofu,mahugaw,ukweli,kichwa","hofu","f","2","html-keyboard-response","178","v","mahugaw","false","",""
"1624.4000000059605","","","","","2","html-slider-response","179","","","","1",""
"1205","nose","gubat,sehemu,kopa,kidole","sehemu","v","2","html-keyboard-response","180","f","gubat","false","",""
"1468.9000000059605","","","","","2","html-slider-response","181","","","","1",""
"3247","sock","ndoora,kimysa,mtirka,mamba","mamba","n","2","html-keyboard-response","182","v","kimysa","false","",""
"3608.5","","","","","2","html-slider-response","183","","","","2",""
"1253","bank","silingan,kudhibi,tualya,ofisi","silingan","f","2","html-keyboard-response","184","f","silingan","true","",""
"1525.699999988079","","","","","2","html-slider-response","185","","","","1",""
"3002","donkey","bloke,lalake,elfu,rombus","elfu","j","2","html-keyboard-response","186","j","elfu","true","",""
"1301.300000011921","","","","","2","html-slider-response","187","","","","5",""
"3301","poster","madungog,nchi,fedha,kasuko","madungog","f","2","html-keyboard-response","188","j","fedha","false","",""
"1212.800000011921","","","","","2","html-slider-response","189","","","","1",""
"1530","puppet","napulo,mazishi,lamok,godoro","mazishi","v","2","html-keyboard-response","190","n","godoro","false","",""
"2102.199999988079","","","","","2","html-slider-response","191","","","","1",""
"1393","hill","matumbo,kushoto,kukimba,sweta","matumbo","f","2","html-keyboard-response","192","v","kushoto","false","",""
"1140","","","","","2","html-slider-response","193","","","","1",""
"834","tooth","kabalaka,kijiko,uadui,pahiyum","kabalaka","f","2","html-keyboard-response","194","f","kabalaka","true","",""
"1415.5999999940395","","","","","2","html-slider-response","195","","","","1",""
"2111","woman","bandari,bituin,pagtabon,kovuli","pagtabon","j","2","html-keyboard-response","196","n","kovuli","false","",""
"1838","","","","","2","html-slider-response","197","","","","4",""
"706","wheel","bafuni,punda,tawo,baadaye","bafuni","f","2","html-keyboard-response","198","f","bafuni","true","",""
"1191.1000000238419","","","","","2","html-slider-response","199","","","","1",""
"3639","mother","kahawa,mbuzi,jokofu,babaye","babaye","n","2","html-keyboard-response","200","n","babaye","true","",""
"1232.5","","","","","2","html-slider-response","201","","","","5",""
"2389","bed","kalipay,mapintas,haraka,starehe","mapintas","v","2","html-keyboard-response","202","j","haraka","false","",""
"1823.199999988079","","","","","2","html-slider-response","203","","","","2",""
"1699","key","miaka,goma,chombo,ahos","chombo","j","2","html-keyboard-response","204","n","ahos","false","",""
"1352.5999999940395","","","","","2","html-slider-response","205","","","","1",""
"1337","page","wakala,wimbo,ishiri,skina","wimbo","v","2","html-keyboard-response","206","v","wimbo","true","",""
"1285.6000000238419","","","","","2","html-slider-response","207","","","","1",""
"3890","pants","pintal,haki,chuki,hari","haki","v","2","html-keyboard-response","208","j","chuki","false","",""
"1001.2999999821186","","","","","2","html-slider-response","209","","","","1",""
"5796","sun","bendi,luha,basi,uongo","basi","j","2","html-keyboard-response","210","v","luha","false","",""
"1824","","","","","2","html-slider-response","211","","","","4",""
"2772","finger","simu,sufuria,moyo,lima","moyo","j","2","html-keyboard-response","212","j","moyo","true","",""
"1913.4000000059605","","","","","2","html-slider-response","213","","","","5",""
"2284","shoe","nyeusi,uyoga,hatua,kama","uyoga","v","2","html-keyboard-response","214","f","nyeusi","false","",""
"1495.7000000178814","","","","","2","html-slider-response","215","","","","1",""
"1189","giraffe","daraja,jumatu,hangyo,mahitabo","mahitabo","n","2","html-keyboard-response","216","f","daraja","false","",""
"1560.0999999940395","","","","","2","html-slider-response","217","","","","1",""
"1380","dog","bahari,lubi,washia,kalamu","bahari","f","2","html-keyboard-response","218","v","lubi","false","",""
"967.3000000119209","","","","","2","html-slider-response","219","","","","1",""
"931","box","kuacha,rafiki,adui,kitande","adui","j","2","html-keyboard-response","220","f","kuacha","false","",""
"1000.7000000178814","","","","","2","html-slider-response","221","","","","1",""
"2639","scissors","tanuri,duga,mtawa,suga","tanuri","f","2","html-keyboard-response","222","n","suga","false","",""
"939","","","","","2","html-slider-response","223","","","","1",""
"808","cat","neyemba,paghukom,baki,akili","paghukom","v","2","html-keyboard-response","224","n","akili","false","",""
"1254.2999999821186","","","","","2","html-slider-response","225","","","","1",""
"4564","basket","kumbuka,utepe,kumba,hasira","kumba","j","2","html-keyboard-response","226","f","kumbuka","false","",""
"1223.800000011921","","","","","2","html-slider-response","227","","","","4",""
"3069","snake","pagtukod,jansa,karon,mvringo","pagtukod","f","2","html-keyboard-response","228","n","mvringo","false","",""
"1388.199999988079","","","","","2","html-slider-response","229","","","","1",""
"1037","gift","baba,nyange,pagtawag,baso","pagtawag","j","2","html-keyboard-response","230","f","baba","false","",""
"1327.699999988079","","","","","2","html-slider-response","231","","","","1",""
"1904","train","sayari,itik,dakika,mungu","sayari","f","2","html-keyboard-response","232","n","mungu","false","",""
"1522.7000000178814","","","","","2","html-slider-response","233","","","","1",""
"1376","pudding","abug,mpishi,iring,aibu","aibu","n","2","html-keyboard-response","234","j","iring","false","",""
"1260.9000000059605","","","","","2","html-slider-response","235","","","","1",""
"708","tomato","chupi,mvua,chupa,takatak","mvua","v","2","html-keyboard-response","236","f","chupi","false","",""
"1138.300000011921","","","","","2","html-slider-response","237","","","","1",""
"1109","stone","ulimwengu,wingi,mkasi,asili","wingi","v","2","html-keyboard-response","238","v","wingi","true","",""
"1535.5999999940395","","","","","2","html-slider-response","239","","","","1",""
"1404","hammer","mekno,kitovu,layag,napakyas","napakyas","n","2","html-keyboard-response","240","j","layag","false","",""
"1181","","","","","2","html-slider-response","241","","","","1",""
"2962","knee","mvuke,kubale,bili,duka","duka","n","2","html-keyboard-response","242","n","duka","true","",""
"1031.2999999821186","","","","","2","html-slider-response","243","","","","4",""
"930","ceiling","kugita,maua,kawaida,rayna","maua","v","2","html-keyboard-response","244","f","kugita","false","",""
"1125.5","","","","","2","html-slider-response","245","","","","1",""
"973","spoon","betri,nzuri,pagsulod,ngazi","pagsulod","j","2","html-keyboard-response","246","f","betri","false","",""
"1374.5999999940395","","","","","2","html-slider-response","247","","","","1",""
"2413","marker","mapafu,maji,salita,atay","maji","v","2","html-keyboard-response","248","v","maji","true","",""
"1486.2999999821186","","","","","2","html-slider-response","249","","","","5",""
"2159","candle","gabi,farasi,kupanda,geza","geza","n","2","html-keyboard-response","250","j","kupanda","false","",""
"1163.5","","","","","2","html-slider-response","251","","","","2",""
"1151","tissue","lamigas,kisiwa,ugomvi,katika","ugomvi","j","2","html-keyboard-response","252","v","kisiwa","false","",""
"1335.5999999940395","","","","","2","html-slider-response","253","","","","1",""
"593","bridge","sahani,daima,ngono,panya","sahani","f","2","html-keyboard-response","254","n","panya","false","",""
"1286","","","","","2","html-slider-response","255","","","","1",""
"999","berry","abogado,kofia,nogozi,kinywa","kofia","v","2","html-keyboard-response","256","n","kinywa","false","",""
"1034.0999999940395","","","","","2","html-slider-response","257","","","","1",""
"1709","triangle","kihozi,kasadpan,bentaha,liog","kasadpan","v","2","html-keyboard-response","258","j","bentaha","false","",""
"1179.0999999940395","","","","","2","html-slider-response","259","","","","1",""
"822","door","tena,surali,soko,nyota","surali","v","2","html-keyboard-response","260","j","soko","false","",""
"1000.7999999821186","","","","","2","html-slider-response","261","","","","1",""
"2808","fish","buli,bala,baho,imani","buli","f","2","html-keyboard-response","262","v","bala","false","",""
"1589.0999999940395","","","","","2","html-slider-response","263","","","","1",""
"1824","curtain","lisud,bulwawan,mchanga,chubani","mchanga","j","2","html-keyboard-response","264","n","chubani","false","",""
"1232.4000000059605","","","","","2","html-slider-response","265","","","","1",""
"1567","flag","trekta,ndege,mkate,kawa","trekta","f","2","html-keyboard-response","266","f","trekta","true","",""
"1999.5999999940395","","","","","2","html-slider-response","267","","","","1",""
"1468","boat","hamsi,pombe,kitanda,agalon","agalon","n","2","html-keyboard-response","268","v","pombe","false","",""
"1195.199999988079","","","","","2","html-slider-response","269","","","","1",""
"2367","rose","singizi,mwanake,paghalad,amani","paghalad","j","2","html-keyboard-response","270","n","amani","false","",""
"1133.300000011921","","","","","2","html-slider-response","271","","","","1",""
"1765","lamp","daub,bilaska,afya,mbolea","afya","j","2","html-keyboard-response","272","j","afya","true","",""
"1837.800000011921","","","","","2","html-slider-response","273","","","","1",""
"2404","cigar","adhabu,ndugu,kuta,mlango","adhabu","f","2","html-keyboard-response","274","n","mlango","false","",""
"1181","","","","","2","html-slider-response","275","","","","1",""
"753","list","wingu,alizeti,kuzama,kaso","wingu","f","2","html-keyboard-response","276","n","kaso","false","",""
"993.3999999761581","","","","","2","html-slider-response","277","","","","1",""
"794","sheet","juuya,watu,bililhon,kamantis","bililhon","j","2","html-keyboard-response","278","n","kamantis","false","",""
"980.7999999821186","","","","","2","html-slider-response","279","","","","1",""
"830","picture","kubwa,silya,chaki,asin","kubwa","f","2","html-keyboard-response","280","n","asin","false","",""
"1140.7999999821186","","","","","2","html-slider-response","281","","","","1",""
"1103","towel","tembo,pagpalit,funzi,pito","pagpalit","v","2","html-keyboard-response","282","v","pagpalit","true","",""
"1046","","","","","2","html-slider-response","283","","","","1",""
"769","window","nanga,kweli,kujenga,umaga","kweli","v","2","html-keyboard-response","284","v","kweli","true","",""
"1204.0999999940395","","","","","2","html-slider-response","285","","","","1",""
"1424","box","adui,kuacha,rafiki,kitande","adui","f","3","html-keyboard-response","293","v","kuacha","false","","4"
"1133","","","","","3","html-slider-response","294","","","","1",""
"2239","","","","","3","html-keyboard-response","295","","","","",""
"1344","pants","pintal,haki,chuki,hari","haki","v","3","html-keyboard-response","296","v","haki","true","","4"
"1555.2999999821186","","","","","3","html-slider-response","297","","","","1",""
"680","","","","","3","html-keyboard-response","298","","","","",""
"2282","cup","matumai,dagat,shimoni,jeraha","matumai","f","3","html-keyboard-response","299","v","dagat","false","","4"
"1029.8999999761581","","","","","3","html-slider-response","300","","","","1",""
"622","","","","","3","html-keyboard-response","301","","","","",""
"2303","triangle","kihozi,bentaha,kasadpan,liog","kasadpan","j","3","html-keyboard-response","302","n","liog","false","","4"
"1709.199999988079","","","","","3","html-slider-response","303","","","","1",""
"690","","","","","3","html-keyboard-response","304","","","","",""
"1706","curtain","lisud,mchanga,bulwawan,chubani","mchanga","v","3","html-keyboard-response","305","n","chubani","false","","4"
"1094.199999988079","","","","","3","html-slider-response","306","","","","1",""
"361","","","","","3","html-keyboard-response","307","","","","",""
"1548","clock","kartasi,mbwa,abang,osha","mbwa","v","3","html-keyboard-response","308","f","kartasi","false","","4"
"1187.8999999761581","","","","","3","html-slider-response","309","","","","1",""
"236","","","","","3","html-keyboard-response","310","","","","",""
"1065","mirror","sulagma,rangi,kanding,furaha","sulagma","f","3","html-keyboard-response","311","f","sulagma","true","","4"
"1278.300000011921","","","","","3","html-slider-response","312","","","","1",""
"538","","","","","3","html-keyboard-response","313","","","","",""
"2458","coffin","barua,kioo,tubag,hulma","kioo","v","3","html-keyboard-response","314","v","kioo","true","","1"
"1503.5","","","","","3","html-slider-response","315","","","","5",""
"566","","","","","3","html-keyboard-response","316","","","","",""
"1098","magazine","kiti,gundi,mchawi,bahandi","kiti","f","3","html-keyboard-response","317","v","gundi","false","","4"
"1164.7999999821186","","","","","3","html-slider-response","318","","","","1",""
"481","","","","","3","html-keyboard-response","319","","","","",""
"1435","column","pundok,dila,ufagio,pala","ufagio","j","3","html-keyboard-response","320","j","ufagio","true","","1"
"1483.5","","","","","3","html-slider-response","321","","","","5",""
"510","","","","","3","html-keyboard-response","322","","","","",""
"1934","number","shule,kengele,mundamo,choori","mundamo","j","3","html-keyboard-response","323","j","mundamo","true","","4"
"1377.699999988079","","","","","3","html-slider-response","324","","","","1",""
"478","","","","","3","html-keyboard-response","325","","","","",""
"1434","rose","paghalad,singizi,mwanake,amani","paghalad","f","3","html-keyboard-response","326","n","amani","false","","4"
"973.0999999940395","","","","","3","html-slider-response","327","","","","1",""
"572","","","","","3","html-keyboard-response","328","","","","",""
"3085","eel","ishara,kunywa,kabuang,msumari","msumari","n","3","html-keyboard-response","329","n","msumari","true","","4"
"1134.4000000059605","","","","","3","html-slider-response","330","","","","1",""
"666","","","","","3","html-keyboard-response","331","","","","",""
"1661","gift","baba,nyange,pagtawag,baso","pagtawag","j","3","html-keyboard-response","332","f","baba","false","","4"
"1248.800000011921","","","","","3","html-slider-response","333","","","","1",""
"478","","","","","3","html-keyboard-response","334","","","","",""
"1087","apple","ukame,estante,edad,kisu","kisu","n","3","html-keyboard-response","335","n","kisu","true","","1"
"1660.199999988079","","","","","3","html-slider-response","336","","","","5",""
"314","","","","","3","html-keyboard-response","337","","","","",""
"1064","wheel","bafuni,punda,tawo,baadaye","bafuni","f","3","html-keyboard-response","338","f","bafuni","true","","1"
"1045.300000011921","","","","","3","html-slider-response","339","","","","5",""
"424","","","","","3","html-keyboard-response","340","","","","",""
"2439","knee","mvuke,kubale,duka,bili","duka","j","3","html-keyboard-response","341","j","duka","true","","4"
"1319","","","","","3","html-slider-response","342","","","","5",""
"537","","","","","3","html-keyboard-response","343","","","","",""
"1255","basket","kumba,kumbuka,utepe,hasira","kumba","f","3","html-keyboard-response","344","f","kumba","true","","1"
"1461.9000000059605","","","","","3","html-slider-response","345","","","","5",""
"342","","","","","3","html-keyboard-response","346","","","","",""
"1374","park","tambok,bunifu,pwani,ihalas","bunifu","v","3","html-keyboard-response","347","n","ihalas","false","","4"
"1263.4000000059605","","","","","3","html-slider-response","348","","","","1",""
"446","","","","","3","html-keyboard-response","349","","","","",""
"1601","finger","simu,moyo,sufuria,lima","moyo","v","3","html-keyboard-response","350","v","moyo","true","","4"
"1654.9000000059605","","","","","3","html-slider-response","351","","","","5",""
"342","","","","","3","html-keyboard-response","352","","","","",""
"942","boat","hamsi,pombe,kitanda,agalon","agalon","n","3","html-keyboard-response","353","f","hamsi","false","","4"
"2347.399999976158","","","","","3","html-slider-response","354","","","","1",""
"482","","","","","3","html-keyboard-response","355","","","","",""
"2070","hill","kushoto,matumbo,kukimba,sweta","matumbo","v","3","html-keyboard-response","356","j","kukimba","false","","4"
"1393.699999988079","","","","","3","html-slider-response","357","","","","1",""
"275","","","","","3","html-keyboard-response","358","","","","",""
"2685","train","itik,dakika,mungu,sayari","sayari","n","3","html-keyboard-response","359","j","mungu","false","","4"
"2216.0999999940395","","","","","3","html-slider-response","360","","","","1",""
"531","","","","","3","html-keyboard-response","361","","","","",""
"1710","wolf","kaburi,ndizi,mchuzi,lugha","lugha","n","3","html-keyboard-response","362","n","lugha","true","","4"
"1044.7000000178814","","","","","3","html-slider-response","363","","","","5",""
"288","","","","","3","html-keyboard-response","364","","","","",""
"2580","snake","pagtukod,jansa,karon,mvringo","pagtukod","f","3","html-keyboard-response","365","n","mvringo","false","","4"
"1156.4000000059605","","","","","3","html-slider-response","366","","","","5",""
"712","","","","","3","html-keyboard-response","367","","","","",""
"1192","tooth","kijiko,uadui,pahiyum,kabalaka","kabalaka","n","3","html-keyboard-response","368","f","kijiko","false","","4"
"1669.3999999761581","","","","","3","html-slider-response","369","","","","1",""
"400","","","","","3","html-keyboard-response","370","","","","",""
"3116","notebook","msitu,kemia,kila,mdudu","kemia","v","3","html-keyboard-response","371","j","kila","false","","4"
"1759.5999999940395","","","","","3","html-slider-response","372","","","","1",""
"251","","","","","3","html-keyboard-response","373","","","","",""
"1610","flag","ndege,mkate,kawa,trekta","trekta","n","3","html-keyboard-response","374","v","mkate","false","","4"
"1065.300000011921","","","","","3","html-slider-response","375","","","","1",""
"330","","","","","3","html-keyboard-response","376","","","","",""
"1260","squirrel","hofu,mahugaw,ukweli,kichwa","hofu","f","3","html-keyboard-response","377","f","hofu","true","","4"
"1019.6000000238419","","","","","3","html-slider-response","378","","","","1",""
"204","","","","","3","html-keyboard-response","379","","","","",""
"1036","door","tena,soko,nyota,surali","surali","n","3","html-keyboard-response","380","f","tena","false","","4"
"2052","","","","","3","html-slider-response","381","","","","1",""
"551","","","","","3","html-keyboard-response","382","","","","",""
"1956","salmon","sensilyo,mzungu,seri,baharia","sensilyo","f","3","html-keyboard-response","383","f","sensilyo","true","","4"
"1221.300000011921","","","","","3","html-slider-response","384","","","","5",""
"271","","","","","3","html-keyboard-response","385","","","","",""
"2580","shoulder","kelele,ndaniya,guruwe,mkuu","mkuu","n","3","html-keyboard-response","386","j","guruwe","false","","4"
"1264.5999999940395","","","","","3","html-slider-response","387","","","","1",""
"459","","","","","3","html-keyboard-response","388","","","","",""
"1784","lamp","daub,afya,bilaska,mbolea","afya","v","3","html-keyboard-response","389","v","afya","true","","4"
"1223.1000000238419","","","","","3","html-slider-response","390","","","","1",""
"542","","","","","3","html-keyboard-response","391","","","","",""
"1287","shelf","bungtod,kadaot,awit,pamahaw","pamahaw","n","3","html-keyboard-response","392","n","pamahaw","true","","1"
"1200.5999999940395","","","","","3","html-slider-response","393","","","","5",""
"205","","","","","3","html-keyboard-response","394","","","","",""
"3428","human","bado,kikapu,punguza,tinapay","tinapay","n","3","html-keyboard-response","395","v","kikapu","false","","4"
"1138.5999999940395","","","","","3","html-slider-response","396","","","","5",""
"536","","","","","3","html-keyboard-response","397","","","","",""
"34238","towel","tembo,funzi,pito,pagpalit","pagpalit","n","3","html-keyboard-response","398","f","tembo","false","","4"
"1039.300000011921","","","","","3","html-slider-response","399","","","","4",""
"561","","","","","3","html-keyboard-response","400","","","","",""
"2750","cat","paghukom,neyemba,baki,akili","paghukom","f","3","html-keyboard-response","401","v","neyemba","false","","4"
"1338.8999999761581","","","","","3","html-slider-response","402","","","","4",""
"491","","","","","3","html-keyboard-response","403","","","","",""
"1976","spider","bunyag,mkboa,atop,kamwe","kamwe","n","3","html-keyboard-response","404","n","kamwe","true","","4"
"1078.199999988079","","","","","3","html-slider-response","405","","","","5",""
"336","","","","","3","html-keyboard-response","406","","","","",""
"1575","window","nanga,kujenga,umaga,kweli","kweli","n","3","html-keyboard-response","407","n","kweli","true","","4"
"1350.699999988079","","","","","3","html-slider-response","408","","","","1",""
"619","","","","","3","html-keyboard-response","409","","","","",""
"1306","woman","bandari,bituin,pagtabon,kovuli","pagtabon","j","3","html-keyboard-response","410","j","pagtabon","true","","1"
"1533.800000011921","","","","","3","html-slider-response","411","","","","5",""
"210","","","","","3","html-keyboard-response","412","","","","",""
"1083","giraffe","mahitabo,daraja,jumatu,hangyo","mahitabo","f","3","html-keyboard-response","413","v","daraja","false","","4"
"1130.2999999821186","","","","","3","html-slider-response","414","","","","1",""
"298","","","","","3","html-keyboard-response","415","","","","",""
"1457","elephant","petye,pagduol,kito,suka","kito","j","3","html-keyboard-response","416","j","kito","true","","4"
"1009.6000000238419","","","","","3","html-slider-response","417","","","","1",""
"710","","","","","3","html-keyboard-response","418","","","","",""
"1393","cave","kesho,ganti,maisha,nyundo","kesho","f","3","html-keyboard-response","419","f","kesho","true","","4"
"1356","","","","","3","html-slider-response","420","","","","1",""
"246","","","","","3","html-keyboard-response","421","","","","",""
"1139","bread","kaili,dizeli,dari,bugas","dari","j","3","html-keyboard-response","422","v","dizeli","false","","4"
"1214.2999999821186","","","","","3","html-slider-response","423","","","","1",""
"392","","","","","3","html-keyboard-response","424","","","","",""
"1731","stone","ulimwengu,wingi,mkasi,asili","wingi","v","3","html-keyboard-response","425","v","wingi","true","","4"
"1962.699999988079","","","","","3","html-slider-response","426","","","","1",""
"727","","","","","3","html-keyboard-response","427","","","","",""
"1598","donkey","bloke,lalake,rombus,elfu","elfu","n","3","html-keyboard-response","428","n","elfu","true","","4"
"1417.1000000238419","","","","","3","html-slider-response","429","","","","5",""
"11015","","","","","3","html-keyboard-response","430","","","","",""
"2217","bridge","daima,sahani,ngono,panya","sahani","v","3","html-keyboard-response","431","f","daima","false","","4"
"1569.7999999821186","","","","","3","html-slider-response","432","","","","1",""
"246","","","","","3","html-keyboard-response","433","","","","",""
"2371","bonfire","mwezi,mfuko,goti,kusanya","goti","j","3","html-keyboard-response","434","j","goti","true","","4"
"1956.8999999761581","","","","","3","html-slider-response","435","","","","5",""
"446","","","","","3","html-keyboard-response","436","","","","",""
"1234","book","kuhesa,picha,mali,mara","mali","j","3","html-keyboard-response","437","v","picha","false","","4"
"1059.2999999821186","","","","","3","html-slider-response","438","","","","1",""
"377","","","","","3","html-keyboard-response","439","","","","",""
"2159","fish","bala,baho,imani,buli","buli","n","3","html-keyboard-response","440","f","bala","false","","4"
"1258.9000000059605","","","","","3","html-slider-response","441","","","","1",""
"584","","","","","3","html-keyboard-response","442","","","","",""
"1156","spoon","betri,nzuri,ngazi,pagsulod","pagsulod","n","3","html-keyboard-response","443","v","nzuri","false","","4"
"1627.1000000238419","","","","","3","html-slider-response","444","","","","1",""
"367","","","","","3","html-keyboard-response","445","","","","",""
"1526","scissors","duga,mtawa,tanuri,suga","tanuri","j","3","html-keyboard-response","446","n","suga","false","","4"
"1204.2999999821186","","","","","3","html-slider-response","447","","","","1",""
"201","","","","","3","html-keyboard-response","448","","","","",""
"1822","page","wakala,ishiri,wimbo,skina","wimbo","j","3","html-keyboard-response","449","f","wakala","false","","4"
"1532.7999999821186","","","","","3","html-slider-response","450","","","","1",""
"511","","","","","3","html-keyboard-response","451","","","","",""
"1061","nose","sehemu,gubat,kopa,kidole","sehemu","f","3","html-keyboard-response","452","f","sehemu","true","","1"
"1307.0999999940395","","","","","3","html-slider-response","453","","","","5",""
"167","","","","","3","html-keyboard-response","454","","","","",""
"1047","ceiling","kugita,maua,kawaida,rayna","maua","v","3","html-keyboard-response","455","n","rayna","false","","4"
"1243.0999999940395","","","","","3","html-slider-response","456","","","","1",""
"336","","","","","3","html-keyboard-response","457","","","","",""
"2915","bucket","kiatu,baga,ijayo,init","kiatu","f","3","html-keyboard-response","458","v","baga","false","","4"
"1054.5999999940395","","","","","3","html-slider-response","459","","","","1",""
"688","","","","","3","html-keyboard-response","460","","","","",""
"1221","berry","abogado,nogozi,kofia,kinywa","kofia","j","3","html-keyboard-response","461","j","kofia","true","","1"
"2684.2999999821186","","","","","3","html-slider-response","462","","","","5",""
"525","","","","","3","html-keyboard-response","463","","","","",""
"992","mother","kahawa,mbuzi,jokofu,babaye","babaye","n","3","html-keyboard-response","464","n","babaye","true","","1"
"1084.5999999940395","","","","","3","html-slider-response","465","","","","5",""
"262","","","","","3","html-keyboard-response","466","","","","",""
"1704","mosquito","isda,taras,martilyo,gutom","martilyo","j","3","html-keyboard-response","467","j","martilyo","true","","4"
"910.9000000059605","","","","","3","html-slider-response","468","","","","5",""
"258","","","","","3","html-keyboard-response","469","","","","",""
"1739","perfume","bino,katuyoan,sungura,ndogo","katuyoan","v","3","html-keyboard-response","470","f","bino","false","","4"
"1392.5","","","","","3","html-slider-response","471","","","","1",""
"528","","","","","3","html-keyboard-response","472","","","","",""
"1047","sheet","juuya,watu,kamantis,bililhon","bililhon","n","3","html-keyboard-response","473","n","bililhon","true","","4"
"1117.5","","","","","3","html-slider-response","474","","","","1",""
"443","","","","","3","html-keyboard-response","475","","","","",""
"1133","puppet","napulo,lamok,godoro,mazishi","mazishi","n","3","html-keyboard-response","476","n","mazishi","true","","1"
"1062.7000000178814","","","","","3","html-slider-response","477","","","","5",""
"296","","","","","3","html-keyboard-response","478","","","","",""
"2248","poster","nchi,madungog,fedha,kasuko","madungog","v","3","html-keyboard-response","479","j","fedha","false","","4"
"1095","","","","","3","html-slider-response","480","","","","1",""
"397","","","","","3","html-keyboard-response","481","","","","",""
"1188","music","baiski,mraba,mageho,tumbo","baiski","f","3","html-keyboard-response","482","n","tumbo","false","","4"
"1502.5","","","","","3","html-slider-response","483","","","","1",""
"458","","","","","3","html-keyboard-response","484","","","","",""
"1276","key","chombo,miaka,goma,ahos","chombo","f","3","html-keyboard-response","485","n","ahos","false","","4"
"1511.699999988079","","","","","3","html-slider-response","486","","","","1",""
"577","","","","","3","html-keyboard-response","487","","","","",""
"1967","sock","ndoora,kimysa,mtirka,mamba","mamba","n","3","html-keyboard-response","488","n","mamba","true","","4"
"1009.1999999880791","","","","","3","html-slider-response","489","","","","1",""
"680","","","","","3","html-keyboard-response","490","","","","",""
"1544","marker","mapafu,salita,maji,atay","maji","j","3","html-keyboard-response","491","n","atay","false","","4"
"1783.5999999940395","","","","","3","html-slider-response","492","","","","1",""
"141","","","","","3","html-keyboard-response","493","","","","",""
"1950","office","hazini,yatima,kuna,leso","leso","n","3","html-keyboard-response","494","v","yatima","false","","4"
"1823.5","","","","","3","html-slider-response","495","","","","1",""
"328","","","","","3","html-keyboard-response","496","","","","",""
"814","shoe","nyeusi,uyoga,hatua,kama","uyoga","v","3","html-keyboard-response","497","f","nyeusi","false","","4"
"1159.300000011921","","","","","3","html-slider-response","498","","","","1",""
"233","","","","","3","html-keyboard-response","499","","","","",""
"1348","cop","mechezo,bustani,jikoni,bakus","mechezo","f","3","html-keyboard-response","500","n","bakus","false","","4"
"1084.5","","","","","3","html-slider-response","501","","","","1",""
"494","","","","","3","html-keyboard-response","502","","","","",""
"1521","bank","kudhibi,silingan,tualya,ofisi","silingan","v","3","html-keyboard-response","503","n","ofisi","false","","4"
"1378.9000000059605","","","","","3","html-slider-response","504","","","","1",""
"441","","","","","3","html-keyboard-response","505","","","","",""
"1388","letter","filimbi,chuma,kifua,uhuru","kifua","j","3","html-keyboard-response","506","j","kifua","true","","1"
"1088","","","","","3","html-slider-response","507","","","","1",""
"245","","","","","3","html-keyboard-response","508","","","","",""
"1006","dog","lubi,washia,kalamu,bahari","bahari","n","3","html-keyboard-response","509","n","bahari","true","","1"
"888.5","","","","","3","html-slider-response","510","","","","5",""
"236","","","","","3","html-keyboard-response","511","","","","",""
"1138","shop","nopya,kerida,ndezu,samaki","samaki","n","3","html-keyboard-response","512","j","ndezu","false","","4"
"1187.5","","","","","3","html-slider-response","513","","","","1",""
"209","","","","","3","html-keyboard-response","514","","","","",""
"2318","flower","tamasha,lobo,usiku,bega","bega","n","3","html-keyboard-response","515","n","bega","true","","4"
"1081.7999999821186","","","","","3","html-slider-response","516","","","","1",""
"523","","","","","3","html-keyboard-response","517","","","","",""
"1011","cigar","ndugu,kuta,adhabu,mlango","adhabu","j","3","html-keyboard-response","518","j","adhabu","true","","1"
"981.0999999940395","","","","","3","html-slider-response","519","","","","5",""
"202","","","","","3","html-keyboard-response","520","","","","",""
"1002","hammer","mekno,napakyas,kitovu,layag","napakyas","v","3","html-keyboard-response","521","f","mekno","false","","4"
"1415.2999999821186","","","","","3","html-slider-response","522","","","","1",""
"392","","","","","3","html-keyboard-response","523","","","","",""
"806","fork","baboy,paghago,mgonjwa,gorisi","mgonjwa","j","3","html-keyboard-response","524","n","gorisi","false","","4"
"837.4000000059605","","","","","3","html-slider-response","525","","","","1",""
"217","","","","","3","html-keyboard-response","526","","","","",""
"1307","sun","bendi,basi,luha,uongo","basi","v","3","html-keyboard-response","527","v","basi","true","","1"
"1223.199999988079","","","","","3","html-slider-response","528","","","","5",""
"392","","","","","3","html-keyboard-response","529","","","","",""
"1169","ladder","pangalan,mashua,mwanga,kamba","pangalan","f","3","html-keyboard-response","530","n","kamba","false","","4"
"1088.300000011921","","","","","3","html-slider-response","531","","","","1",""
"325","","","","","3","html-keyboard-response","532","","","","",""
"901","banana","kazi,kasamok,hagdan,twai","kazi","f","3","html-keyboard-response","533","f","kazi","true","","1"
"1144.4000000059605","","","","","3","html-slider-response","534","","","","5",""
"148","","","","","3","html-keyboard-response","535","","","","",""
"1830","pudding","aibu,abug,mpishi,iring","aibu","f","3","html-keyboard-response","536","j","mpishi","false","","4"
"1132","","","","","3","html-slider-response","537","","","","1",""
"447","","","","","3","html-keyboard-response","538","","","","",""
"747","body","nyundu,jibini,kununa,tindashan","tindashan","n","3","html-keyboard-response","539","f","nyundu","false","","4"
"2137","","","","","3","html-slider-response","540","","","","5",""
"711","","","","","3","html-keyboard-response","541","","","","",""
"1648","bed","kalipay,haraka,mapintas,starehe","mapintas","j","3","html-keyboard-response","542","v","haraka","false","","4"
"1124.3999999761581","","","","","3","html-slider-response","543","","","","1",""
"328","","","","","3","html-keyboard-response","544","","","","",""
"928","tissue","lamigas,ugomvi,kisiwa,katika","ugomvi","v","3","html-keyboard-response","545","n","katika","false","","4"
"814.9000000059605","","","","","3","html-slider-response","546","","","","1",""
"559","","","","","3","html-keyboard-response","547","","","","",""
"1411","candle","gabi,farasi,kupanda,geza","geza","n","3","html-keyboard-response","548","j","kupanda","false","","4"
"1079.0999999940395","","","","","3","html-slider-response","549","","","","1",""
"478","","","","","3","html-keyboard-response","550","","","","",""
"1015","tomato","chupi,mvua,chupa,takatak","mvua","v","3","html-keyboard-response","551","v","mvua","true","","1"
"1100.0999999940395","","","","","3","html-slider-response","552","","","","5",""
"588","","","","","3","html-keyboard-response","553","","","","",""
"1444","list","alizeti,kuzama,kaso,wingu","wingu","n","3","html-keyboard-response","554","j","kaso","false","","4"
"1341.5999999940395","","","","","3","html-slider-response","555","","","","1",""
"200","","","","","3","html-keyboard-response","556","","","","",""
"1143","olive","bata,siagi,jiwe,welder","jiwe","j","3","html-keyboard-response","557","v","siagi","false","","4"
"968","","","","","3","html-slider-response","558","","","","1",""
"552","","","","","3","html-keyboard-response","559","","","","",""
"902","picture","kubwa,silya,chaki,asin","kubwa","f","3","html-keyboard-response","560","f","kubwa","true","","1"
"1473.2000000178814","","","","","3","html-slider-response","561","","","","5",""
"420","","","","","3","html-keyboard-response","562","","","","",""
"2037","page","wakala,wimbo,ishiri,skina","wimbo","v","4","html-keyboard-response","888","f","wakala","false","",""
"2386.800000011921","","","","","4","html-slider-response","889","","","","1",""
"586","sheet","juuya,watu,bililhon,kamantis","bililhon","j","4","html-keyboard-response","890","f","juuya","false","",""
"1455.0999999940395","","","","","4","html-slider-response","891","","","","1",""
"714","ladder","mashua,mwanga,kamba,pangalan","pangalan","n","4","html-keyboard-response","892","v","mwanga","false","",""
"1209.199999988079","","","","","4","html-slider-response","893","","","","1",""
"1114","door","tena,soko,nyota,surali","surali","n","4","html-keyboard-response","894","f","tena","false","",""
"1298.2999999821186","","","","","4","html-slider-response","895","","","","1",""
"1149","spider","bunyag,mkboa,atop,kamwe","kamwe","n","4","html-keyboard-response","896","n","kamwe","true","",""
"1073.7000000178814","","","","","4","html-slider-response","897","","","","5",""
"1041","picture","kubwa,silya,chaki,asin","kubwa","f","4","html-keyboard-response","898","n","asin","false","",""
"1045.0999999940395","","","","","4","html-slider-response","899","","","","1",""
"711","boat","hamsi,pombe,kitanda,agalon","agalon","n","4","html-keyboard-response","900","f","hamsi","false","",""
"895.2000000178814","","","","","4","html-slider-response","901","","","","1",""
"1543","donkey","elfu,bloke,lalake,rombus","elfu","f","4","html-keyboard-response","902","f","elfu","true","",""
"1329.300000011921","","","","","4","html-slider-response","903","","","","5",""
"7298","book","kuhesa,mali,picha,mara","mali","v","4","html-keyboard-response","904","n","mara","false","",""
"1287.2000000178814","","","","","4","html-slider-response","905","","","","1",""
"744","cup","dagat,shimoni,matumai,jeraha","matumai","j","4","html-keyboard-response","906","n","jeraha","false","",""
"1397.4000000059605","","","","","4","html-slider-response","907","","","","1",""
"2767","sun","basi,bendi,luha,uongo","basi","f","4","html-keyboard-response","908","f","basi","true","",""
"1384.0999999940395","","","","","4","html-slider-response","909","","","","1",""
"3751","pudding","aibu,abug,mpishi,iring","aibu","f","4","html-keyboard-response","910","n","iring","false","",""
"1329.5","","","","","4","html-slider-response","911","","","","5",""
"5295","human","bado,kikapu,punguza,tinapay","tinapay","n","4","html-keyboard-response","912","j","punguza","false","",""
"1606.9000000059605","","","","","4","html-slider-response","913","","","","5",""
"3609","squirrel","mahugaw,ukweli,hofu,kichwa","hofu","j","4","html-keyboard-response","914","f","mahugaw","false","",""
"1387.800000011921","","","","","4","html-slider-response","915","","","","1",""
"936","park","tambok,pwani,bunifu,ihalas","bunifu","j","4","html-keyboard-response","916","n","ihalas","false","",""
"1699.7999999821186","","","","","4","html-slider-response","917","","","","1",""
"1101","poster","nchi,fedha,madungog,kasuko","madungog","j","4","html-keyboard-response","918","f","nchi","false","",""
"1959.300000011921","","","","","4","html-slider-response","919","","","","1",""
"1452","wolf","kaburi,lugha,ndizi,mchuzi","lugha","v","4","html-keyboard-response","920","v","lugha","true","",""
"1892.7000000178814","","","","","4","html-slider-response","921","","","","5",""
"8641","cat","neyemba,baki,akili,paghukom","paghukom","n","4","html-keyboard-response","922","n","paghukom","true","",""
"926.4000000059605","","","","","4","html-slider-response","923","","","","5",""
"2546","fish","buli,bala,baho,imani","buli","f","4","html-keyboard-response","924","v","bala","false","",""
"1710.1000000238419","","","","","4","html-slider-response","925","","","","1",""
"779","tooth","kijiko,uadui,kabalaka,pahiyum","kabalaka","j","4","html-keyboard-response","926","v","uadui","false","",""
"1211.4000000059605","","","","","4","html-slider-response","927","","","","1",""
"617","cave","ganti,maisha,kesho,nyundo","kesho","j","4","html-keyboard-response","928","f","ganti","false","",""
"1231.5","","","","","4","html-slider-response","929","","","","1",""
"870","lamp","daub,bilaska,afya,mbolea","afya","j","4","html-keyboard-response","930","v","bilaska","false","",""
"1058.7000000178814","","","","","4","html-slider-response","931","","","","1",""
"2461","banana","kasamok,hagdan,twai,kazi","kazi","n","4","html-keyboard-response","932","n","kazi","true","",""
"973.5999999940395","","","","","4","html-slider-response","933","","","","5",""
"1018","bonfire","goti,mwezi,mfuko,kusanya","goti","f","4","html-keyboard-response","934","f","goti","true","",""
"1568.300000011921","","","","","4","html-slider-response","935","","","","5",""
"611","cop","bustani,mechezo,jikoni,bakus","mechezo","v","4","html-keyboard-response","936","f","bustani","false","",""
"943.5","","","","","4","html-slider-response","937","","","","1",""
"521","marker","maji,mapafu,salita,atay","maji","f","4","html-keyboard-response","938","f","maji","true","",""
"832","","","","","4","html-slider-response","939","","","","1",""
"1252","window","nanga,kweli,kujenga,umaga","kweli","v","4","html-keyboard-response","940","f","nanga","false","",""
"824.9000000059605","","","","","4","html-slider-response","941","","","","1",""
"3381","body","tindashan,nyundu,jibini,kununa","tindashan","f","4","html-keyboard-response","942","v","nyundu","false","",""
"1310","","","","","4","html-slider-response","943","","","","5",""
"792","apple","ukame,estante,edad,kisu","kisu","n","4","html-keyboard-response","944","n","kisu","true","",""
"1770.7000000178814","","","","","4","html-slider-response","945","","","","1",""
"2476","salmon","mzungu,seri,sensilyo,baharia","sensilyo","j","4","html-keyboard-response","946","j","sensilyo","true","",""
"1350.9000000059605","","","","","4","html-slider-response","947","","","","5",""
"1524","bed","kalipay,mapintas,haraka,starehe","mapintas","v","4","html-keyboard-response","948","f","kalipay","false","",""
"1074.300000011921","","","","","4","html-slider-response","949","","","","1",""
"2752","berry","abogado,kofia,nogozi,kinywa","kofia","v","4","html-keyboard-response","950","v","kofia","true","",""
"1720.6000000238419","","","","","4","html-slider-response","951","","","","4",""
"554","mirror","rangi,sulagma,kanding,furaha","sulagma","v","4","html-keyboard-response","952","f","rangi","false","",""
"1908.9000000059605","","","","","4","html-slider-response","953","","","","1",""
"1714","flag","ndege,mkate,trekta,kawa","trekta","j","4","html-keyboard-response","954","f","ndege","false","",""
"1121.4000000059605","","","","","4","html-slider-response","955","","","","1",""
"740","shoulder","kelele,mkuu,ndaniya,guruwe","mkuu","v","4","html-keyboard-response","956","f","kelele","false","",""
"1084.5999999940395","","","","","4","html-slider-response","957","","","","1",""
"121","tissue","ugomvi,lamigas,kisiwa,katika","ugomvi","f","4","html-keyboard-response","958","f","ugomvi","true","",""
"1135.5999999940395","","","","","4","html-slider-response","959","","","","1",""
"548","notebook","msitu,kila,mdudu,kemia","kemia","n","4","html-keyboard-response","960","f","msitu","false","",""
"768.8000000119209","","","","","4","html-slider-response","961","","","","1",""
"3002","snake","jansa,karon,mvringo,pagtukod","pagtukod","n","4","html-keyboard-response","962","n","pagtukod","true","",""
"990.9000000059605","","","","","4","html-slider-response","963","","","","5",""
"1393","finger","simu,moyo,sufuria,lima","moyo","v","4","html-keyboard-response","964","v","moyo","true","",""
"1191.4000000059605","","","","","4","html-slider-response","965","","","","5",""
"774","basket","kumbuka,utepe,hasira,kumba","kumba","n","4","html-keyboard-response","966","n","kumba","true","",""
"1062.7000000178814","","","","","4","html-slider-response","967","","","","4",""
"889","curtain","lisud,bulwawan,mchanga,chubani","mchanga","j","4","html-keyboard-response","968","f","lisud","false","",""
"3248","","","","","4","html-slider-response","969","","","","1",""
"1416","perfume","katuyoan,bino,sungura,ndogo","katuyoan","f","4","html-keyboard-response","970","f","katuyoan","true","",""
"1132.1000000238419","","","","","4","html-slider-response","971","","","","1",""
"13707","key","chombo,miaka,goma,ahos","chombo","f","4","html-keyboard-response","972","f","chombo","true","",""
"3178","","","","","4","html-slider-response","973","","","","1",""
"1387","olive","bata,siagi,welder,jiwe","jiwe","n","4","html-keyboard-response","974","f","bata","false","",""
"1302.2000000178814","","","","","4","html-slider-response","975","","","","1",""
"810","rose","singizi,mwanake,amani,paghalad","paghalad","n","4","html-keyboard-response","976","f","singizi","false","",""
"1585.5","","","","","4","html-slider-response","977","","","","1",""
"862","bridge","daima,ngono,panya,sahani","sahani","n","4","html-keyboard-response","978","v","ngono","false","",""
"1026.5999999940395","","","","","4","html-slider-response","979","","","","1",""
"703","hill","matumbo,kushoto,kukimba,sweta","matumbo","f","4","html-keyboard-response","980","v","kushoto","false","",""
"1104.0999999940395","","","","","4","html-slider-response","981","","","","1",""
"1021","letter","filimbi,kifua,chuma,uhuru","kifua","v","4","html-keyboard-response","982","v","kifua","true","",""
"1017.8999999761581","","","","","4","html-slider-response","983","","","","1",""
"1125","sock","mamba,ndoora,kimysa,mtirka","mamba","f","4","html-keyboard-response","984","f","mamba","true","",""
"1215.5","","","","","4","html-slider-response","985","","","","1",""
"1371","fork","baboy,paghago,mgonjwa,gorisi","mgonjwa","j","4","html-keyboard-response","986","v","paghago","false","",""
"1332.5999999940395","","","","","4","html-slider-response","987","","","","1",""
"1134","box","adui,kuacha,rafiki,kitande","adui","f","4","html-keyboard-response","988","n","kitande","false","",""
"914.8000000119209","","","","","4","html-slider-response","989","","","","1",""
"1835","gift","baba,nyange,baso,pagtawag","pagtawag","n","4","html-keyboard-response","990","j","baso","false","",""
"1142.1000000238419","","","","","4","html-slider-response","991","","","","1",""
"1807","bucket","baga,ijayo,kiatu,init","kiatu","j","4","html-keyboard-response","992","f","baga","false","",""
"1204.5999999940395","","","","","4","html-slider-response","993","","","","1",""
"535","shop","nopya,kerida,ndezu,samaki","samaki","n","4","html-keyboard-response","994","f","nopya","false","",""
"1006.8000000119209","","","","","4","html-slider-response","995","","","","1",""
"1701","puppet","napulo,mazishi,lamok,godoro","mazishi","v","4","html-keyboard-response","996","v","mazishi","true","",""
"1127.800000011921","","","","","4","html-slider-response","997","","","","1",""
"232","nose","gubat,kopa,sehemu,kidole","sehemu","j","4","html-keyboard-response","998","v","kopa","false","",""
"1059.0999999940395","","","","","4","html-slider-response","999","","","","1",""
"607","music","mraba,mageho,baiski,tumbo","baiski","j","4","html-keyboard-response","1000","n","tumbo","false","",""
"1140.300000011921","","","","","4","html-slider-response","1001","","","","1",""
"3272","dog","lubi,bahari,washia,kalamu","bahari","v","4","html-keyboard-response","1002","v","bahari","true","",""
"1211.7000000178814","","","","","4","html-slider-response","1003","","","","1",""
"1591","eel","msumari,ishara,kunywa,kabuang","msumari","f","4","html-keyboard-response","1004","v","ishara","false","",""
"1359.699999988079","","","","","4","html-slider-response","1005","","","","1",""
"588","number","shule,kengele,choori,mundamo","mundamo","n","4","html-keyboard-response","1006","f","shule","false","",""
"1045.199999988079","","","","","4","html-slider-response","1007","","","","1",""
"556","tomato","mvua,chupi,chupa,takatak","mvua","f","4","html-keyboard-response","1008","f","mvua","true","",""
"1824.300000011921","","","","","4","html-slider-response","1009","","","","1",""
"1223","coffin","barua,tubag,hulma,kioo","kioo","n","4","html-keyboard-response","1010","n","kioo","true","",""
"1754.7000000178814","","","","","4","html-slider-response","1011","","","","5",""
"985","knee","mvuke,kubale,duka,bili","duka","j","4","html-keyboard-response","1012","n","bili","false","",""
"1941.199999988079","","","","","4","html-slider-response","1013","","","","5",""
"1122","woman","bandari,bituin,kovuli,pagtabon","pagtabon","n","4","html-keyboard-response","1014","f","bandari","false","",""
"1093","","","","","4","html-slider-response","1015","","","","1",""
"1747","stone","ulimwengu,mkasi,wingi,asili","wingi","j","4","html-keyboard-response","1016","j","wingi","true","",""
"1299.5999999940395","","","","","4","html-slider-response","1017","","","","5",""
"761","bread","dari,kaili,dizeli,bugas","dari","f","4","html-keyboard-response","1018","f","dari","true","",""
"1536.800000011921","","","","","4","html-slider-response","1019","","","","1",""
"787","triangle","kihozi,bentaha,liog,kasadpan","kasadpan","n","4","html-keyboard-response","1020","n","kasadpan","true","",""
"1029.0999999940395","","","","","4","html-slider-response","1021","","","","1",""
"777","scissors","tanuri,duga,mtawa,suga","tanuri","f","4","html-keyboard-response","1022","n","suga","false","",""
"1239.2000000178814","","","","","4","html-slider-response","1023","","","","1",""
"854","giraffe","daraja,mahitabo,jumatu,hangyo","mahitabo","v","4","html-keyboard-response","1024","n","hangyo","false","",""
"1070.5999999940395","","","","","4","html-slider-response","1025","","","","1",""
"1223","flower","tamasha,lobo,usiku,bega","bega","n","4","html-keyboard-response","1026","n","bega","true","",""
"1724","","","","","4","html-slider-response","1027","","","","1",""
"1866","candle","geza,gabi,farasi,kupanda","geza","f","4","html-keyboard-response","1028","v","gabi","false","",""
"1484.4000000059605","","","","","4","html-slider-response","1029","","","","1",""
"3099","mother","kahawa,mbuzi,babaye,jokofu","babaye","j","4","html-keyboard-response","1030","j","babaye","true","",""
"2211.4000000059605","","","","","4","html-slider-response","1031","","","","5",""
"906","towel","tembo,funzi,pito,pagpalit","pagpalit","n","4","html-keyboard-response","1032","f","tembo","false","",""
"1640.9000000059605","","","","","4","html-slider-response","1033","","","","1",""
"757","elephant","petye,pagduol,kito,suka","kito","j","4","html-keyboard-response","1034","n","suka","false","",""
"1177","","","","","4","html-slider-response","1035","","","","1",""
"547","shelf","bungtod,pamahaw,kadaot,awit","pamahaw","v","4","html-keyboard-response","1036","n","awit","false","",""
"913.3000000119209","","","","","4","html-slider-response","1037","","","","1",""
"1189","mosquito","isda,martilyo,taras,gutom","martilyo","v","4","html-keyboard-response","1038","v","martilyo","true","",""
"1579.300000011921","","","","","4","html-slider-response","1039","","","","5",""
"823","column","ufagio,pundok,dila,pala","ufagio","f","4","html-keyboard-response","1040","n","pala","false","",""
"1169.7999999821186","","","","","4","html-slider-response","1041","","","","1",""
"901","pants","pintal,haki,chuki,hari","haki","v","4","html-keyboard-response","1042","n","hari","false","",""
"1439.9000000059605","","","","","4","html-slider-response","1043","","","","1",""
"7349","list","alizeti,kuzama,kaso,wingu","wingu","n","4","html-keyboard-response","1044","j","kaso","false","",""
"1815.5999999940395","","","","","4","html-slider-response","1045","","","","1",""
"859","bank","kudhibi,tualya,ofisi,silingan","silingan","n","4","html-keyboard-response","1046","n","silingan","true","",""
"965.4000000059605","","","","","4","html-slider-response","1047","","","","1",""
"891","clock","kartasi,abang,osha,mbwa","mbwa","n","4","html-keyboard-response","1048","j","osha","false","",""
"1311.4000000059605","","","","","4","html-slider-response","1049","","","","1",""
"758","ceiling","kugita,maua,kawaida,rayna","maua","v","4","html-keyboard-response","1050","f","kugita","false","",""
"1202.5999999940395","","","","","4","html-slider-response","1051","","","","1",""
"1984","train","itik,dakika,sayari,mungu","sayari","j","4","html-keyboard-response","1052","v","dakika","false","",""
"3158.0999999940395","","","","","4","html-slider-response","1053","","","","1",""
"1794","magazine","kiti,gundi,mchawi,bahandi","kiti","f","4","html-keyboard-response","1054","j","mchawi","false","",""
"1117.5","","","","","4","html-slider-response","1055","","","","1",""
"966","office","hazini,yatima,kuna,leso","leso","n","4","html-keyboard-response","1056","n","leso","true","",""
"1253.5","","","","","4","html-slider-response","1057","","","","1",""
"1431","wheel","punda,tawo,bafuni,baadaye","bafuni","j","4","html-keyboard-response","1058","f","punda","false","",""
"977.9000000059605","","","","","4","html-slider-response","1059","","","","1",""
"1028","spoon","betri,nzuri,pagsulod,ngazi","pagsulod","j","4","html-keyboard-response","1060","v","nzuri","false","",""
"1005","","","","","4","html-slider-response","1061","","","","1",""
"1599","hammer","napakyas,mekno,kitovu,layag","napakyas","f","4","html-keyboard-response","1062","v","mekno","false","",""
"1208.300000011921","","","","","4","html-slider-response","1063","","","","1",""
"666","cigar","ndugu,adhabu,kuta,mlango","adhabu","v","4","html-keyboard-response","1064","n","mlango","false","",""
"1035.5999999940395","","","","","4","html-slider-response","1065","","","","1",""
"539","shoe","nyeusi,uyoga,hatua,kama","uyoga","v","4","html-keyboard-response","1066","j","hatua","false","",""
"995.5","","","","","4","html-slider-response","1067","","","","1",""
"2373","list","alizeti,kuzama,wingu,kaso","wingu","j","5","html-keyboard-response","1069","n","kaso","false","",""
"2839.0999999940395","","","","","5","html-slider-response","1070","","","","1",""
"1039","number","shule,mundamo,kengele,choori","mundamo","v","5","html-keyboard-response","1071","v","mundamo","true","",""
"1918.300000011921","","","","","5","html-slider-response","1072","","","","1",""
"952","apple","ukame,estante,edad,kisu","kisu","n","5","html-keyboard-response","1073","f","ukame","false","",""
"1353.5","","","","","5","html-slider-response","1074","","","","1",""
"1089","knee","mvuke,kubale,bili,duka","duka","n","5","html-keyboard-response","1075","v","kubale","false","",""
"961.5999999940395","","","","","5","html-slider-response","1076","","","","1",""
"676","tooth","kijiko,kabalaka,uadui,pahiyum","kabalaka","v","5","html-keyboard-response","1077","f","kijiko","false","",""
"965.0999999940395","","","","","5","html-slider-response","1078","","","","1",""
"1241","berry","abogado,kofia,nogozi,kinywa","kofia","v","5","html-keyboard-response","1079","v","kofia","true","",""
"1234.2999999821186","","","","","5","html-slider-response","1080","","","","5",""
"977","bridge","sahani,daima,ngono,panya","sahani","f","5","html-keyboard-response","1081","f","sahani","true","",""
"1346.699999988079","","","","","5","html-slider-response","1082","","","","1",""
"610","perfume","bino,katuyoan,sungura,ndogo","katuyoan","v","5","html-keyboard-response","1083","v","katuyoan","true","",""
"1299.0999999940395","","","","","5","html-slider-response","1084","","","","1",""
"1180","ladder","mashua,pangalan,mwanga,kamba","pangalan","v","5","html-keyboard-response","1085","n","kamba","false","",""
"1231","","","","","5","html-slider-response","1086","","","","1",""
"971","pants","pintal,chuki,haki,hari","haki","j","5","html-keyboard-response","1087","n","hari","false","",""
"1488.199999988079","","","","","5","html-slider-response","1088","","","","1",""
"1393","salmon","mzungu,seri,baharia,sensilyo","sensilyo","n","5","html-keyboard-response","1089","n","sensilyo","true","",""
"1206.5","","","","","5","html-slider-response","1090","","","","5",""
"1177","coffin","barua,tubag,kioo,hulma","kioo","j","5","html-keyboard-response","1091","j","kioo","true","",""
"947.8000000119209","","","","","5","html-slider-response","1092","","","","5",""
"759","park","tambok,bunifu,pwani,ihalas","bunifu","v","5","html-keyboard-response","1093","n","ihalas","false","",""
"1157.9000000059605","","","","","5","html-slider-response","1094","","","","1",""
"675","giraffe","daraja,mahitabo,jumatu,hangyo","mahitabo","v","5","html-keyboard-response","1095","n","hangyo","false","",""
"890","","","","","5","html-slider-response","1096","","","","1",""
"721","mirror","sulagma,rangi,kanding,furaha","sulagma","f","5","html-keyboard-response","1097","n","furaha","false","",""
"936.0999999940395","","","","","5","html-slider-response","1098","","","","1",""
"5582","ceiling","kugita,maua,kawaida,rayna","maua","v","5","html-keyboard-response","1099","v","maua","true","",""
"1247.800000011921","","","","","5","html-slider-response","1100","","","","1",""
"681","marker","maji,mapafu,salita,atay","maji","f","5","html-keyboard-response","1101","v","mapafu","false","",""
"1038.3999999761581","","","","","5","html-slider-response","1102","","","","1",""
"777","sock","ndoora,kimysa,mamba,mtirka","mamba","j","5","html-keyboard-response","1103","f","ndoora","false","",""
"940.4000000059605","","","","","5","html-slider-response","1104","","","","1",""
"812","cop","bustani,jikoni,bakus,mechezo","mechezo","n","5","html-keyboard-response","1105","v","jikoni","false","",""
"939.3000000119209","","","","","5","html-slider-response","1106","","","","1",""
"1172","gift","baba,pagtawag,nyange,baso","pagtawag","v","5","html-keyboard-response","1107","n","baso","false","",""
"1092.7000000178814","","","","","5","html-slider-response","1108","","","","1",""
"896","notebook","msitu,kila,kemia,mdudu","kemia","j","5","html-keyboard-response","1109","n","mdudu","false","",""
"1108.9000000059605","","","","","5","html-slider-response","1110","","","","1",""
"902","bank","kudhibi,tualya,ofisi,silingan","silingan","n","5","html-keyboard-response","1111","v","tualya","false","",""
"1087.0999999940395","","","","","5","html-slider-response","1112","","","","1",""
"728","letter","kifua,filimbi,chuma,uhuru","kifua","f","5","html-keyboard-response","1113","f","kifua","true","",""
"933.3000000119209","","","","","5","html-slider-response","1114","","","","1",""
"846","candle","geza,gabi,farasi,kupanda","geza","f","5","html-keyboard-response","1115","f","geza","true","",""
"1051.5","","","","","5","html-slider-response","1116","","","","1",""
"887","bread","kaili,dari,dizeli,bugas","dari","v","5","html-keyboard-response","1117","n","bugas","false","",""
"821.5999999940395","","","","","5","html-slider-response","1118","","","","1",""
"1845","snake","jansa,karon,mvringo,pagtukod","pagtukod","n","5","html-keyboard-response","1119","n","pagtukod","true","",""
"1071.9000000059605","","","","","5","html-slider-response","1120","","","","5",""
"1517","rose","singizi,mwanake,amani,paghalad","paghalad","n","5","html-keyboard-response","1121","v","mwanake","false","",""
"1412.0999999940395","","","","","5","html-slider-response","1122","","","","1",""
"754","hill","kushoto,matumbo,kukimba,sweta","matumbo","v","5","html-keyboard-response","1123","n","sweta","false","",""
"1241.4000000059605","","","","","5","html-slider-response","1124","","","","1",""
"733","train","itik,dakika,sayari,mungu","sayari","j","5","html-keyboard-response","1125","v","dakika","false","",""
"1105.5999999940395","","","","","5","html-slider-response","1126","","","","1",""
"1193","shop","nopya,kerida,samaki,ndezu","samaki","j","5","html-keyboard-response","1127","v","kerida","false","",""
"1412.199999988079","","","","","5","html-slider-response","1128","","","","1",""
"986","nose","sehemu,gubat,kopa,kidole","sehemu","f","5","html-keyboard-response","1129","n","kidole","false","",""
"817","","","","","5","html-slider-response","1130","","","","1",""
"884","boat","hamsi,agalon,pombe,kitanda","agalon","v","5","html-keyboard-response","1131","n","kitanda","false","",""
"998.3000000119209","","","","","5","html-slider-response","1132","","","","1",""
"775","body","nyundu,jibini,tindashan,kununa","tindashan","j","5","html-keyboard-response","1133","v","jibini","false","",""
"2085.5999999940395","","","","","5","html-slider-response","1134","","","","1",""
"10900","bed","kalipay,mapintas,haraka,starehe","mapintas","v","5","html-keyboard-response","1135","v","mapintas","true","",""
"1557.5","","","","","5","html-slider-response","1136","","","","1",""
"1312","squirrel","mahugaw,ukweli,kichwa,hofu","hofu","n","5","html-keyboard-response","1137","f","mahugaw","false","",""
"1572.2999999821186","","","","","5","html-slider-response","1138","","","","1",""
"1330","window","kweli,nanga,kujenga,umaga","kweli","f","5","html-keyboard-response","1139","n","umaga","false","",""
"1234.699999988079","","","","","5","html-slider-response","1140","","","","1",""
"1508","bonfire","mwezi,mfuko,goti,kusanya","goti","j","5","html-keyboard-response","1141","j","goti","true","",""
"2075.800000011921","","","","","5","html-slider-response","1142","","","","5",""
"1518","fish","bala,buli,baho,imani","buli","v","5","html-keyboard-response","1143","v","buli","true","",""
"1326.199999988079","","","","","5","html-slider-response","1144","","","","5",""
"1322","cat","neyemba,baki,akili,paghukom","paghukom","n","5","html-keyboard-response","1145","n","paghukom","true","",""
"1432.5","","","","","5","html-slider-response","1146","","","","5",""
"915","spider","bunyag,mkboa,atop,kamwe","kamwe","n","5","html-keyboard-response","1147","n","kamwe","true","",""
"1111.5999999940395","","","","","5","html-slider-response","1148","","","","5",""
"963","eel","msumari,ishara,kunywa,kabuang","msumari","f","5","html-keyboard-response","1149","n","kabuang","false","",""
"1228","","","","","5","html-slider-response","1150","","","","1",""
"2590","woman","bandari,bituin,pagtabon,kovuli","pagtabon","j","5","html-keyboard-response","1151","j","pagtabon","true","",""
"1430.2000000178814","","","","","5","html-slider-response","1152","","","","5",""
"690","magazine","gundi,mchawi,kiti,bahandi","kiti","j","5","html-keyboard-response","1153","n","bahandi","false","",""
"862.4000000059605","","","","","5","html-slider-response","1154","","","","1",""
"838","pudding","abug,mpishi,iring,aibu","aibu","n","5","html-keyboard-response","1155","n","aibu","true","",""
"1076.699999988079","","","","","5","html-slider-response","1156","","","","1",""
"605","lamp","daub,bilaska,afya,mbolea","afya","j","5","html-keyboard-response","1157","v","bilaska","false","",""
"824.8000000119209","","","","","5","html-slider-response","1158","","","","1",""
"653","cave","ganti,maisha,nyundo,kesho","kesho","n","5","html-keyboard-response","1159","v","maisha","false","",""
"806.6999999880791","","","","","5","html-slider-response","1160","","","","1",""
"525","shoulder","kelele,mkuu,ndaniya,guruwe","mkuu","v","5","html-keyboard-response","1161","v","mkuu","true","",""
"1331.0999999940395","","","","","5","html-slider-response","1162","","","","1",""
"1664","stone","wingi,ulimwengu,mkasi,asili","wingi","f","5","html-keyboard-response","1163","f","wingi","true","",""
"1072.300000011921","","","","","5","html-slider-response","1164","","","","5",""
"843","column","pundok,ufagio,dila,pala","ufagio","v","5","html-keyboard-response","1165","n","pala","false","",""
"1551.699999988079","","","","","5","html-slider-response","1166","","","","1",""
"805","page","wakala,ishiri,skina,wimbo","wimbo","n","5","html-keyboard-response","1167","n","wimbo","true","",""
"842.9000000059605","","","","","5","html-slider-response","1168","","","","1",""
"544","shoe","nyeusi,uyoga,hatua,kama","uyoga","v","5","html-keyboard-response","1169","v","uyoga","true","",""
"992.2999999821186","","","","","5","html-slider-response","1170","","","","1",""
"476","clock","kartasi,abang,osha,mbwa","mbwa","n","5","html-keyboard-response","1171","n","mbwa","true","",""
"1760.2999999821186","","","","","5","html-slider-response","1172","","","","1",""
"956","towel","tembo,funzi,pito,pagpalit","pagpalit","n","5","html-keyboard-response","1173","f","tembo","false","",""
"1676.7999999821186","","","","","5","html-slider-response","1174","","","","1",""
"918","tomato","mvua,chupi,chupa,takatak","mvua","f","5","html-keyboard-response","1175","j","chupa","false","",""
"1472.7999999821186","","","","","5","html-slider-response","1176","","","","1",""
"984","bucket","baga,ijayo,kiatu,init","kiatu","j","5","html-keyboard-response","1177","v","ijayo","false","",""
"1364.9000000059605","","","","","5","html-slider-response","1178","","","","1",""
"1348","finger","simu,sufuria,moyo,lima","moyo","j","5","html-keyboard-response","1179","j","moyo","true","",""
"783.2999999821186","","","","","5","html-slider-response","1180","","","","5",""
"1700","mother","kahawa,mbuzi,jokofu,babaye","babaye","n","5","html-keyboard-response","1181","n","babaye","true","",""
"1172.5","","","","","5","html-slider-response","1182","","","","5",""
"1722","human","bado,tinapay,kikapu,punguza","tinapay","v","5","html-keyboard-response","1183","n","punguza","false","",""
"1104.5999999940395","","","","","5","html-slider-response","1184","","","","5",""
"1016","sun","bendi,luha,uongo,basi","basi","n","5","html-keyboard-response","1185","n","basi","true","",""
"2361","","","","","5","html-slider-response","1186","","","","1",""
"965","fork","baboy,mgonjwa,paghago,gorisi","mgonjwa","v","5","html-keyboard-response","1187","n","gorisi","false","",""
"1717.4000000059605","","","","","5","html-slider-response","1188","","","","1",""
"1298","donkey","bloke,lalake,rombus,elfu","elfu","n","5","html-keyboard-response","1189","n","elfu","true","",""
"1112.699999988079","","","","","5","html-slider-response","1190","","","","5",""
"921","wolf","kaburi,ndizi,mchuzi,lugha","lugha","n","5","html-keyboard-response","1191","n","lugha","true","",""
"1549.7999999821186","","","","","5","html-slider-response","1192","","","","5",""
"761","cigar","ndugu,kuta,mlango,adhabu","adhabu","n","5","html-keyboard-response","1193","n","adhabu","true","",""
"1082","","","","","5","html-slider-response","1194","","","","1",""
"468","olive","bata,siagi,jiwe,welder","jiwe","j","5","html-keyboard-response","1195","v","siagi","false","",""
"1038","","","","","5","html-slider-response","1196","","","","1",""
"672","key","miaka,chombo,goma,ahos","chombo","v","5","html-keyboard-response","1197","j","goma","false","",""
"1082.2000000178814","","","","","5","html-slider-response","1198","","","","1",""
"504","door","tena,soko,nyota,surali","surali","n","5","html-keyboard-response","1199","f","tena","false","",""
"1538.699999988079","","","","","5","html-slider-response","1200","","","","1",""
"408","wheel","bafuni,punda,tawo,baadaye","bafuni","f","5","html-keyboard-response","1201","n","baadaye","false","",""
"1028.800000011921","","","","","5","html-slider-response","1202","","","","1",""
"476","basket","kumbuka,kumba,utepe,hasira","kumba","v","5","html-keyboard-response","1203","j","utepe","false","",""
"1694.699999988079","","","","","5","html-slider-response","1204","","","","1",""
"1475","elephant","petye,pagduol,kito,suka","kito","j","5","html-keyboard-response","1205","n","suka","false","",""
"1235.300000011921","","","","","5","html-slider-response","1206","","","","1",""
"337","office","leso,hazini,yatima,kuna","leso","f","5","html-keyboard-response","1207","f","leso","true","",""
"1255.300000011921","","","","","5","html-slider-response","1208","","","","1",""
"1023","music","baiski,mraba,mageho,tumbo","baiski","f","5","html-keyboard-response","1209","n","tumbo","false","",""
"1183.7999999821186","","","","","5","html-slider-response","1210","","","","1",""
"609","tissue","lamigas,kisiwa,katika,ugomvi","ugomvi","n","5","html-keyboard-response","1211","j","katika","false","",""
"1315.9000000059605","","","","","5","html-slider-response","1212","","","","1",""
"535","curtain","lisud,mchanga,bulwawan,chubani","mchanga","v","5","html-keyboard-response","1213","f","lisud","false","",""
"1544.199999988079","","","","","5","html-slider-response","1214","","","","1",""
"629","flag","ndege,mkate,trekta,kawa","trekta","j","5","html-keyboard-response","1215","v","mkate","false","",""
"1153.2999999821186","","","","","5","html-slider-response","1216","","","","1",""
"638","dog","lubi,washia,kalamu,bahari","bahari","n","5","html-keyboard-response","1217","n","bahari","true","",""
"1154.5","","","","","5","html-slider-response","1218","","","","1",""
"405","cup","dagat,shimoni,jeraha,matumai","matumai","n","5","html-keyboard-response","1219","j","jeraha","false","",""
"1015.4000000059605","","","","","5","html-slider-response","1220","","","","1",""
"367","sheet","bililhon,juuya,watu,kamantis","bililhon","f","5","html-keyboard-response","1221","f","bililhon","true","",""
"1362","","","","","5","html-slider-response","1222","","","","1",""
"526","spoon","betri,nzuri,ngazi,pagsulod","pagsulod","n","5","html-keyboard-response","1223","v","nzuri","false","",""
"1959","","","","","5","html-slider-response","1224","","","","1",""
"278","flower","tamasha,bega,lobo,usiku","bega","v","5","html-keyboard-response","1225","n","usiku","false","",""
"1561.9000000059605","","","","","5","html-slider-response","1226","","","","1",""
"630","picture","kubwa,silya,chaki,asin","kubwa","f","5","html-keyboard-response","1227","j","chaki","false","",""
"1576.4000000059605","","","","","5","html-slider-response","1228","","","","1",""
"1225","puppet","napulo,lamok,godoro,mazishi","mazishi","n","5","html-keyboard-response","1229","f","napulo","false","",""
"1146.800000011921","","","","","5","html-slider-response","1230","","","","1",""
"736","banana","kasamok,hagdan,twai,kazi","kazi","n","5","html-keyboard-response","1231","v","hagdan","false","",""
"1141.800000011921","","","","","5","html-slider-response","1232","","","","1",""
"590","book","kuhesa,picha,mara,mali","mali","n","5","html-keyboard-response","1233","n","mali","true","",""
"1116.2999999821186","","","","","5","html-slider-response","1234","","","","1",""
"808","triangle","kihozi,bentaha,kasadpan,liog","kasadpan","j","5","html-keyboard-response","1235","j","kasadpan","true","",""
"1576.4000000059605","","","","","5","html-slider-response","1236","","","","1",""
"590","poster","nchi,madungog,fedha,kasuko","madungog","v","5","html-keyboard-response","1237","f","nchi","false","",""
"1127.5","","","","","5","html-slider-response","1238","","","","1",""
"401","box","kuacha,rafiki,kitande,adui","adui","n","5","html-keyboard-response","1239","v","rafiki","false","",""
"1231.8999999761581","","","","","5","html-slider-response","1240","","","","1",""
"1066","mosquito","martilyo,isda,taras,gutom","martilyo","f","5","html-keyboard-response","1241","f","martilyo","true","",""
"1549.9000000059605","","","","","5","html-slider-response","1242","","","","5",""
"670","shelf","bungtod,pamahaw,kadaot,awit","pamahaw","v","5","html-keyboard-response","1243","n","awit","false","",""
"1642.4000000059605","","","","","5","html-slider-response","1244","","","","1",""
"728","scissors","duga,mtawa,tanuri,suga","tanuri","j","5","html-keyboard-response","1245","j","tanuri","true","",""
"1444.4000000059605","","","","","5","html-slider-response","1246","","","","1",""
"630","hammer","mekno,kitovu,layag,napakyas","napakyas","n","5","html-keyboard-response","1247","f","mekno","false","",""
"1110.5999999940395","","","","","5","html-slider-response","1248","","","","1",""
