"rt","en_word","options","swa_word","correct_answer","phase","trial_type","trial_index","input_answer","input_word","accuracy","certainty","amt_choices"
"51426","bonfire","goti,mwezi,mfuko,kusanya","goti","f","2","html-keyboard-response","106","f","goti","true","",""
"9199.100000023842","","","","","2","html-slider-response","107","","","","3",""
"8836","flower","tamasha,lobo,bega,usiku","bega","j","2","html-keyboard-response","108","j","bega","true","",""
"2014.3999999761581","","","","","2","html-slider-response","109","","","","4",""
"10793","column","pundok,dila,ufagio,pala","ufagio","j","2","html-keyboard-response","110","j","ufagio","true","",""
"5039","","","","","2","html-slider-response","111","","","","3",""
"14924","music","mraba,mageho,baiski,tumbo","baiski","j","2","html-keyboard-response","112","j","baiski","true","",""
"1982.5","","","","","2","html-slider-response","113","","","","4",""
"9224","spider","bunyag,mkboa,atop,kamwe","kamwe","n","2","html-keyboard-response","114","f","bunyag","false","",""
"2515.5","","","","","2","html-slider-response","115","","","","2",""
"8523","fork","baboy,paghago,gorisi,mgonjwa","mgonjwa","n","2","html-keyboard-response","116","f","baboy","false","",""
"2713.2999999523163","","","","","2","html-slider-response","117","","","","4",""
"11195","mosquito","isda,taras,gutom,martilyo","martilyo","n","2","html-keyboard-response","118","n","martilyo","true","",""
"2189.7000000476837","","","","","2","html-slider-response","119","","","","4",""
"6650","banana","kazi,kasamok,hagdan,twai","kazi","f","2","html-keyboard-response","120","f","kazi","true","",""
"1962.5","","","","","2","html-slider-response","121","","","","4",""
"8198","cup","dagat,matumai,shimoni,jeraha","matumai","v","2","html-keyboard-response","122","v","matumai","true","",""
"2227","","","","","2","html-slider-response","123","","","","3",""
"8654","shop","nopya,samaki,kerida,ndezu","samaki","v","2","html-keyboard-response","124","v","samaki","true","",""
"1964.0999999046326","","","","","2","html-slider-response","125","","","","4",""
"7586","elephant","petye,kito,pagduol,suka","kito","v","2","html-keyboard-response","126","v","kito","true","",""
"3235.100000023842","","","","","2","html-slider-response","127","","","","3",""
"10791","bucket","baga,kiatu,ijayo,init","kiatu","v","2","html-keyboard-response","128","f","baga","false","",""
"1983.1999999284744","","","","","2","html-slider-response","129","","","","4",""
"6324","book","mali,kuhesa,picha,mara","mali","f","2","html-keyboard-response","130","f","mali","true","",""
"2053.7999999523163","","","","","2","html-slider-response","131","","","","4",""
"10307","mirror","rangi,kanding,sulagma,furaha","sulagma","j","2","html-keyboard-response","132","f","rangi","false","",""
"3183.899999976158","","","","","2","html-slider-response","133","","","","4",""
"5462","office","leso,hazini,yatima,kuna","leso","f","2","html-keyboard-response","134","f","leso","true","",""
"2214.5","","","","","2","html-slider-response","135","","","","4",""
"7151","body","tindashan,nyundu,jibini,kununa","tindashan","f","2","html-keyboard-response","136","f","tindashan","true","",""
"1797.2999999523163","","","","","2","html-slider-response","137","","","","2",""
"15007","perfume","katuyoan,bino,sungura,ndogo","katuyoan","f","2","html-keyboard-response","138","v","bino","false","",""
"1846.5999999046326","","","","","2","html-slider-response","139","","","","2",""
"11345","olive","bata,siagi,welder,jiwe","jiwe","n","2","html-keyboard-response","140","f","bata","false","",""
"1781.5","","","","","2","html-slider-response","141","","","","4",""
"15389","magazine","gundi,kiti,mchawi,bahandi","kiti","v","2","html-keyboard-response","142","j","mchawi","false","",""
"2447.2000000476837","","","","","2","html-slider-response","143","","","","2",""
"9207","bread","kaili,dizeli,dari,bugas","dari","j","2","html-keyboard-response","144","n","bugas","false","",""
"1948.7000000476837","","","","","2","html-slider-response","145","","","","4",""
"6387","cave","ganti,maisha,nyundo,kesho","kesho","n","2","html-keyboard-response","146","n","kesho","true","",""
"1889.8000000715256","","","","","2","html-slider-response","147","","","","4",""
"8268","ladder","mashua,mwanga,kamba,pangalan","pangalan","n","2","html-keyboard-response","148","n","pangalan","true","",""
"1929.2999999523163","","","","","2","html-slider-response","149","","","","2",""
"9273","human","bado,tinapay,kikapu,punguza","tinapay","v","2","html-keyboard-response","150","f","bado","false","",""
"3686","","","","","2","html-slider-response","151","","","","4",""
"12736","clock","mbwa,kartasi,abang,osha","mbwa","f","2","html-keyboard-response","152","v","kartasi","false","",""
"1727.5","","","","","2","html-slider-response","153","","","","2",""
"29480","shelf","pamahaw,bungtod,kadaot,awit","pamahaw","f","2","html-keyboard-response","154","f","pamahaw","true","",""
"3183.600000023842","","","","","2","html-slider-response","155","","","","2",""
"10799","salmon","mzungu,sensilyo,seri,baharia","sensilyo","v","2","html-keyboard-response","156","n","baharia","false","",""
"4159.199999928474","","","","","2","html-slider-response","157","","","","4",""
"9139","coffin","barua,tubag,kioo,hulma","kioo","j","2","html-keyboard-response","158","j","kioo","true","",""
"2883.7000000476837","","","","","2","html-slider-response","159","","","","3",""
"40427","notebook","kemia,msitu,kila,mdudu","kemia","f","2","html-keyboard-response","160","n","mdudu","false","",""
"2179.9000000953674","","","","","2","html-slider-response","161","","","","2",""
"5209","shoulder","kelele,ndaniya,mkuu,guruwe","mkuu","j","2","html-keyboard-response","162","f","kelele","false","",""
"2201.2000000476837","","","","","2","html-slider-response","163","","","","4",""
"7844","park","bunifu,tambok,pwani,ihalas","bunifu","f","2","html-keyboard-response","164","f","bunifu","true","",""
"1801.5","","","","","2","html-slider-response","165","","","","2",""
"12505","number","mundamo,shule,kengele,choori","mundamo","f","2","html-keyboard-response","166","n","choori","false","",""
"4728.600000023842","","","","","2","html-slider-response","167","","","","4",""
"17072","apple","kisu,ukame,estante,edad","kisu","f","2","html-keyboard-response","168","f","kisu","true","",""
"2258.100000023842","","","","","2","html-slider-response","169","","","","4",""
"7450","letter","filimbi,kifua,chuma,uhuru","kifua","v","2","html-keyboard-response","170","j","chuma","false","",""
"1711.3999999761581","","","","","2","html-slider-response","171","","","","2",""
"7501","eel","ishara,msumari,kunywa,kabuang","msumari","v","2","html-keyboard-response","172","f","ishara","false","",""
"2395.5","","","","","2","html-slider-response","173","","","","2",""
"55186","cop","mechezo,bustani,jikoni,bakus","mechezo","f","2","html-keyboard-response","174","f","mechezo","true","",""
"2149","","","","","2","html-slider-response","175","","","","5",""
"11609","wolf","kaburi,ndizi,lugha,mchuzi","lugha","j","2","html-keyboard-response","176","f","kaburi","false","",""
"2396.0999999046326","","","","","2","html-slider-response","177","","","","4",""
"8721","squirrel","mahugaw,ukweli,kichwa,hofu","hofu","n","2","html-keyboard-response","178","f","mahugaw","false","",""
"1682.5999999046326","","","","","2","html-slider-response","179","","","","4",""
"6284","nose","sehemu,gubat,kopa,kidole","sehemu","f","2","html-keyboard-response","180","j","kopa","false","",""
"3578","","","","","2","html-slider-response","181","","","","4",""
"36971","sock","ndoora,kimysa,mtirka,mamba","mamba","n","2","html-keyboard-response","182","f","ndoora","false","",""
"1761.5","","","","","2","html-slider-response","183","","","","2",""
"9863","bank","kudhibi,tualya,silingan,ofisi","silingan","j","2","html-keyboard-response","184","n","ofisi","false","",""
"1973.1000000238419","","","","","2","html-slider-response","185","","","","4",""
"8604","donkey","bloke,elfu,lalake,rombus","elfu","v","2","html-keyboard-response","186","v","elfu","true","",""
"2884.600000023842","","","","","2","html-slider-response","187","","","","4",""
"13902","poster","nchi,fedha,madungog,kasuko","madungog","j","2","html-keyboard-response","188","n","kasuko","false","",""
"1863.6000000238419","","","","","2","html-slider-response","189","","","","2",""
"8076","puppet","napulo,lamok,godoro,mazishi","mazishi","n","2","html-keyboard-response","190","n","mazishi","true","",""
"4596.700000047684","","","","","2","html-slider-response","191","","","","3",""
"6268","hill","kushoto,kukimba,matumbo,sweta","matumbo","j","2","html-keyboard-response","192","f","kushoto","false","",""
"1791.8999999761581","","","","","2","html-slider-response","193","","","","4",""
"25754","tooth","kabalaka,kijiko,uadui,pahiyum","kabalaka","f","2","html-keyboard-response","194","f","kabalaka","true","",""
"2283.5","","","","","2","html-slider-response","195","","","","4",""
"9647","woman","bandari,bituin,kovuli,pagtabon","pagtabon","n","2","html-keyboard-response","196","f","bandari","false","",""
"1802.3999999761581","","","","","2","html-slider-response","197","","","","2",""
"12039","wheel","punda,tawo,bafuni,baadaye","bafuni","j","2","html-keyboard-response","198","j","bafuni","true","",""
"3557.899999976158","","","","","2","html-slider-response","199","","","","4",""
"6021","mother","kahawa,mbuzi,babaye,jokofu","babaye","j","2","html-keyboard-response","200","j","babaye","true","",""
"1675.5","","","","","2","html-slider-response","201","","","","5",""
"9427","bed","kalipay,haraka,starehe,mapintas","mapintas","n","2","html-keyboard-response","202","f","kalipay","false","",""
"1590.7999999523163","","","","","2","html-slider-response","203","","","","2",""
"7404","key","chombo,miaka,goma,ahos","chombo","f","2","html-keyboard-response","204","v","miaka","false","",""
"3293","","","","","2","html-slider-response","205","","","","4",""
"10968","page","wakala,ishiri,skina,wimbo","wimbo","n","2","html-keyboard-response","206","v","ishiri","false","",""
"1723.6000000238419","","","","","2","html-slider-response","207","","","","4",""
"15780","pants","pintal,chuki,haki,hari","haki","j","2","html-keyboard-response","208","f","pintal","false","",""
"1839.5","","","","","2","html-slider-response","209","","","","4",""
"6514","sun","basi,bendi,luha,uongo","basi","f","2","html-keyboard-response","210","f","basi","true","",""
"1645.5","","","","","2","html-slider-response","211","","","","4",""
"4175","finger","moyo,simu,sufuria,lima","moyo","f","2","html-keyboard-response","212","f","moyo","true","",""
"2648.100000023842","","","","","2","html-slider-response","213","","","","4",""
"8084","shoe","uyoga,nyeusi,hatua,kama","uyoga","f","2","html-keyboard-response","214","v","nyeusi","false","",""
"2582.399999976158","","","","","2","html-slider-response","215","","","","2",""
"10284","giraffe","daraja,mahitabo,jumatu,hangyo","mahitabo","v","2","html-keyboard-response","216","j","jumatu","false","",""
"2906.399999976158","","","","","2","html-slider-response","217","","","","2",""
"5848","dog","lubi,washia,kalamu,bahari","bahari","n","2","html-keyboard-response","218","n","bahari","true","",""
"2393.9000000953674","","","","","2","html-slider-response","219","","","","2",""
"6400","box","kuacha,rafiki,adui,kitande","adui","j","2","html-keyboard-response","220","f","kuacha","false","",""
"6243.299999952316","","","","","2","html-slider-response","221","","","","4",""
"12414","scissors","tanuri,duga,mtawa,suga","tanuri","f","2","html-keyboard-response","222","f","tanuri","true","",""
"2029.2999999523163","","","","","2","html-slider-response","223","","","","2",""
"14042","cat","paghukom,neyemba,baki,akili","paghukom","f","2","html-keyboard-response","224","j","baki","false","",""
"3728.4000000953674","","","","","2","html-slider-response","225","","","","4",""
"12421","basket","kumbuka,utepe,kumba,hasira","kumba","j","2","html-keyboard-response","226","n","hasira","false","",""
"3045.9000000953674","","","","","2","html-slider-response","227","","","","3",""
"9371","snake","jansa,karon,mvringo,pagtukod","pagtukod","n","2","html-keyboard-response","228","n","pagtukod","true","",""
"2229.100000023842","","","","","2","html-slider-response","229","","","","4",""
"8395","gift","pagtawag,baba,nyange,baso","pagtawag","f","2","html-keyboard-response","230","f","pagtawag","true","",""
"1722.8999999761581","","","","","2","html-slider-response","231","","","","4",""
"5994","train","itik,dakika,sayari,mungu","sayari","j","2","html-keyboard-response","232","f","itik","false","",""
"1748.7999999523163","","","","","2","html-slider-response","233","","","","4",""
"10763","pudding","abug,mpishi,aibu,iring","aibu","j","2","html-keyboard-response","234","f","abug","false","",""
"3176.8000000715256","","","","","2","html-slider-response","235","","","","2",""
"11797","tomato","chupi,chupa,mvua,takatak","mvua","j","2","html-keyboard-response","236","n","takatak","false","",""
"2282.100000023842","","","","","2","html-slider-response","237","","","","4",""
"6922","stone","ulimwengu,mkasi,asili,wingi","wingi","n","2","html-keyboard-response","238","f","ulimwengu","false","",""
"1972.6000000238419","","","","","2","html-slider-response","239","","","","2",""
"8723","hammer","napakyas,mekno,kitovu,layag","napakyas","f","2","html-keyboard-response","240","f","napakyas","true","",""
"1994.7000000476837","","","","","2","html-slider-response","241","","","","4",""
"7467","knee","mvuke,kubale,bili,duka","duka","n","2","html-keyboard-response","242","v","kubale","false","",""
"2183.600000023842","","","","","2","html-slider-response","243","","","","2",""
"22195","ceiling","kugita,maua,kawaida,rayna","maua","v","2","html-keyboard-response","244","j","kawaida","false","",""
"3644.2000000476837","","","","","2","html-slider-response","245","","","","3",""
"8727","spoon","pagsulod,betri,nzuri,ngazi","pagsulod","f","2","html-keyboard-response","246","n","ngazi","false","",""
"1875.5","","","","","2","html-slider-response","247","","","","2",""
"5290","marker","mapafu,salita,atay,maji","maji","n","2","html-keyboard-response","248","f","mapafu","false","",""
"1850.5","","","","","2","html-slider-response","249","","","","4",""
"8269","candle","gabi,farasi,kupanda,geza","geza","n","2","html-keyboard-response","250","j","kupanda","false","",""
"3803.399999976158","","","","","2","html-slider-response","251","","","","4",""
"13456","tissue","ugomvi,lamigas,kisiwa,katika","ugomvi","f","2","html-keyboard-response","252","v","lamigas","false","",""
"1958.6000000238419","","","","","2","html-slider-response","253","","","","4",""
"5451","bridge","daima,ngono,panya,sahani","sahani","n","2","html-keyboard-response","254","j","panya","false","",""
"1656.1000000238419","","","","","2","html-slider-response","255","","","","4",""
"8844","berry","abogado,kofia,nogozi,kinywa","kofia","v","2","html-keyboard-response","256","n","kinywa","false","",""
"2524.5","","","","","2","html-slider-response","257","","","","2",""
"9457","triangle","kihozi,bentaha,liog,kasadpan","kasadpan","n","2","html-keyboard-response","258","f","kihozi","false","",""
"2229.6999999284744","","","","","2","html-slider-response","259","","","","2",""
"10000","door","tena,soko,surali,nyota","surali","j","2","html-keyboard-response","260","n","nyota","false","",""
"2774.5","","","","","2","html-slider-response","261","","","","2",""
"5880","fish","buli,bala,baho,imani","buli","f","2","html-keyboard-response","262","f","buli","true","",""
"1997.3000000715256","","","","","2","html-slider-response","263","","","","4",""
"6280","curtain","lisud,bulwawan,mchanga,chubani","mchanga","j","2","html-keyboard-response","264","n","chubani","false","",""
"2000.3999999761581","","","","","2","html-slider-response","265","","","","4",""
"5791","flag","trekta,ndege,mkate,kawa","trekta","f","2","html-keyboard-response","266","f","trekta","true","",""
"1947","","","","","2","html-slider-response","267","","","","2",""
"3824","boat","hamsi,pombe,kitanda,agalon","agalon","n","2","html-keyboard-response","268","f","hamsi","false","",""
"3970.5","","","","","2","html-slider-response","269","","","","3",""
"8362","rose","paghalad,singizi,mwanake,amani","paghalad","f","2","html-keyboard-response","270","n","amani","false","",""
"1719.3999999761581","","","","","2","html-slider-response","271","","","","4",""
"14671","lamp","daub,afya,bilaska,mbolea","afya","v","2","html-keyboard-response","272","f","daub","false","",""
"1698.2999999523163","","","","","2","html-slider-response","273","","","","2",""
"4691","cigar","ndugu,kuta,adhabu,mlango","adhabu","j","2","html-keyboard-response","274","v","kuta","false","",""
"1765.8000000715256","","","","","2","html-slider-response","275","","","","4",""
"7182","list","alizeti,kuzama,wingu,kaso","wingu","j","2","html-keyboard-response","276","f","alizeti","false","",""
"1614.1000000238419","","","","","2","html-slider-response","277","","","","4",""
"6121","sheet","bililhon,juuya,watu,kamantis","bililhon","f","2","html-keyboard-response","278","j","watu","false","",""
"1588.7000000476837","","","","","2","html-slider-response","279","","","","2",""
"7288","picture","silya,chaki,asin,kubwa","kubwa","n","2","html-keyboard-response","280","f","silya","false","",""
"2075.600000023842","","","","","2","html-slider-response","281","","","","2",""
"3926","towel","tembo,pagpalit,funzi,pito","pagpalit","v","2","html-keyboard-response","282","f","tembo","false","",""
"1626.7000000476837","","","","","2","html-slider-response","283","","","","4",""
"6640","window","nanga,kujenga,kweli,umaga","kweli","j","2","html-keyboard-response","284","f","nanga","false","",""
"1623.6000000238419","","","","","2","html-slider-response","285","","","","2",""
"6728","box","kuacha,rafiki,kitande,adui","adui","n","3","html-keyboard-response","293","f","kuacha","false","","4"
"2271.6999999284744","","","","","3","html-slider-response","294","","","","4",""
"13132","","","","","3","html-keyboard-response","295","","","","",""
"20000","pants","pintal,chuki,haki,hari","haki","j","3","html-keyboard-response","296","f","pintal","false","","4"
"3950.9000000953674","","","","","3","html-slider-response","297","","","","2",""
"39993","","","","","3","html-keyboard-response","298","","","","",""
"9069","cup","dagat,matumai,shimoni,jeraha","matumai","v","3","html-keyboard-response","299","j","shimoni","false","","4"
"1981.8999999761581","","","","","3","html-slider-response","300","","","","4",""
"9504","","","","","3","html-keyboard-response","301","","","","",""
"3367","triangle","kasadpan,kihozi,bentaha,liog","kasadpan","f","3","html-keyboard-response","302","j","bentaha","false","","4"
"3822.1999999284744","","","","","3","html-slider-response","303","","","","3",""
"11658","","","","","3","html-keyboard-response","304","","","","",""
"4936","curtain","lisud,bulwawan,chubani,mchanga","mchanga","n","3","html-keyboard-response","305","n","mchanga","true","","4"
"2271.600000023842","","","","","3","html-slider-response","306","","","","4",""
"8568","","","","","3","html-keyboard-response","307","","","","",""
"13678","clock","kartasi,mbwa,abang,osha","mbwa","v","3","html-keyboard-response","308","v","mbwa","true","","4"
"4406.5","","","","","3","html-slider-response","309","","","","3",""
"4401","","","","","3","html-keyboard-response","310","","","","",""
"4285","mirror","sulagma,rangi,kanding,furaha","sulagma","f","3","html-keyboard-response","311","f","sulagma","true","","4"
"1794.3999999761581","","","","","3","html-slider-response","312","","","","4",""
"5873","","","","","3","html-keyboard-response","313","","","","",""
"3306","coffin","barua,tubag,kioo,hulma","kioo","j","3","html-keyboard-response","314","j","kioo","true","","1"
"2083.899999976158","","","","","3","html-slider-response","315","","","","4",""
"3321","","","","","3","html-keyboard-response","316","","","","",""
"3565","magazine","gundi,mchawi,bahandi,kiti","kiti","n","3","html-keyboard-response","317","f","gundi","false","","4"
"2302.600000023842","","","","","3","html-slider-response","318","","","","3",""
"15640","","","","","3","html-keyboard-response","319","","","","",""
"6377","column","pundok,dila,pala,ufagio","ufagio","n","3","html-keyboard-response","320","n","ufagio","true","","1"
"2199","","","","","3","html-slider-response","321","","","","4",""
"7261","","","","","3","html-keyboard-response","322","","","","",""
"3189","number","shule,kengele,choori,mundamo","mundamo","n","3","html-keyboard-response","323","f","shule","false","","4"
"2449.600000023842","","","","","3","html-slider-response","324","","","","3",""
"2933","","","","","3","html-keyboard-response","325","","","","",""
"3336","rose","singizi,mwanake,amani,paghalad","paghalad","n","3","html-keyboard-response","326","n","paghalad","true","","4"
"2035","","","","","3","html-slider-response","327","","","","4",""
"3668","","","","","3","html-keyboard-response","328","","","","",""
"2085","eel","ishara,msumari,kunywa,kabuang","msumari","v","3","html-keyboard-response","329","j","kunywa","false","","4"
"1834.2000000476837","","","","","3","html-slider-response","330","","","","4",""
"2740","","","","","3","html-keyboard-response","331","","","","",""
"1074","gift","pagtawag,baba,nyange,baso","pagtawag","f","3","html-keyboard-response","332","f","pagtawag","true","","4"
"2248.8000000715256","","","","","3","html-slider-response","333","","","","4",""
"3261","","","","","3","html-keyboard-response","334","","","","",""
"1382","apple","ukame,kisu,estante,edad","kisu","v","3","html-keyboard-response","335","v","kisu","true","","1"
"2212.600000023842","","","","","3","html-slider-response","336","","","","5",""
"3333","","","","","3","html-keyboard-response","337","","","","",""
"1301","wheel","punda,tawo,bafuni,baadaye","bafuni","j","3","html-keyboard-response","338","j","bafuni","true","","1"
"1734","","","","","3","html-slider-response","339","","","","5",""
"3965","","","","","3","html-keyboard-response","340","","","","",""
"1622","knee","duka,mvuke,kubale,bili","duka","f","3","html-keyboard-response","341","n","bili","false","","4"
"1783.6000000238419","","","","","3","html-slider-response","342","","","","5",""
"2766","","","","","3","html-keyboard-response","343","","","","",""
"1116","basket","kumba,kumbuka,utepe,hasira","kumba","f","3","html-keyboard-response","344","f","kumba","true","","1"
"1832.8999999761581","","","","","3","html-slider-response","345","","","","5",""
"3162","","","","","3","html-keyboard-response","346","","","","",""
"1290","park","tambok,bunifu,pwani,ihalas","bunifu","v","3","html-keyboard-response","347","f","tambok","false","","4"
"1749.1999999284744","","","","","3","html-slider-response","348","","","","4",""
"2605","","","","","3","html-keyboard-response","349","","","","",""
"1175","finger","moyo,simu,sufuria,lima","moyo","f","3","html-keyboard-response","350","n","lima","false","","4"
"3037.7000000476837","","","","","3","html-slider-response","351","","","","3",""
"4947","","","","","3","html-keyboard-response","352","","","","",""
"1893","boat","agalon,hamsi,pombe,kitanda","agalon","f","3","html-keyboard-response","353","f","agalon","true","","4"
"2217.5","","","","","3","html-slider-response","354","","","","4",""
"3323","","","","","3","html-keyboard-response","355","","","","",""
"2545","hill","kushoto,kukimba,matumbo,sweta","matumbo","j","3","html-keyboard-response","356","n","sweta","false","","4"
"5430.899999976158","","","","","3","html-slider-response","357","","","","3",""
"4139","","","","","3","html-keyboard-response","358","","","","",""
"5943","train","itik,dakika,sayari,mungu","sayari","j","3","html-keyboard-response","359","f","itik","false","","4"
"1632.3999999761581","","","","","3","html-slider-response","360","","","","4",""
"4510","","","","","3","html-keyboard-response","361","","","","",""
"3369","wolf","kaburi,ndizi,mchuzi,lugha","lugha","n","3","html-keyboard-response","362","n","lugha","true","","4"
"1497.6999999284744","","","","","3","html-slider-response","363","","","","4",""
"2786","","","","","3","html-keyboard-response","364","","","","",""
"4119","snake","jansa,karon,pagtukod,mvringo","pagtukod","j","3","html-keyboard-response","365","n","mvringo","false","","4"
"1700.5","","","","","3","html-slider-response","366","","","","4",""
"2656","","","","","3","html-keyboard-response","367","","","","",""
"4169","tooth","kijiko,uadui,kabalaka,pahiyum","kabalaka","j","3","html-keyboard-response","368","f","kijiko","false","","4"
"2614.3000000715256","","","","","3","html-slider-response","369","","","","4",""
"5579","","","","","3","html-keyboard-response","370","","","","",""
"7099","notebook","msitu,kemia,kila,mdudu","kemia","v","3","html-keyboard-response","371","f","msitu","false","","4"
"1945.9000000953674","","","","","3","html-slider-response","372","","","","3",""
"3334","","","","","3","html-keyboard-response","373","","","","",""
"4045","flag","trekta,ndege,mkate,kawa","trekta","f","3","html-keyboard-response","374","f","trekta","true","","4"
"1864.6000000238419","","","","","3","html-slider-response","375","","","","4",""
"9305","","","","","3","html-keyboard-response","376","","","","",""
"3666","squirrel","mahugaw,hofu,ukweli,kichwa","hofu","v","3","html-keyboard-response","377","j","ukweli","false","","4"
"2152.100000023842","","","","","3","html-slider-response","378","","","","4",""
"3995","","","","","3","html-keyboard-response","379","","","","",""
"3009","door","tena,soko,surali,nyota","surali","j","3","html-keyboard-response","380","n","nyota","false","","4"
"2987.600000023842","","","","","3","html-slider-response","381","","","","4",""
"2585","","","","","3","html-keyboard-response","382","","","","",""
"2430","salmon","mzungu,seri,sensilyo,baharia","sensilyo","j","3","html-keyboard-response","383","v","seri","false","","4"
"2031.8999999761581","","","","","3","html-slider-response","384","","","","4",""
"2521","","","","","3","html-keyboard-response","385","","","","",""
"13578","shoulder","kelele,ndaniya,guruwe,mkuu","mkuu","n","3","html-keyboard-response","386","j","guruwe","false","","4"
"2050","","","","","3","html-slider-response","387","","","","3",""
"2602","","","","","3","html-keyboard-response","388","","","","",""
"4930","lamp","daub,bilaska,afya,mbolea","afya","j","3","html-keyboard-response","389","f","daub","false","","4"
"3512.600000023842","","","","","3","html-slider-response","390","","","","3",""
"2992","","","","","3","html-keyboard-response","391","","","","",""
"5766","shelf","bungtod,kadaot,pamahaw,awit","pamahaw","j","3","html-keyboard-response","392","j","pamahaw","true","","1"
"2304.6999999284744","","","","","3","html-slider-response","393","","","","5",""
"5420","","","","","3","html-keyboard-response","394","","","","",""
"8911","human","tinapay,bado,kikapu,punguza","tinapay","f","3","html-keyboard-response","395","n","punguza","false","","4"
"2213.899999976158","","","","","3","html-slider-response","396","","","","4",""
"5192","","","","","3","html-keyboard-response","397","","","","",""
"3539","towel","tembo,pagpalit,funzi,pito","pagpalit","v","3","html-keyboard-response","398","f","tembo","false","","4"
"2433.399999976158","","","","","3","html-slider-response","399","","","","3",""
"3100","","","","","3","html-keyboard-response","400","","","","",""
"5713","cat","neyemba,baki,akili,paghukom","paghukom","n","3","html-keyboard-response","401","v","baki","false","","4"
"2114.600000023842","","","","","3","html-slider-response","402","","","","4",""
"2436","","","","","3","html-keyboard-response","403","","","","",""
"4619","spider","bunyag,mkboa,kamwe,atop","kamwe","j","3","html-keyboard-response","404","n","atop","false","","4"
"2670.600000023842","","","","","3","html-slider-response","405","","","","4",""
"4281","","","","","3","html-keyboard-response","406","","","","",""
"4461","window","nanga,kujenga,umaga,kweli","kweli","n","3","html-keyboard-response","407","n","kweli","true","","4"
"1664.5","","","","","3","html-slider-response","408","","","","4",""
"6175","","","","","3","html-keyboard-response","409","","","","",""
"2049","woman","bandari,pagtabon,bituin,kovuli","pagtabon","v","3","html-keyboard-response","410","v","pagtabon","true","","1"
"2103.9000000953674","","","","","3","html-slider-response","411","","","","5",""
"6241","","","","","3","html-keyboard-response","412","","","","",""
"4989","giraffe","daraja,jumatu,mahitabo,hangyo","mahitabo","j","3","html-keyboard-response","413","v","jumatu","false","","4"
"2970.600000023842","","","","","3","html-slider-response","414","","","","2",""
"3035","","","","","3","html-keyboard-response","415","","","","",""
"5093","elephant","petye,kito,pagduol,suka","kito","v","3","html-keyboard-response","416","v","kito","true","","4"
"5509.399999976158","","","","","3","html-slider-response","417","","","","2",""
"3201","","","","","3","html-keyboard-response","418","","","","",""
"8835","cave","ganti,maisha,kesho,nyundo","kesho","j","3","html-keyboard-response","419","v","maisha","false","","4"
"4506.899999976158","","","","","3","html-slider-response","420","","","","3",""
"2821","","","","","3","html-keyboard-response","421","","","","",""
"6006","bread","dari,kaili,dizeli,bugas","dari","f","3","html-keyboard-response","422","f","dari","true","","4"
"1842.1000000238419","","","","","3","html-slider-response","423","","","","4",""
"3498","","","","","3","html-keyboard-response","424","","","","",""
"4792","stone","ulimwengu,mkasi,wingi,asili","wingi","j","3","html-keyboard-response","425","v","mkasi","false","","4"
"8011.299999952316","","","","","3","html-slider-response","426","","","","2",""
"3151","","","","","3","html-keyboard-response","427","","","","",""
"9076","donkey","elfu,bloke,lalake,rombus","elfu","f","3","html-keyboard-response","428","f","elfu","true","","4"
"2244.100000023842","","","","","3","html-slider-response","429","","","","4",""
"3644","","","","","3","html-keyboard-response","430","","","","",""
"3093","bridge","daima,ngono,panya,sahani","sahani","n","3","html-keyboard-response","431","j","panya","false","","4"
"2185.600000023842","","","","","3","html-slider-response","432","","","","4",""
"2830","","","","","3","html-keyboard-response","433","","","","",""
"2803","bonfire","mwezi,goti,mfuko,kusanya","goti","v","3","html-keyboard-response","434","v","goti","true","","4"
"1735.7999999523163","","","","","3","html-slider-response","435","","","","4",""
"3421","","","","","3","html-keyboard-response","436","","","","",""
"4857","book","kuhesa,mali,picha,mara","mali","v","3","html-keyboard-response","437","v","mali","true","","4"
"2264.100000023842","","","","","3","html-slider-response","438","","","","4",""
"3992","","","","","3","html-keyboard-response","439","","","","",""
"2869","fish","bala,baho,imani,buli","buli","n","3","html-keyboard-response","440","f","bala","false","","4"
"1695","","","","","3","html-slider-response","441","","","","4",""
"3236","","","","","3","html-keyboard-response","442","","","","",""
"5008","spoon","betri,nzuri,ngazi,pagsulod","pagsulod","n","3","html-keyboard-response","443","n","pagsulod","true","","4"
"4614.100000023842","","","","","3","html-slider-response","444","","","","3",""
"3044","","","","","3","html-keyboard-response","445","","","","",""
"4958","scissors","tanuri,duga,mtawa,suga","tanuri","f","3","html-keyboard-response","446","f","tanuri","true","","4"
"2350.600000023842","","","","","3","html-slider-response","447","","","","3",""
"2791","","","","","3","html-keyboard-response","448","","","","",""
"3446","page","wakala,wimbo,ishiri,skina","wimbo","v","3","html-keyboard-response","449","j","ishiri","false","","4"
"1600.1000000238419","","","","","3","html-slider-response","450","","","","4",""
"2803","","","","","3","html-keyboard-response","451","","","","",""
"1611","nose","gubat,kopa,sehemu,kidole","sehemu","j","3","html-keyboard-response","452","j","sehemu","true","","1"
"2136.8000000715256","","","","","3","html-slider-response","453","","","","5",""
"4192","","","","","3","html-keyboard-response","454","","","","",""
"4824","ceiling","kugita,kawaida,maua,rayna","maua","j","3","html-keyboard-response","455","f","kugita","false","","4"
"2232.3000000715256","","","","","3","html-slider-response","456","","","","2",""
"2956","","","","","3","html-keyboard-response","457","","","","",""
"4569","bucket","baga,ijayo,kiatu,init","kiatu","j","3","html-keyboard-response","458","j","kiatu","true","","4"
"1750.6999999284744","","","","","3","html-slider-response","459","","","","2",""
"3403","","","","","3","html-keyboard-response","460","","","","",""
"3190","berry","abogado,nogozi,kinywa,kofia","kofia","n","3","html-keyboard-response","461","n","kofia","true","","1"
"1916.1999999284744","","","","","3","html-slider-response","462","","","","5",""
"3097","","","","","3","html-keyboard-response","463","","","","",""
"2583","mother","kahawa,mbuzi,babaye,jokofu","babaye","j","3","html-keyboard-response","464","j","babaye","true","","1"
"2456.3000000715256","","","","","3","html-slider-response","465","","","","5",""
"2912","","","","","3","html-keyboard-response","466","","","","",""
"4537","mosquito","isda,taras,gutom,martilyo","martilyo","n","3","html-keyboard-response","467","n","martilyo","true","","4"
"4778.299999952316","","","","","3","html-slider-response","468","","","","2",""
"2831","","","","","3","html-keyboard-response","469","","","","",""
"4425","perfume","bino,sungura,katuyoan,ndogo","katuyoan","j","3","html-keyboard-response","470","v","sungura","false","","4"
"1665.2999999523163","","","","","3","html-slider-response","471","","","","2",""
"3071","","","","","3","html-keyboard-response","472","","","","",""
"3432","sheet","bililhon,juuya,watu,kamantis","bililhon","f","3","html-keyboard-response","473","n","kamantis","false","","4"
"3036.100000023842","","","","","3","html-slider-response","474","","","","3",""
"2206","","","","","3","html-keyboard-response","475","","","","",""
"1761","puppet","napulo,mazishi,lamok,godoro","mazishi","v","3","html-keyboard-response","476","v","mazishi","true","","1"
"1903.3000000715256","","","","","3","html-slider-response","477","","","","5",""
"4067","","","","","3","html-keyboard-response","478","","","","",""
"3974","poster","nchi,madungog,fedha,kasuko","madungog","v","3","html-keyboard-response","479","v","madungog","true","","4"
"1682","","","","","3","html-slider-response","480","","","","4",""
"3872","","","","","3","html-keyboard-response","481","","","","",""
"6909","music","mraba,mageho,baiski,tumbo","baiski","j","3","html-keyboard-response","482","v","mageho","false","","4"
"2138.399999976158","","","","","3","html-slider-response","483","","","","2",""
"2680","","","","","3","html-keyboard-response","484","","","","",""
"7851","key","chombo,miaka,goma,ahos","chombo","f","3","html-keyboard-response","485","v","miaka","false","","4"
"1799.2999999523163","","","","","3","html-slider-response","486","","","","2",""
"2882","","","","","3","html-keyboard-response","487","","","","",""
"4495","sock","ndoora,kimysa,mamba,mtirka","mamba","j","3","html-keyboard-response","488","n","mtirka","false","","4"
"1716.1000000238419","","","","","3","html-slider-response","489","","","","4",""
"7361","","","","","3","html-keyboard-response","490","","","","",""
"5780","marker","mapafu,salita,maji,atay","maji","j","3","html-keyboard-response","491","f","mapafu","false","","4"
"3903.5","","","","","3","html-slider-response","492","","","","2",""
"3368","","","","","3","html-keyboard-response","493","","","","",""
"5858","office","hazini,leso,yatima,kuna","leso","v","3","html-keyboard-response","494","v","leso","true","","4"
"2200.399999976158","","","","","3","html-slider-response","495","","","","2",""
"2868","","","","","3","html-keyboard-response","496","","","","",""
"5442","shoe","nyeusi,hatua,kama,uyoga","uyoga","n","3","html-keyboard-response","497","f","nyeusi","false","","4"
"2185.5","","","","","3","html-slider-response","498","","","","2",""
"2635","","","","","3","html-keyboard-response","499","","","","",""
"6331","cop","mechezo,bustani,jikoni,bakus","mechezo","f","3","html-keyboard-response","500","v","bustani","false","","4"
"1895.6000000238419","","","","","3","html-slider-response","501","","","","2",""
"5694","","","","","3","html-keyboard-response","502","","","","",""
"8314","bank","kudhibi,tualya,ofisi,silingan","silingan","n","3","html-keyboard-response","503","j","ofisi","false","","4"
"1868.7000000476837","","","","","3","html-slider-response","504","","","","2",""
"3988","","","","","3","html-keyboard-response","505","","","","",""
"1913","letter","kifua,filimbi,chuma,uhuru","kifua","f","3","html-keyboard-response","506","f","kifua","true","","1"
"2204.2999999523163","","","","","3","html-slider-response","507","","","","5",""
"4835","","","","","3","html-keyboard-response","508","","","","",""
"2253","dog","bahari,lubi,washia,kalamu","bahari","f","3","html-keyboard-response","509","f","bahari","true","","1"
"1749.5","","","","","3","html-slider-response","510","","","","5",""
"3976","","","","","3","html-keyboard-response","511","","","","",""
"5136","shop","nopya,samaki,kerida,ndezu","samaki","v","3","html-keyboard-response","512","v","samaki","true","","4"
"3402.2999999523163","","","","","3","html-slider-response","513","","","","3",""
"2849","","","","","3","html-keyboard-response","514","","","","",""
"6395","flower","tamasha,bega,lobo,usiku","bega","v","3","html-keyboard-response","515","n","usiku","false","","4"
"2150.7000000476837","","","","","3","html-slider-response","516","","","","2",""
"3206","","","","","3","html-keyboard-response","517","","","","",""
"2050","cigar","ndugu,kuta,mlango,adhabu","adhabu","n","3","html-keyboard-response","518","n","adhabu","true","","1"
"1918.7000000476837","","","","","3","html-slider-response","519","","","","5",""
"3971","","","","","3","html-keyboard-response","520","","","","",""
"3217","hammer","mekno,kitovu,napakyas,layag","napakyas","j","3","html-keyboard-response","521","j","napakyas","true","","4"
"3403.1999999284744","","","","","3","html-slider-response","522","","","","4",""
"2952","","","","","3","html-keyboard-response","523","","","","",""
"3556","fork","baboy,paghago,gorisi,mgonjwa","mgonjwa","n","3","html-keyboard-response","524","f","baboy","false","","4"
"1816.6000000238419","","","","","3","html-slider-response","525","","","","4",""
"3049","","","","","3","html-keyboard-response","526","","","","",""
"2684","sun","bendi,luha,basi,uongo","basi","j","3","html-keyboard-response","527","j","basi","true","","1"
"2001.1000000238419","","","","","3","html-slider-response","528","","","","5",""
"2548","","","","","3","html-keyboard-response","529","","","","",""
"6562","ladder","mashua,pangalan,mwanga,kamba","pangalan","v","3","html-keyboard-response","530","j","mwanga","false","","4"
"2501.2000000476837","","","","","3","html-slider-response","531","","","","3",""
"3268","","","","","3","html-keyboard-response","532","","","","",""
"3269","banana","kasamok,kazi,hagdan,twai","kazi","v","3","html-keyboard-response","533","v","kazi","true","","1"
"2124.100000023842","","","","","3","html-slider-response","534","","","","5",""
"2898","","","","","3","html-keyboard-response","535","","","","",""
"4038","pudding","aibu,abug,mpishi,iring","aibu","f","3","html-keyboard-response","536","j","mpishi","false","","4"
"1582.8000000715256","","","","","3","html-slider-response","537","","","","2",""
"2998","","","","","3","html-keyboard-response","538","","","","",""
"3489","body","nyundu,jibini,kununa,tindashan","tindashan","n","3","html-keyboard-response","539","f","nyundu","false","","4"
"1665.8999999761581","","","","","3","html-slider-response","540","","","","4",""
"2633","","","","","3","html-keyboard-response","541","","","","",""
"3638","bed","kalipay,haraka,mapintas,starehe","mapintas","j","3","html-keyboard-response","542","f","kalipay","false","","4"
"1750","","","","","3","html-slider-response","543","","","","2",""
"8451","","","","","3","html-keyboard-response","544","","","","",""
"4205","tissue","ugomvi,lamigas,kisiwa,katika","ugomvi","f","3","html-keyboard-response","545","v","lamigas","false","","4"
"1732.3999999761581","","","","","3","html-slider-response","546","","","","2",""
"105528","","","","","3","html-keyboard-response","547","","","","",""
"5961","candle","geza,gabi,farasi,kupanda","geza","f","3","html-keyboard-response","548","f","geza","true","","4"
"1647.6000000238419","","","","","3","html-slider-response","549","","","","4",""
"3267","","","","","3","html-keyboard-response","550","","","","",""
"3149","tomato","chupi,mvua,chupa,takatak","mvua","v","3","html-keyboard-response","551","v","mvua","true","","1"
"3315.399999976158","","","","","3","html-slider-response","552","","","","5",""
"2840","","","","","3","html-keyboard-response","553","","","","",""
"6507","list","alizeti,wingu,kuzama,kaso","wingu","v","3","html-keyboard-response","554","n","kaso","false","","4"
"1718.7000000476837","","","","","3","html-slider-response","555","","","","5",""
"5186","","","","","3","html-keyboard-response","556","","","","",""
"4196","olive","bata,jiwe,siagi,welder","jiwe","v","3","html-keyboard-response","557","f","bata","false","","4"
"1746.5","","","","","3","html-slider-response","558","","","","2",""
"3708","","","","","3","html-keyboard-response","559","","","","",""
"2682","picture","silya,chaki,kubwa,asin","kubwa","j","3","html-keyboard-response","560","j","kubwa","true","","1"
"2134.1999999284744","","","","","3","html-slider-response","561","","","","5",""
"3451","","","","","3","html-keyboard-response","562","","","","",""
"9677","page","wakala,ishiri,skina,wimbo","wimbo","n","4","html-keyboard-response","888","v","ishiri","false","",""
"2432.100000023842","","","","","4","html-slider-response","889","","","","4",""
"10701","sheet","juuya,watu,bililhon,kamantis","bililhon","j","4","html-keyboard-response","890","j","bililhon","true","",""
"4541.399999976158","","","","","4","html-slider-response","891","","","","2",""
"22591","ladder","pangalan,mashua,mwanga,kamba","pangalan","f","4","html-keyboard-response","892","f","pangalan","true","",""
"2231.3000000715256","","","","","4","html-slider-response","893","","","","4",""
"5573","door","surali,tena,soko,nyota","surali","f","4","html-keyboard-response","894","n","nyota","false","",""
"3622.5","","","","","4","html-slider-response","895","","","","4",""
"9282","spider","bunyag,mkboa,atop,kamwe","kamwe","n","4","html-keyboard-response","896","f","bunyag","false","",""
"4678.100000023842","","","","","4","html-slider-response","897","","","","3",""
"7668","picture","kubwa,silya,chaki,asin","kubwa","f","4","html-keyboard-response","898","v","silya","false","",""
"3451.100000023842","","","","","4","html-slider-response","899","","","","4",""
"7952","boat","agalon,hamsi,pombe,kitanda","agalon","f","4","html-keyboard-response","900","v","hamsi","false","",""
"2246.2000000476837","","","","","4","html-slider-response","901","","","","4",""
"7224","donkey","elfu,bloke,lalake,rombus","elfu","f","4","html-keyboard-response","902","f","elfu","true","",""
"1720.4000000953674","","","","","4","html-slider-response","903","","","","4",""
"7296","book","mali,kuhesa,picha,mara","mali","f","4","html-keyboard-response","904","j","picha","false","",""
"1662.2999999523163","","","","","4","html-slider-response","905","","","","2",""
"4918","cup","matumai,dagat,shimoni,jeraha","matumai","f","4","html-keyboard-response","906","f","matumai","true","",""
"1556.6000000238419","","","","","4","html-slider-response","907","","","","4",""
"8818","sun","basi,bendi,luha,uongo","basi","f","4","html-keyboard-response","908","v","bendi","false","",""
"2582.5","","","","","4","html-slider-response","909","","","","4",""
"15052","pudding","abug,aibu,mpishi,iring","aibu","v","4","html-keyboard-response","910","j","mpishi","false","",""
"2353","","","","","4","html-slider-response","911","","","","2",""
"11576","human","bado,kikapu,punguza,tinapay","tinapay","n","4","html-keyboard-response","912","n","tinapay","true","",""
"2099.399999976158","","","","","4","html-slider-response","913","","","","4",""
"10540","squirrel","mahugaw,ukweli,kichwa,hofu","hofu","n","4","html-keyboard-response","914","f","mahugaw","false","",""
"1614.5","","","","","4","html-slider-response","915","","","","4",""
"7231","park","tambok,pwani,ihalas,bunifu","bunifu","n","4","html-keyboard-response","916","n","bunifu","true","",""
"3618.899999976158","","","","","4","html-slider-response","917","","","","2",""
"8081","poster","nchi,fedha,kasuko,madungog","madungog","n","4","html-keyboard-response","918","n","madungog","true","",""
"1720.1000000238419","","","","","4","html-slider-response","919","","","","4",""
"5425","wolf","kaburi,lugha,ndizi,mchuzi","lugha","v","4","html-keyboard-response","920","v","lugha","true","",""
"1712.7999999523163","","","","","4","html-slider-response","921","","","","4",""
"6531","cat","neyemba,baki,akili,paghukom","paghukom","n","4","html-keyboard-response","922","v","baki","false","",""
"2331.3000000715256","","","","","4","html-slider-response","923","","","","4",""
"7015","fish","buli,bala,baho,imani","buli","f","4","html-keyboard-response","924","v","bala","false","",""
"2600.7000000476837","","","","","4","html-slider-response","925","","","","4",""
"6480","tooth","kijiko,uadui,kabalaka,pahiyum","kabalaka","j","4","html-keyboard-response","926","n","pahiyum","false","",""
"1564.8000000715256","","","","","4","html-slider-response","927","","","","2",""
"5053","cave","ganti,maisha,nyundo,kesho","kesho","n","4","html-keyboard-response","928","f","ganti","false","",""
"2051.2000000476837","","","","","4","html-slider-response","929","","","","4",""
"5694","lamp","afya,daub,bilaska,mbolea","afya","f","4","html-keyboard-response","930","n","mbolea","false","",""
"1581.3000000715256","","","","","4","html-slider-response","931","","","","2",""
"7564","banana","kasamok,hagdan,twai,kazi","kazi","n","4","html-keyboard-response","932","f","kasamok","false","",""
"1698.3000000715256","","","","","4","html-slider-response","933","","","","4",""
"5576","bonfire","goti,mwezi,mfuko,kusanya","goti","f","4","html-keyboard-response","934","f","goti","true","",""
"2218.399999976158","","","","","4","html-slider-response","935","","","","5",""
"10675","cop","bustani,jikoni,bakus,mechezo","mechezo","n","4","html-keyboard-response","936","n","mechezo","true","",""
"1835.2999999523163","","","","","4","html-slider-response","937","","","","5",""
"9130","marker","mapafu,maji,salita,atay","maji","v","4","html-keyboard-response","938","f","mapafu","false","",""
"1965.8999999761581","","","","","4","html-slider-response","939","","","","4",""
"11413","window","nanga,kujenga,kweli,umaga","kweli","j","4","html-keyboard-response","940","v","kujenga","false","",""
"1564.8999999761581","","","","","4","html-slider-response","941","","","","2",""
"7257","body","nyundu,jibini,kununa,tindashan","tindashan","n","4","html-keyboard-response","942","f","nyundu","false","",""
"1614","","","","","4","html-slider-response","943","","","","2",""
"5239","apple","kisu,ukame,estante,edad","kisu","f","4","html-keyboard-response","944","f","kisu","true","",""
"1905.0999999046326","","","","","4","html-slider-response","945","","","","4",""
"9309","salmon","mzungu,seri,sensilyo,baharia","sensilyo","j","4","html-keyboard-response","946","f","mzungu","false","",""
"1651.8000000715256","","","","","4","html-slider-response","947","","","","2",""
"6311","bed","kalipay,haraka,mapintas,starehe","mapintas","j","4","html-keyboard-response","948","f","kalipay","false","",""
"1664.7000000476837","","","","","4","html-slider-response","949","","","","4",""
"6064","berry","kofia,abogado,nogozi,kinywa","kofia","f","4","html-keyboard-response","950","j","nogozi","false","",""
"2633.6999999284744","","","","","4","html-slider-response","951","","","","3",""
"8532","mirror","sulagma,rangi,kanding,furaha","sulagma","f","4","html-keyboard-response","952","f","sulagma","true","",""
"2329.899999976158","","","","","4","html-slider-response","953","","","","4",""
"6913","flag","ndege,mkate,trekta,kawa","trekta","j","4","html-keyboard-response","954","v","mkate","false","",""
"1481.8999999761581","","","","","4","html-slider-response","955","","","","2",""
"8568","shoulder","kelele,ndaniya,guruwe,mkuu","mkuu","n","4","html-keyboard-response","956","v","ndaniya","false","",""
"1798.3999999761581","","","","","4","html-slider-response","957","","","","4",""
"8120","tissue","lamigas,ugomvi,kisiwa,katika","ugomvi","v","4","html-keyboard-response","958","f","lamigas","false","",""
"2091.7000000476837","","","","","4","html-slider-response","959","","","","2",""
"7783","notebook","kemia,msitu,kila,mdudu","kemia","f","4","html-keyboard-response","960","v","msitu","false","",""
"1881","","","","","4","html-slider-response","961","","","","4",""
"6663","snake","jansa,karon,mvringo,pagtukod","pagtukod","n","4","html-keyboard-response","962","n","pagtukod","true","",""
"2681.7999999523163","","","","","4","html-slider-response","963","","","","4",""
"6021","finger","moyo,simu,sufuria,lima","moyo","f","4","html-keyboard-response","964","f","moyo","true","",""
"3560","","","","","4","html-slider-response","965","","","","3",""
"7634","basket","kumbuka,kumba,utepe,hasira","kumba","v","4","html-keyboard-response","966","n","hasira","false","",""
"2415.5","","","","","4","html-slider-response","967","","","","4",""
"7115","curtain","lisud,bulwawan,mchanga,chubani","mchanga","j","4","html-keyboard-response","968","j","mchanga","true","",""
"1597.8000000715256","","","","","4","html-slider-response","969","","","","4",""
"8085","perfume","bino,sungura,katuyoan,ndogo","katuyoan","j","4","html-keyboard-response","970","v","sungura","false","",""
"1626.2999999523163","","","","","4","html-slider-response","971","","","","4",""
"5992","key","chombo,miaka,goma,ahos","chombo","f","4","html-keyboard-response","972","n","ahos","false","",""
"2804.5","","","","","4","html-slider-response","973","","","","3",""
"7330","olive","bata,siagi,welder,jiwe","jiwe","n","4","html-keyboard-response","974","j","welder","false","",""
"3000.7000000476837","","","","","4","html-slider-response","975","","","","2",""
"6461","rose","singizi,mwanake,amani,paghalad","paghalad","n","4","html-keyboard-response","976","j","amani","false","",""
"1666.5","","","","","4","html-slider-response","977","","","","4",""
"7611","bridge","daima,ngono,panya,sahani","sahani","n","4","html-keyboard-response","978","v","ngono","false","",""
"2083.600000023842","","","","","4","html-slider-response","979","","","","4",""
"6816","hill","matumbo,kushoto,kukimba,sweta","matumbo","f","4","html-keyboard-response","980","f","matumbo","true","",""
"2364","","","","","4","html-slider-response","981","","","","2",""
"7533","letter","filimbi,chuma,kifua,uhuru","kifua","j","4","html-keyboard-response","982","v","chuma","false","",""
"1646.7999999523163","","","","","4","html-slider-response","983","","","","4",""
"8851","sock","mamba,ndoora,kimysa,mtirka","mamba","f","4","html-keyboard-response","984","n","mtirka","false","",""
"1783.7000000476837","","","","","4","html-slider-response","985","","","","2",""
"7460","fork","baboy,mgonjwa,paghago,gorisi","mgonjwa","v","4","html-keyboard-response","986","f","baboy","false","",""
"2483.600000023842","","","","","4","html-slider-response","987","","","","4",""
"5607","box","kuacha,adui,rafiki,kitande","adui","v","4","html-keyboard-response","988","f","kuacha","false","",""
"1467","","","","","4","html-slider-response","989","","","","2",""
"6575","gift","baba,pagtawag,nyange,baso","pagtawag","v","4","html-keyboard-response","990","v","pagtawag","true","",""
"1985.2000000476837","","","","","4","html-slider-response","991","","","","4",""
"6150","bucket","baga,ijayo,kiatu,init","kiatu","j","4","html-keyboard-response","992","f","baga","false","",""
"1808.9000000953674","","","","","4","html-slider-response","993","","","","2",""
"11343","shop","samaki,nopya,kerida,ndezu","samaki","f","4","html-keyboard-response","994","f","samaki","true","",""
"1928.8000000715256","","","","","4","html-slider-response","995","","","","3",""
"7501","puppet","mazishi,napulo,lamok,godoro","mazishi","f","4","html-keyboard-response","996","f","mazishi","true","",""
"1647.6000000238419","","","","","4","html-slider-response","997","","","","4",""
"6562","nose","gubat,kopa,kidole,sehemu","sehemu","n","4","html-keyboard-response","998","f","gubat","false","",""
"2297","","","","","4","html-slider-response","999","","","","3",""
"12646","music","baiski,mraba,mageho,tumbo","baiski","f","4","html-keyboard-response","1000","j","mageho","false","",""
"3504.2999999523163","","","","","4","html-slider-response","1001","","","","4",""
"15620","dog","lubi,washia,kalamu,bahari","bahari","n","4","html-keyboard-response","1002","n","bahari","true","",""
"3237","","","","","4","html-slider-response","1003","","","","3",""
"13598","eel","ishara,msumari,kunywa,kabuang","msumari","v","4","html-keyboard-response","1004","v","msumari","true","",""
"1783.1000000238419","","","","","4","html-slider-response","1005","","","","4",""
"11123","number","shule,mundamo,kengele,choori","mundamo","v","4","html-keyboard-response","1006","v","mundamo","true","",""
"1581.1999999284744","","","","","4","html-slider-response","1007","","","","2",""
"6984","tomato","chupi,mvua,chupa,takatak","mvua","v","4","html-keyboard-response","1008","v","mvua","true","",""
"1608.2000000476837","","","","","4","html-slider-response","1009","","","","2",""
"9807","coffin","barua,kioo,tubag,hulma","kioo","v","4","html-keyboard-response","1010","f","barua","false","",""
"1980.5999999046326","","","","","4","html-slider-response","1011","","","","4",""
"8283","knee","mvuke,kubale,duka,bili","duka","j","4","html-keyboard-response","1012","f","mvuke","false","",""
"2735.0999999046326","","","","","4","html-slider-response","1013","","","","2",""
"7813","woman","bandari,bituin,pagtabon,kovuli","pagtabon","j","4","html-keyboard-response","1014","j","pagtabon","true","",""
"1500","","","","","4","html-slider-response","1015","","","","4",""
"6062","stone","wingi,ulimwengu,mkasi,asili","wingi","f","4","html-keyboard-response","1016","n","asili","false","",""
"2587.7999999523163","","","","","4","html-slider-response","1017","","","","3",""
"7736","bread","kaili,dizeli,dari,bugas","dari","j","4","html-keyboard-response","1018","f","kaili","false","",""
"1845.1000000238419","","","","","4","html-slider-response","1019","","","","4",""
"12358","triangle","kihozi,kasadpan,bentaha,liog","kasadpan","v","4","html-keyboard-response","1020","j","bentaha","false","",""
"1768.8000000715256","","","","","4","html-slider-response","1021","","","","4",""
"9286","scissors","tanuri,duga,mtawa,suga","tanuri","f","4","html-keyboard-response","1022","j","mtawa","false","",""
"1596.3999999761581","","","","","4","html-slider-response","1023","","","","4",""
"5978","giraffe","daraja,jumatu,hangyo,mahitabo","mahitabo","n","4","html-keyboard-response","1024","f","daraja","false","",""
"5394.5","","","","","4","html-slider-response","1025","","","","4",""
"5521","flower","tamasha,lobo,usiku,bega","bega","n","4","html-keyboard-response","1026","f","tamasha","false","",""
"1966.9000000953674","","","","","4","html-slider-response","1027","","","","4",""
"15871","candle","gabi,farasi,kupanda,geza","geza","n","4","html-keyboard-response","1028","f","gabi","false","",""
"1749.0999999046326","","","","","4","html-slider-response","1029","","","","4",""
"4756","mother","babaye,kahawa,mbuzi,jokofu","babaye","f","4","html-keyboard-response","1030","f","babaye","true","",""
"2049.2999999523163","","","","","4","html-slider-response","1031","","","","5",""
"8369","towel","tembo,pagpalit,funzi,pito","pagpalit","v","4","html-keyboard-response","1032","n","pito","false","",""
"1863.2999999523163","","","","","4","html-slider-response","1033","","","","4",""
"7302","elephant","kito,petye,pagduol,suka","kito","f","4","html-keyboard-response","1034","f","kito","true","",""
"2197.600000023842","","","","","4","html-slider-response","1035","","","","4",""
"6458","shelf","bungtod,kadaot,pamahaw,awit","pamahaw","j","4","html-keyboard-response","1036","j","pamahaw","true","",""
"1785","","","","","4","html-slider-response","1037","","","","2",""
"7631","mosquito","isda,taras,martilyo,gutom","martilyo","j","4","html-keyboard-response","1038","j","martilyo","true","",""
"2816.899999976158","","","","","4","html-slider-response","1039","","","","4",""
"7304","column","pundok,ufagio,dila,pala","ufagio","v","4","html-keyboard-response","1040","v","ufagio","true","",""
"2345.5","","","","","4","html-slider-response","1041","","","","3",""
"4792","pants","haki,pintal,chuki,hari","haki","f","4","html-keyboard-response","1042","v","pintal","false","",""
"2379.2000000476837","","","","","4","html-slider-response","1043","","","","4",""
"3820","list","wingu,alizeti,kuzama,kaso","wingu","f","4","html-keyboard-response","1044","n","kaso","false","",""
"1687.6000000238419","","","","","4","html-slider-response","1045","","","","4",""
"10272","bank","kudhibi,silingan,tualya,ofisi","silingan","v","4","html-keyboard-response","1046","v","silingan","true","",""
"1464.0999999046326","","","","","4","html-slider-response","1047","","","","2",""
"7648","clock","mbwa,kartasi,abang,osha","mbwa","f","4","html-keyboard-response","1048","v","kartasi","false","",""
"1766.6000000238419","","","","","4","html-slider-response","1049","","","","2",""
"7143","ceiling","kugita,maua,kawaida,rayna","maua","v","4","html-keyboard-response","1050","f","kugita","false","",""
"2018.3999999761581","","","","","4","html-slider-response","1051","","","","4",""
"9620","train","itik,dakika,mungu,sayari","sayari","n","4","html-keyboard-response","1052","j","mungu","false","",""
"1733","","","","","4","html-slider-response","1053","","","","2",""
"17386","magazine","gundi,mchawi,kiti,bahandi","kiti","j","4","html-keyboard-response","1054","j","kiti","true","",""
"2120.100000023842","","","","","4","html-slider-response","1055","","","","4",""
"7795","office","hazini,leso,yatima,kuna","leso","v","4","html-keyboard-response","1056","f","hazini","false","",""
"1699.5999999046326","","","","","4","html-slider-response","1057","","","","4",""
"6229","wheel","punda,bafuni,tawo,baadaye","bafuni","v","4","html-keyboard-response","1058","n","baadaye","false","",""
"3069.899999976158","","","","","4","html-slider-response","1059","","","","3",""
"5524","spoon","betri,pagsulod,nzuri,ngazi","pagsulod","v","4","html-keyboard-response","1060","n","ngazi","false","",""
"1431.1000000238419","","","","","4","html-slider-response","1061","","","","2",""
"7411","hammer","mekno,napakyas,kitovu,layag","napakyas","v","4","html-keyboard-response","1062","j","kitovu","false","",""
"2000.2999999523163","","","","","4","html-slider-response","1063","","","","4",""
"7885","cigar","ndugu,adhabu,kuta,mlango","adhabu","v","4","html-keyboard-response","1064","v","adhabu","true","",""
"1632.7000000476837","","","","","4","html-slider-response","1065","","","","2",""
"7547","shoe","uyoga,nyeusi,hatua,kama","uyoga","f","4","html-keyboard-response","1066","f","uyoga","true","",""
"2280.5","","","","","4","html-slider-response","1067","","","","4",""
"14828","list","alizeti,kuzama,wingu,kaso","wingu","j","5","html-keyboard-response","1069","f","alizeti","false","",""
"2033.3999999761581","","","","","5","html-slider-response","1070","","","","4",""
"9684","number","shule,kengele,mundamo,choori","mundamo","j","5","html-keyboard-response","1071","j","mundamo","true","",""
"1514","","","","","5","html-slider-response","1072","","","","2",""
"6966","apple","ukame,kisu,estante,edad","kisu","v","5","html-keyboard-response","1073","f","ukame","false","",""
"2001","","","","","5","html-slider-response","1074","","","","2",""
"3716","knee","duka,mvuke,kubale,bili","duka","f","5","html-keyboard-response","1075","n","bili","false","",""
"1935.2000000476837","","","","","5","html-slider-response","1076","","","","2",""
"6446","tooth","kijiko,kabalaka,uadui,pahiyum","kabalaka","v","5","html-keyboard-response","1077","v","kabalaka","true","",""
"5574.900000095367","","","","","5","html-slider-response","1078","","","","3",""
"10022","berry","kofia,abogado,nogozi,kinywa","kofia","f","5","html-keyboard-response","1079","v","abogado","false","",""
"4303.099999904633","","","","","5","html-slider-response","1080","","","","4",""
"4923","bridge","sahani,daima,ngono,panya","sahani","f","5","html-keyboard-response","1081","n","panya","false","",""
"3254.100000023842","","","","","5","html-slider-response","1082","","","","4",""
"12013","perfume","katuyoan,bino,sungura,ndogo","katuyoan","f","5","html-keyboard-response","1083","f","katuyoan","true","",""
"2113.100000023842","","","","","5","html-slider-response","1084","","","","4",""
"9221","ladder","mashua,pangalan,mwanga,kamba","pangalan","v","5","html-keyboard-response","1085","v","pangalan","true","",""
"2430.899999976158","","","","","5","html-slider-response","1086","","","","4",""
"7235","pants","pintal,chuki,haki,hari","haki","j","5","html-keyboard-response","1087","f","pintal","false","",""
"2356.100000023842","","","","","5","html-slider-response","1088","","","","4",""
"5027","salmon","mzungu,sensilyo,seri,baharia","sensilyo","v","5","html-keyboard-response","1089","f","mzungu","false","",""
"2116.2999999523163","","","","","5","html-slider-response","1090","","","","4",""
"10389","coffin","kioo,barua,tubag,hulma","kioo","f","5","html-keyboard-response","1091","n","hulma","false","",""
"1716.2999999523163","","","","","5","html-slider-response","1092","","","","4",""
"5793","park","tambok,pwani,bunifu,ihalas","bunifu","j","5","html-keyboard-response","1093","v","pwani","false","",""
"1648","","","","","5","html-slider-response","1094","","","","2",""
"7248","giraffe","daraja,mahitabo,jumatu,hangyo","mahitabo","v","5","html-keyboard-response","1095","f","daraja","false","",""
"1647.6000000238419","","","","","5","html-slider-response","1096","","","","4",""
"6996","mirror","rangi,sulagma,kanding,furaha","sulagma","v","5","html-keyboard-response","1097","f","rangi","false","",""
"1681","","","","","5","html-slider-response","1098","","","","4",""
"6481","ceiling","kugita,kawaida,rayna,maua","maua","n","5","html-keyboard-response","1099","f","kugita","false","",""
"1444.7999999523163","","","","","5","html-slider-response","1100","","","","4",""
"8855","marker","mapafu,salita,maji,atay","maji","j","5","html-keyboard-response","1101","f","mapafu","false","",""
"2361.5","","","","","5","html-slider-response","1102","","","","4",""
"7431","sock","mamba,ndoora,kimysa,mtirka","mamba","f","5","html-keyboard-response","1103","n","mtirka","false","",""
"1968.3999999761581","","","","","5","html-slider-response","1104","","","","2",""
"8150","cop","bustani,jikoni,mechezo,bakus","mechezo","j","5","html-keyboard-response","1105","n","bakus","false","",""
"3329.9000000953674","","","","","5","html-slider-response","1106","","","","1",""
"6178","gift","baba,nyange,pagtawag,baso","pagtawag","j","5","html-keyboard-response","1107","f","baba","false","",""
"1734.0999999046326","","","","","5","html-slider-response","1108","","","","4",""
"6267","notebook","msitu,kila,kemia,mdudu","kemia","j","5","html-keyboard-response","1109","f","msitu","false","",""
"4451.300000071526","","","","","5","html-slider-response","1110","","","","2",""
"8531","bank","kudhibi,silingan,tualya,ofisi","silingan","v","5","html-keyboard-response","1111","v","silingan","true","",""
"2098","","","","","5","html-slider-response","1112","","","","4",""
"5394","letter","filimbi,chuma,uhuru,kifua","kifua","n","5","html-keyboard-response","1113","v","chuma","false","",""
"1512.7000000476837","","","","","5","html-slider-response","1114","","","","2",""
"8570","candle","gabi,farasi,kupanda,geza","geza","n","5","html-keyboard-response","1115","f","gabi","false","",""
"1579.2000000476837","","","","","5","html-slider-response","1116","","","","4",""
"7468","bread","kaili,dizeli,bugas,dari","dari","n","5","html-keyboard-response","1117","v","dizeli","false","",""
"1530.3000000715256","","","","","5","html-slider-response","1118","","","","2",""
"24329","snake","jansa,pagtukod,karon,mvringo","pagtukod","v","5","html-keyboard-response","1119","v","pagtukod","true","",""
"1967.1999999284744","","","","","5","html-slider-response","1120","","","","4",""
"5594","rose","singizi,mwanake,paghalad,amani","paghalad","j","5","html-keyboard-response","1121","j","paghalad","true","",""
"1448.1999999284744","","","","","5","html-slider-response","1122","","","","2",""
"7297","hill","kushoto,matumbo,kukimba,sweta","matumbo","v","5","html-keyboard-response","1123","v","matumbo","true","",""
"1511.8999999761581","","","","","5","html-slider-response","1124","","","","2",""
"4977","train","sayari,itik,dakika,mungu","sayari","f","5","html-keyboard-response","1125","f","sayari","true","",""
"2164.8000000715256","","","","","5","html-slider-response","1126","","","","4",""
"5176","shop","nopya,kerida,samaki,ndezu","samaki","j","5","html-keyboard-response","1127","j","samaki","true","",""
"1582.3000000715256","","","","","5","html-slider-response","1128","","","","2",""
"6946","nose","sehemu,gubat,kopa,kidole","sehemu","f","5","html-keyboard-response","1129","j","kopa","false","",""
"1499.6000000238419","","","","","5","html-slider-response","1130","","","","2",""
"6440","boat","hamsi,agalon,pombe,kitanda","agalon","v","5","html-keyboard-response","1131","n","kitanda","false","",""
"1607.3000000715256","","","","","5","html-slider-response","1132","","","","4",""
"3927","body","tindashan,nyundu,jibini,kununa","tindashan","f","5","html-keyboard-response","1133","n","kununa","false","",""
"1618.2999999523163","","","","","5","html-slider-response","1134","","","","4",""
"3498","bed","kalipay,haraka,starehe,mapintas","mapintas","n","5","html-keyboard-response","1135","f","kalipay","false","",""
"2119.399999976158","","","","","5","html-slider-response","1136","","","","4",""
"3302","squirrel","hofu,mahugaw,ukweli,kichwa","hofu","f","5","html-keyboard-response","1137","f","hofu","true","",""
"1731.6999999284744","","","","","5","html-slider-response","1138","","","","4",""
"5144","window","nanga,kujenga,umaga,kweli","kweli","n","5","html-keyboard-response","1139","v","kujenga","false","",""
"1347.1999999284744","","","","","5","html-slider-response","1140","","","","2",""
"5748","bonfire","goti,mwezi,mfuko,kusanya","goti","f","5","html-keyboard-response","1141","f","goti","true","",""
"2084.5","","","","","5","html-slider-response","1142","","","","5",""
"5308","fish","buli,bala,baho,imani","buli","f","5","html-keyboard-response","1143","v","bala","false","",""
"1935.1999999284744","","","","","5","html-slider-response","1144","","","","4",""
"4602","cat","neyemba,paghukom,baki,akili","paghukom","v","5","html-keyboard-response","1145","v","paghukom","true","",""
"1496.8000000715256","","","","","5","html-slider-response","1146","","","","4",""
"4807","spider","bunyag,kamwe,mkboa,atop","kamwe","v","5","html-keyboard-response","1147","f","bunyag","false","",""
"2014.8999999761581","","","","","5","html-slider-response","1148","","","","4",""
"3887","eel","msumari,ishara,kunywa,kabuang","msumari","f","5","html-keyboard-response","1149","f","msumari","true","",""
"1383","","","","","5","html-slider-response","1150","","","","2",""
"4253","woman","bandari,bituin,kovuli,pagtabon","pagtabon","n","5","html-keyboard-response","1151","n","pagtabon","true","",""
"1548.8999999761581","","","","","5","html-slider-response","1152","","","","4",""
"3804","magazine","gundi,mchawi,bahandi,kiti","kiti","n","5","html-keyboard-response","1153","j","bahandi","false","",""
"1383.4000000953674","","","","","5","html-slider-response","1154","","","","2",""
"3887","pudding","abug,aibu,mpishi,iring","aibu","v","5","html-keyboard-response","1155","f","abug","false","",""
"2481.0999999046326","","","","","5","html-slider-response","1156","","","","4",""
"4259","lamp","daub,bilaska,afya,mbolea","afya","j","5","html-keyboard-response","1157","f","daub","false","",""
"1464.7999999523163","","","","","5","html-slider-response","1158","","","","4",""
"5052","cave","ganti,kesho,maisha,nyundo","kesho","v","5","html-keyboard-response","1159","n","nyundo","false","",""
"2250.600000023842","","","","","5","html-slider-response","1160","","","","4",""
"5239","shoulder","mkuu,kelele,ndaniya,guruwe","mkuu","f","5","html-keyboard-response","1161","j","ndaniya","false","",""
"2083.100000023842","","","","","5","html-slider-response","1162","","","","4",""
"6097","stone","ulimwengu,mkasi,asili,wingi","wingi","n","5","html-keyboard-response","1163","j","asili","false","",""
"1798.2000000476837","","","","","5","html-slider-response","1164","","","","4",""
"3704","column","pundok,ufagio,dila,pala","ufagio","v","5","html-keyboard-response","1165","f","pundok","false","",""
"1499.3000000715256","","","","","5","html-slider-response","1166","","","","2",""
"4322","page","wakala,ishiri,wimbo,skina","wimbo","j","5","html-keyboard-response","1167","v","ishiri","false","",""
"1828.5999999046326","","","","","5","html-slider-response","1168","","","","4",""
"3990","shoe","nyeusi,hatua,uyoga,kama","uyoga","j","5","html-keyboard-response","1169","f","nyeusi","false","",""
"1368.1000000238419","","","","","5","html-slider-response","1170","","","","2",""
"4369","clock","kartasi,mbwa,abang,osha","mbwa","v","5","html-keyboard-response","1171","f","kartasi","false","",""
"1680.7000000476837","","","","","5","html-slider-response","1172","","","","4",""
"3237","towel","tembo,funzi,pito,pagpalit","pagpalit","n","5","html-keyboard-response","1173","f","tembo","false","",""
"2166.600000023842","","","","","5","html-slider-response","1174","","","","4",""
"8882","tomato","chupi,chupa,takatak,mvua","mvua","n","5","html-keyboard-response","1175","j","takatak","false","",""
"2266.8000000715256","","","","","5","html-slider-response","1176","","","","4",""
"5110","bucket","baga,ijayo,init,kiatu","kiatu","n","5","html-keyboard-response","1177","f","baga","false","",""
"1432.8999999761581","","","","","5","html-slider-response","1178","","","","4",""
"5291","finger","moyo,simu,sufuria,lima","moyo","f","5","html-keyboard-response","1179","f","moyo","true","",""
"1429.3999999761581","","","","","5","html-slider-response","1180","","","","2",""
"3570","mother","babaye,kahawa,mbuzi,jokofu","babaye","f","5","html-keyboard-response","1181","f","babaye","true","",""
"1999.3999999761581","","","","","5","html-slider-response","1182","","","","5",""
"6746","human","tinapay,bado,kikapu,punguza","tinapay","f","5","html-keyboard-response","1183","n","punguza","false","",""
"1482.2000000476837","","","","","5","html-slider-response","1184","","","","4",""
"4627","sun","bendi,luha,basi,uongo","basi","j","5","html-keyboard-response","1185","f","bendi","false","",""
"1727.8999999761581","","","","","5","html-slider-response","1186","","","","4",""
"4120","fork","mgonjwa,baboy,paghago,gorisi","mgonjwa","f","5","html-keyboard-response","1187","j","paghago","false","",""
"1650.1000000238419","","","","","5","html-slider-response","1188","","","","4",""
"5172","donkey","bloke,lalake,elfu,rombus","elfu","j","5","html-keyboard-response","1189","v","lalake","false","",""
"1413.1000000238419","","","","","5","html-slider-response","1190","","","","2",""
"4093","wolf","kaburi,ndizi,mchuzi,lugha","lugha","n","5","html-keyboard-response","1191","j","mchuzi","false","",""
"1931.6000000238419","","","","","5","html-slider-response","1192","","","","4",""
"5673","cigar","ndugu,adhabu,kuta,mlango","adhabu","v","5","html-keyboard-response","1193","n","mlango","false","",""
"1618.5999999046326","","","","","5","html-slider-response","1194","","","","2",""
"4215","olive","jiwe,bata,siagi,welder","jiwe","f","5","html-keyboard-response","1195","n","welder","false","",""
"3524.1999999284744","","","","","5","html-slider-response","1196","","","","2",""
"6291","key","miaka,goma,chombo,ahos","chombo","j","5","html-keyboard-response","1197","n","ahos","false","",""
"1733.6000000238419","","","","","5","html-slider-response","1198","","","","4",""
"3467","door","surali,tena,soko,nyota","surali","f","5","html-keyboard-response","1199","n","nyota","false","",""
"1635.2000000476837","","","","","5","html-slider-response","1200","","","","4",""
"11911","wheel","punda,bafuni,tawo,baadaye","bafuni","v","5","html-keyboard-response","1201","f","punda","false","",""
"1646.6999999284744","","","","","5","html-slider-response","1202","","","","4",""
"6310","basket","kumbuka,utepe,kumba,hasira","kumba","j","5","html-keyboard-response","1203","n","hasira","false","",""
"1465.5","","","","","5","html-slider-response","1204","","","","4",""
"5243","elephant","petye,kito,pagduol,suka","kito","v","5","html-keyboard-response","1205","j","pagduol","false","",""
"1464.1000000238419","","","","","5","html-slider-response","1206","","","","4",""
"4811","office","hazini,yatima,leso,kuna","leso","j","5","html-keyboard-response","1207","j","leso","true","",""
"2229.7999999523163","","","","","5","html-slider-response","1208","","","","4",""
"4885","music","mraba,mageho,tumbo,baiski","baiski","n","5","html-keyboard-response","1209","f","mraba","false","",""
"1784.1000000238419","","","","","5","html-slider-response","1210","","","","2",""
"112845","tissue","ugomvi,lamigas,kisiwa,katika","ugomvi","f","5","html-keyboard-response","1211","v","lamigas","false","",""
"2130.3000000715256","","","","","5","html-slider-response","1212","","","","4",""
"5942","curtain","lisud,bulwawan,mchanga,chubani","mchanga","j","5","html-keyboard-response","1213","j","mchanga","true","",""
"2017","","","","","5","html-slider-response","1214","","","","4",""
"5693","flag","ndege,mkate,kawa,trekta","trekta","n","5","html-keyboard-response","1215","f","ndege","false","",""
"1781","","","","","5","html-slider-response","1216","","","","2",""
"3820","dog","lubi,bahari,washia,kalamu","bahari","v","5","html-keyboard-response","1217","v","bahari","true","",""
"1616.6000000238419","","","","","5","html-slider-response","1218","","","","4",""
"11328","cup","dagat,shimoni,jeraha,matumai","matumai","n","5","html-keyboard-response","1219","n","matumai","true","",""
"1764.8999999761581","","","","","5","html-slider-response","1220","","","","4",""
"5087","sheet","bililhon,juuya,watu,kamantis","bililhon","f","5","html-keyboard-response","1221","n","kamantis","false","",""
"1501.2000000476837","","","","","5","html-slider-response","1222","","","","4",""
"7864","spoon","pagsulod,betri,nzuri,ngazi","pagsulod","f","5","html-keyboard-response","1223","f","pagsulod","true","",""
"1832","","","","","5","html-slider-response","1224","","","","4",""
"7968","flower","tamasha,bega,lobo,usiku","bega","v","5","html-keyboard-response","1225","f","tamasha","false","",""
"1680.0999999046326","","","","","5","html-slider-response","1226","","","","2",""
"4558","picture","silya,kubwa,chaki,asin","kubwa","v","5","html-keyboard-response","1227","f","silya","false","",""
"2114","","","","","5","html-slider-response","1228","","","","4",""
"13451","puppet","napulo,mazishi,lamok,godoro","mazishi","v","5","html-keyboard-response","1229","f","napulo","false","",""
"1644.7999999523163","","","","","5","html-slider-response","1230","","","","4",""
"5929","banana","kazi,kasamok,hagdan,twai","kazi","f","5","html-keyboard-response","1231","v","kasamok","false","",""
"3331","","","","","5","html-slider-response","1232","","","","4",""
"4260","book","mali,kuhesa,picha,mara","mali","f","5","html-keyboard-response","1233","f","mali","true","",""
"2416.3000000715256","","","","","5","html-slider-response","1234","","","","5",""
"6943","triangle","kasadpan,kihozi,bentaha,liog","kasadpan","f","5","html-keyboard-response","1235","f","kasadpan","true","",""
"1603.1999999284744","","","","","5","html-slider-response","1236","","","","4",""
"4504","poster","madungog,nchi,fedha,kasuko","madungog","f","5","html-keyboard-response","1237","f","madungog","true","",""
"1544.6000000238419","","","","","5","html-slider-response","1238","","","","2",""
"7599","box","adui,kuacha,rafiki,kitande","adui","f","5","html-keyboard-response","1239","n","kitande","false","",""
"1763","","","","","5","html-slider-response","1240","","","","4",""
"10303","mosquito","isda,martilyo,taras,gutom","martilyo","v","5","html-keyboard-response","1241","v","martilyo","true","",""
"1551.1000000238419","","","","","5","html-slider-response","1242","","","","4",""
"9355","shelf","pamahaw,bungtod,kadaot,awit","pamahaw","f","5","html-keyboard-response","1243","f","pamahaw","true","",""
"2032.6000000238419","","","","","5","html-slider-response","1244","","","","4",""
"16055","scissors","duga,mtawa,tanuri,suga","tanuri","j","5","html-keyboard-response","1245","f","duga","false","",""
"1597.9000000953674","","","","","5","html-slider-response","1246","","","","4",""
"4609","hammer","mekno,napakyas,kitovu,layag","napakyas","v","5","html-keyboard-response","1247","v","napakyas","true","",""
"1593.1000000238419","","","","","5","html-slider-response","1248","","","","4",""
