"rt","en_word","options","swa_word","correct_answer","phase","trial_type","trial_index","input_answer","input_word","accuracy","certainty","amt_choices"
"5647","bonfire","mwezi,mfuko,goti,kusanya","goti","j","2","html-keyboard-response","106","j","goti","true","",""
"3103.9000000001397","","","","","2","html-slider-response","107","","","","2",""
"7105","flower","tamasha,lobo,usiku,bega","bega","n","2","html-keyboard-response","108","n","bega","true","",""
"3126.1999999999534","","","","","2","html-slider-response","109","","","","1",""
"5859","column","pundok,dila,pala,ufagio","ufagio","n","2","html-keyboard-response","110","j","pala","false","",""
"3174.8000000000466","","","","","2","html-slider-response","111","","","","1",""
"5779","music","mraba,mageho,baiski,tumbo","baiski","j","2","html-keyboard-response","112","n","tumbo","false","",""
"4407.300000000047","","","","","2","html-slider-response","113","","","","2",""
"7121","spider","kamwe,bunyag,mkboa,atop","kamwe","f","2","html-keyboard-response","114","j","mkboa","false","",""
"9305.300000000047","","","","","2","html-slider-response","115","","","","3",""
"6017","fork","baboy,mgonjwa,paghago,gorisi","mgonjwa","v","2","html-keyboard-response","116","v","mgonjwa","true","",""
"3339.9000000001397","","","","","2","html-slider-response","117","","","","1",""
"6114","mosquito","isda,taras,martilyo,gutom","martilyo","j","2","html-keyboard-response","118","j","martilyo","true","",""
"4378.90000000014","","","","","2","html-slider-response","119","","","","4",""
"7351","banana","kasamok,hagdan,twai,kazi","kazi","n","2","html-keyboard-response","120","f","kasamok","false","",""
"3535.100000000093","","","","","2","html-slider-response","121","","","","1",""
"5195","cup","dagat,matumai,shimoni,jeraha","matumai","v","2","html-keyboard-response","122","v","matumai","true","",""
"4708.699999999953","","","","","2","html-slider-response","123","","","","3",""
"4652","shop","samaki,nopya,kerida,ndezu","samaki","f","2","html-keyboard-response","124","f","samaki","true","",""
"4478.59999999986","","","","","2","html-slider-response","125","","","","3",""
"4784","elephant","petye,pagduol,kito,suka","kito","j","2","html-keyboard-response","126","j","kito","true","",""
"4085.7000000001863","","","","","2","html-slider-response","127","","","","5",""
"6511","bucket","baga,ijayo,kiatu,init","kiatu","j","2","html-keyboard-response","128","f","baga","false","",""
"3200.1999999999534","","","","","2","html-slider-response","129","","","","2",""
"5796","book","mali,kuhesa,picha,mara","mali","f","2","html-keyboard-response","130","f","mali","true","",""
"3639.4000000001397","","","","","2","html-slider-response","131","","","","4",""
"4532","mirror","rangi,sulagma,kanding,furaha","sulagma","v","2","html-keyboard-response","132","v","sulagma","true","",""
"3487.6999999999534","","","","","2","html-slider-response","133","","","","1",""
"4971","office","hazini,leso,yatima,kuna","leso","v","2","html-keyboard-response","134","v","leso","true","",""
"3057.5999999998603","","","","","2","html-slider-response","135","","","","4",""
"6366","body","tindashan,nyundu,jibini,kununa","tindashan","f","2","html-keyboard-response","136","f","tindashan","true","",""
"3293.1999999999534","","","","","2","html-slider-response","137","","","","2",""
"24596","perfume","bino,sungura,katuyoan,ndogo","katuyoan","j","2","html-keyboard-response","138","j","katuyoan","true","",""
"3255.8000000000466","","","","","2","html-slider-response","139","","","","1",""
"4852","olive","bata,jiwe,siagi,welder","jiwe","v","2","html-keyboard-response","140","v","jiwe","true","",""
"3020.7000000001863","","","","","2","html-slider-response","141","","","","2",""
"5641","magazine","gundi,kiti,mchawi,bahandi","kiti","v","2","html-keyboard-response","142","j","mchawi","false","",""
"5074.09999999986","","","","","2","html-slider-response","143","","","","3",""
"112294","bread","kaili,dizeli,dari,bugas","dari","j","2","html-keyboard-response","144","n","bugas","false","",""
"4532.90000000014","","","","","2","html-slider-response","145","","","","1",""
"24843","cave","ganti,maisha,kesho,nyundo","kesho","j","2","html-keyboard-response","146","n","nyundo","false","",""
"3185.3000000000466","","","","","2","html-slider-response","147","","","","1",""
"33203","ladder","mashua,mwanga,kamba,pangalan","pangalan","n","2","html-keyboard-response","148","v","mwanga","false","",""
"3058.399999999907","","","","","2","html-slider-response","149","","","","1",""
"31047","human","bado,tinapay,kikapu,punguza","tinapay","v","2","html-keyboard-response","150","v","tinapay","true","",""
"3638.4000000001397","","","","","2","html-slider-response","151","","","","4",""
"72250","clock","kartasi,mbwa,abang,osha","mbwa","v","2","html-keyboard-response","152","v","mbwa","true","",""
"4471.899999999907","","","","","2","html-slider-response","153","","","","3",""
"5236","shelf","bungtod,pamahaw,kadaot,awit","pamahaw","v","2","html-keyboard-response","154","j","kadaot","false","",""
"3174.399999999907","","","","","2","html-slider-response","155","","","","1",""
"27763","salmon","sensilyo,mzungu,seri,baharia","sensilyo","f","2","html-keyboard-response","156","f","sensilyo","true","",""
"3156.2000000001863","","","","","2","html-slider-response","157","","","","4",""
"18725","coffin","barua,tubag,kioo,hulma","kioo","j","2","html-keyboard-response","158","j","kioo","true","",""
"5925.100000000093","","","","","2","html-slider-response","159","","","","3",""
"12720","notebook","msitu,kemia,kila,mdudu","kemia","v","2","html-keyboard-response","160","j","kila","false","",""
"7429.100000000093","","","","","2","html-slider-response","161","","","","2",""
"7565","shoulder","kelele,ndaniya,mkuu,guruwe","mkuu","j","2","html-keyboard-response","162","v","ndaniya","false","",""
"3305.8000000002794","","","","","2","html-slider-response","163","","","","4",""
"6822","park","tambok,bunifu,pwani,ihalas","bunifu","v","2","html-keyboard-response","164","f","tambok","false","",""
"2844.5","","","","","2","html-slider-response","165","","","","2",""
"6910","number","shule,kengele,choori,mundamo","mundamo","n","2","html-keyboard-response","166","j","choori","false","",""
"4147","","","","","2","html-slider-response","167","","","","3",""
"5187","apple","kisu,ukame,estante,edad","kisu","f","2","html-keyboard-response","168","f","kisu","true","",""
"2778.5","","","","","2","html-slider-response","169","","","","4",""
"6791","letter","filimbi,kifua,chuma,uhuru","kifua","v","2","html-keyboard-response","170","v","kifua","true","",""
"3276.399999999907","","","","","2","html-slider-response","171","","","","2",""
"12200","eel","ishara,kunywa,kabuang,msumari","msumari","n","2","html-keyboard-response","172","v","kunywa","false","",""
"3738.399999999907","","","","","2","html-slider-response","173","","","","1",""
"5639","cop","bustani,jikoni,mechezo,bakus","mechezo","j","2","html-keyboard-response","174","j","mechezo","true","",""
"4752.399999999907","","","","","2","html-slider-response","175","","","","3",""
"7834","wolf","kaburi,ndizi,mchuzi,lugha","lugha","n","2","html-keyboard-response","176","j","mchuzi","false","",""
"2643","","","","","2","html-slider-response","177","","","","4",""
"8265","squirrel","hofu,mahugaw,ukweli,kichwa","hofu","f","2","html-keyboard-response","178","v","mahugaw","false","",""
"3718.100000000093","","","","","2","html-slider-response","179","","","","3",""
"4052","nose","sehemu,gubat,kopa,kidole","sehemu","f","2","html-keyboard-response","180","n","kidole","false","",""
"3705.4000000003725","","","","","2","html-slider-response","181","","","","3",""
"5416","sock","ndoora,kimysa,mtirka,mamba","mamba","n","2","html-keyboard-response","182","n","mamba","true","",""
"3577.5","","","","","2","html-slider-response","183","","","","1",""
"7021","bank","kudhibi,tualya,ofisi,silingan","silingan","n","2","html-keyboard-response","184","j","ofisi","false","",""
"2760.100000000093","","","","","2","html-slider-response","185","","","","2",""
"5782","donkey","bloke,lalake,elfu,rombus","elfu","j","2","html-keyboard-response","186","v","lalake","false","",""
"2908.8000000002794","","","","","2","html-slider-response","187","","","","2",""
"5423","poster","nchi,madungog,fedha,kasuko","madungog","v","2","html-keyboard-response","188","v","madungog","true","",""
"4111","","","","","2","html-slider-response","189","","","","3",""
"13137","puppet","napulo,mazishi,lamok,godoro","mazishi","v","2","html-keyboard-response","190","n","godoro","false","",""
"3271.2000000001863","","","","","2","html-slider-response","191","","","","1",""
"16529","hill","kushoto,matumbo,kukimba,sweta","matumbo","v","2","html-keyboard-response","192","v","matumbo","true","",""
"2884","","","","","2","html-slider-response","193","","","","5",""
"7691","tooth","kijiko,kabalaka,uadui,pahiyum","kabalaka","v","2","html-keyboard-response","194","v","kabalaka","true","",""
"3511.1999999997206","","","","","2","html-slider-response","195","","","","1",""
"52646","woman","bandari,bituin,pagtabon,kovuli","pagtabon","j","2","html-keyboard-response","196","f","bandari","false","",""
"3047.6999999997206","","","","","2","html-slider-response","197","","","","4",""
"6747","wheel","punda,bafuni,tawo,baadaye","bafuni","v","2","html-keyboard-response","198","j","tawo","false","",""
"2837.600000000093","","","","","2","html-slider-response","199","","","","2",""
"4325","mother","kahawa,babaye,mbuzi,jokofu","babaye","v","2","html-keyboard-response","200","v","babaye","true","",""
"3333.6999999997206","","","","","2","html-slider-response","201","","","","5",""
"4005","bed","kalipay,haraka,starehe,mapintas","mapintas","n","2","html-keyboard-response","202","f","kalipay","false","",""
"3182.0999999996275","","","","","2","html-slider-response","203","","","","1",""
"10398","key","chombo,miaka,goma,ahos","chombo","f","2","html-keyboard-response","204","f","chombo","true","",""
"3602.100000000093","","","","","2","html-slider-response","205","","","","1",""
"10700","page","wakala,ishiri,wimbo,skina","wimbo","j","2","html-keyboard-response","206","v","ishiri","false","",""
"3015.0999999996275","","","","","2","html-slider-response","207","","","","1",""
"5797","pants","haki,pintal,chuki,hari","haki","f","2","html-keyboard-response","208","j","chuki","false","",""
"3001.2000000001863","","","","","2","html-slider-response","209","","","","5",""
"3083","sun","bendi,basi,luha,uongo","basi","v","2","html-keyboard-response","210","v","basi","true","",""
"3339.2000000001863","","","","","2","html-slider-response","211","","","","2",""
"4810","finger","simu,sufuria,moyo,lima","moyo","j","2","html-keyboard-response","212","n","lima","false","",""
"2702.100000000093","","","","","2","html-slider-response","213","","","","1",""
"35894","shoe","nyeusi,hatua,kama,uyoga","uyoga","n","2","html-keyboard-response","214","j","kama","false","",""
"2757","","","","","2","html-slider-response","215","","","","1",""
"5142","giraffe","daraja,mahitabo,jumatu,hangyo","mahitabo","v","2","html-keyboard-response","216","v","mahitabo","true","",""
"2587.7000000001863","","","","","2","html-slider-response","217","","","","2",""
"3672","dog","lubi,bahari,washia,kalamu","bahari","v","2","html-keyboard-response","218","v","bahari","true","",""
"4596.5","","","","","2","html-slider-response","219","","","","5",""
"3687","box","adui,kuacha,rafiki,kitande","adui","f","2","html-keyboard-response","220","j","rafiki","false","",""
"3592.2000000001863","","","","","2","html-slider-response","221","","","","1",""
"5711","scissors","tanuri,duga,mtawa,suga","tanuri","f","2","html-keyboard-response","222","j","mtawa","false","",""
"3398.7000000001863","","","","","2","html-slider-response","223","","","","3",""
"6102","cat","neyemba,baki,akili,paghukom","paghukom","n","2","html-keyboard-response","224","v","baki","false","",""
"3309.2999999998137","","","","","2","html-slider-response","225","","","","3",""
"15566","basket","kumbuka,utepe,kumba,hasira","kumba","j","2","html-keyboard-response","226","f","kumbuka","false","",""
"3111.7999999998137","","","","","2","html-slider-response","227","","","","1",""
"9717","snake","pagtukod,jansa,karon,mvringo","pagtukod","f","2","html-keyboard-response","228","f","pagtukod","true","",""
"4033.2000000001863","","","","","2","html-slider-response","229","","","","3",""
"62955","gift","baba,nyange,pagtawag,baso","pagtawag","j","2","html-keyboard-response","230","j","pagtawag","true","",""
"2722","","","","","2","html-slider-response","231","","","","2",""
"6597","train","itik,dakika,sayari,mungu","sayari","j","2","html-keyboard-response","232","v","dakika","false","",""
"2736.2000000001863","","","","","2","html-slider-response","233","","","","1",""
"8814","pudding","abug,mpishi,aibu,iring","aibu","j","2","html-keyboard-response","234","v","mpishi","false","",""
"2596.899999999907","","","","","2","html-slider-response","235","","","","2",""
"6821","tomato","mvua,chupi,chupa,takatak","mvua","f","2","html-keyboard-response","236","j","chupa","false","",""
"3439.5","","","","","2","html-slider-response","237","","","","3",""
"6583","stone","ulimwengu,mkasi,wingi,asili","wingi","j","2","html-keyboard-response","238","j","wingi","true","",""
"3142.2999999998137","","","","","2","html-slider-response","239","","","","4",""
"8147","hammer","mekno,napakyas,kitovu,layag","napakyas","v","2","html-keyboard-response","240","j","kitovu","false","",""
"3030.399999999907","","","","","2","html-slider-response","241","","","","2",""
"5396","knee","duka,mvuke,kubale,bili","duka","f","2","html-keyboard-response","242","f","duka","true","",""
"2744.1999999997206","","","","","2","html-slider-response","243","","","","2",""
"6981","ceiling","kugita,kawaida,maua,rayna","maua","j","2","html-keyboard-response","244","f","kugita","false","",""
"3284.2000000001863","","","","","2","html-slider-response","245","","","","1",""
"4783","spoon","betri,nzuri,ngazi,pagsulod","pagsulod","n","2","html-keyboard-response","246","n","pagsulod","true","",""
"2770.600000000093","","","","","2","html-slider-response","247","","","","4",""
"18279","marker","mapafu,salita,atay,maji","maji","n","2","html-keyboard-response","248","v","salita","false","",""
"2924.5","","","","","2","html-slider-response","249","","","","1",""
"94952","candle","gabi,farasi,kupanda,geza","geza","n","2","html-keyboard-response","250","f","gabi","false","",""
"3076.899999999907","","","","","2","html-slider-response","251","","","","1",""
"34655","tissue","ugomvi,lamigas,kisiwa,katika","ugomvi","f","2","html-keyboard-response","252","n","katika","false","",""
"2662","","","","","2","html-slider-response","253","","","","1",""
"25772","bridge","sahani,daima,ngono,panya","sahani","f","2","html-keyboard-response","254","f","sahani","true","",""
"2737.1999999997206","","","","","2","html-slider-response","255","","","","2",""
"6165","berry","kofia,abogado,nogozi,kinywa","kofia","f","2","html-keyboard-response","256","j","nogozi","false","",""
"5005.0999999996275","","","","","2","html-slider-response","257","","","","1",""
"4479","triangle","kihozi,kasadpan,bentaha,liog","kasadpan","v","2","html-keyboard-response","258","j","bentaha","false","",""
"5183.899999999907","","","","","2","html-slider-response","259","","","","2",""
"5144","door","tena,surali,soko,nyota","surali","v","2","html-keyboard-response","260","f","tena","false","",""
"3698","","","","","2","html-slider-response","261","","","","1",""
"3912","fish","bala,buli,baho,imani","buli","v","2","html-keyboard-response","262","v","buli","true","",""
"3692.899999999907","","","","","2","html-slider-response","263","","","","3",""
"35083","curtain","lisud,mchanga,bulwawan,chubani","mchanga","v","2","html-keyboard-response","264","v","mchanga","true","",""
"2804.899999999907","","","","","2","html-slider-response","265","","","","1",""
"21782","flag","trekta,ndege,mkate,kawa","trekta","f","2","html-keyboard-response","266","v","ndege","false","",""
"2989.5","","","","","2","html-slider-response","267","","","","2",""
"25818","boat","hamsi,pombe,agalon,kitanda","agalon","j","2","html-keyboard-response","268","n","kitanda","false","",""
"4614.899999999907","","","","","2","html-slider-response","269","","","","1",""
"5900","rose","singizi,mwanake,paghalad,amani","paghalad","j","2","html-keyboard-response","270","n","amani","false","",""
"2608.7999999998137","","","","","2","html-slider-response","271","","","","2",""
"2801","lamp","afya,daub,bilaska,mbolea","afya","f","2","html-keyboard-response","272","v","daub","false","",""
"2287.3000000002794","","","","","2","html-slider-response","273","","","","2",""
"30271","cigar","ndugu,kuta,adhabu,mlango","adhabu","j","2","html-keyboard-response","274","f","ndugu","false","",""
"2968.3000000002794","","","","","2","html-slider-response","275","","","","1",""
"8881","list","wingu,alizeti,kuzama,kaso","wingu","f","2","html-keyboard-response","276","j","kuzama","false","",""
"2332.5","","","","","2","html-slider-response","277","","","","2",""
"3884","sheet","bililhon,juuya,watu,kamantis","bililhon","f","2","html-keyboard-response","278","n","kamantis","false","",""
"2733.2999999998137","","","","","2","html-slider-response","279","","","","1",""
"5231","picture","silya,chaki,kubwa,asin","kubwa","j","2","html-keyboard-response","280","j","kubwa","true","",""
"3533.7999999998137","","","","","2","html-slider-response","281","","","","3",""
"7287","towel","tembo,pagpalit,funzi,pito","pagpalit","v","2","html-keyboard-response","282","j","funzi","false","",""
"3014.6999999997206","","","","","2","html-slider-response","283","","","","2",""
"7185","window","kweli,nanga,kujenga,umaga","kweli","f","2","html-keyboard-response","284","j","kujenga","false","",""
"3464","","","","","2","html-slider-response","285","","","","1",""
"25555","box","kuacha,rafiki,kitande,adui","adui","n","3","html-keyboard-response","293","v","rafiki","false","","4"
"2833.7999999998137","","","","","3","html-slider-response","294","","","","2",""
"5836","","","","","3","html-keyboard-response","295","","","","",""
"16630","pants","pintal,haki,chuki,hari","haki","v","3","html-keyboard-response","296","v","haki","true","","4"
"4546.299999999814","","","","","3","html-slider-response","297","","","","3",""
"1987","","","","","3","html-keyboard-response","298","","","","",""
"16620","cup","dagat,matumai,shimoni,jeraha","matumai","v","3","html-keyboard-response","299","v","matumai","true","","4"
"4368.200000000186","","","","","3","html-slider-response","300","","","","3",""
"2133","","","","","3","html-keyboard-response","301","","","","",""
"6210","triangle","kihozi,bentaha,liog,kasadpan","kasadpan","n","3","html-keyboard-response","302","j","liog","false","","4"
"2554.4000000003725","","","","","3","html-slider-response","303","","","","4",""
"1478","","","","","3","html-keyboard-response","304","","","","",""
"22523","curtain","lisud,bulwawan,chubani,mchanga","mchanga","n","3","html-keyboard-response","305","v","bulwawan","false","","4"
"4370.600000000093","","","","","3","html-slider-response","306","","","","3",""
"1760","","","","","3","html-keyboard-response","307","","","","",""
"19920","clock","kartasi,abang,mbwa,osha","mbwa","j","3","html-keyboard-response","308","j","mbwa","true","","4"
"3084.100000000093","","","","","3","html-slider-response","309","","","","2",""
"1585","","","","","3","html-keyboard-response","310","","","","",""
"19435","mirror","rangi,kanding,furaha,sulagma","sulagma","n","3","html-keyboard-response","311","n","sulagma","true","","4"
"4351.200000000186","","","","","3","html-slider-response","312","","","","3",""
"1797","","","","","3","html-keyboard-response","313","","","","",""
"3815","coffin","barua,kioo,tubag,hulma","kioo","v","3","html-keyboard-response","314","v","kioo","true","","1"
"3437.600000000093","","","","","3","html-slider-response","315","","","","5",""
"1499","","","","","3","html-keyboard-response","316","","","","",""
"5698","magazine","gundi,kiti,mchawi,bahandi","kiti","v","3","html-keyboard-response","317","j","mchawi","false","","4"
"3398.100000000093","","","","","3","html-slider-response","318","","","","4",""
"1340","","","","","3","html-keyboard-response","319","","","","",""
"2578","column","pundok,dila,ufagio,pala","ufagio","j","3","html-keyboard-response","320","j","ufagio","true","","1"
"2930.7000000001863","","","","","3","html-slider-response","321","","","","5",""
"2607","","","","","3","html-keyboard-response","322","","","","",""
"37371","number","mundamo,shule,kengele,choori","mundamo","f","3","html-keyboard-response","323","n","choori","false","","4"
"2726.399999999907","","","","","3","html-slider-response","324","","","","2",""
"2571","","","","","3","html-keyboard-response","325","","","","",""
"3581","rose","paghalad,singizi,mwanake,amani","paghalad","f","3","html-keyboard-response","326","n","amani","false","","4"
"2697.2000000001863","","","","","3","html-slider-response","327","","","","1",""
"2064","","","","","3","html-keyboard-response","328","","","","",""
"57515","eel","msumari,ishara,kunywa,kabuang","msumari","f","3","html-keyboard-response","329","v","ishara","false","","4"
"3191.5999999996275","","","","","3","html-slider-response","330","","","","1",""
"2215","","","","","3","html-keyboard-response","331","","","","",""
"13821","gift","pagtawag,baba,nyange,baso","pagtawag","f","3","html-keyboard-response","332","f","pagtawag","true","","4"
"3848.7999999998137","","","","","3","html-slider-response","333","","","","3",""
"1722","","","","","3","html-keyboard-response","334","","","","",""
"4592","apple","ukame,estante,kisu,edad","kisu","j","3","html-keyboard-response","335","j","kisu","true","","1"
"3085.399999999907","","","","","3","html-slider-response","336","","","","5",""
"2152","","","","","3","html-keyboard-response","337","","","","",""
"4576","wheel","punda,tawo,bafuni,baadaye","bafuni","j","3","html-keyboard-response","338","j","bafuni","true","","1"
"3118.7000000001863","","","","","3","html-slider-response","339","","","","5",""
"9423","","","","","3","html-keyboard-response","340","","","","",""
"17745","knee","mvuke,kubale,duka,bili","duka","j","3","html-keyboard-response","341","n","bili","false","","4"
"2605.2999999998137","","","","","3","html-slider-response","342","","","","2",""
"7908","","","","","3","html-keyboard-response","343","","","","",""
"3019","basket","kumbuka,utepe,hasira,kumba","kumba","n","3","html-keyboard-response","344","n","kumba","true","","1"
"2888.2999999998137","","","","","3","html-slider-response","345","","","","5",""
"14072","","","","","3","html-keyboard-response","346","","","","",""
"16639","park","tambok,pwani,ihalas,bunifu","bunifu","n","3","html-keyboard-response","347","j","ihalas","false","","4"
"3427.5","","","","","3","html-slider-response","348","","","","2",""
"16796","","","","","3","html-keyboard-response","349","","","","",""
"16842","finger","moyo,simu,sufuria,lima","moyo","f","3","html-keyboard-response","350","j","sufuria","false","","4"
"2582.7999999998137","","","","","3","html-slider-response","351","","","","1",""
"10101","","","","","3","html-keyboard-response","352","","","","",""
"4846","boat","hamsi,agalon,pombe,kitanda","agalon","v","3","html-keyboard-response","353","j","pombe","false","","4"
"3382.8000000002794","","","","","3","html-slider-response","354","","","","3",""
"7847","","","","","3","html-keyboard-response","355","","","","",""
"4542","hill","kushoto,kukimba,matumbo,sweta","matumbo","j","3","html-keyboard-response","356","j","matumbo","true","","4"
"2679.5","","","","","3","html-slider-response","357","","","","4",""
"1549","","","","","3","html-keyboard-response","358","","","","",""
"7580","train","sayari,itik,dakika,mungu","sayari","f","3","html-keyboard-response","359","f","sayari","true","","4"
"2558.8000000002794","","","","","3","html-slider-response","360","","","","2",""
"5328","","","","","3","html-keyboard-response","361","","","","",""
"4512","wolf","kaburi,ndizi,mchuzi,lugha","lugha","n","3","html-keyboard-response","362","n","lugha","true","","4"
"3055.600000000093","","","","","3","html-slider-response","363","","","","5",""
"4815","","","","","3","html-keyboard-response","364","","","","",""
"21253","snake","jansa,karon,mvringo,pagtukod","pagtukod","n","3","html-keyboard-response","365","j","mvringo","false","","4"
"2670.2000000001863","","","","","3","html-slider-response","366","","","","2",""
"7202","","","","","3","html-keyboard-response","367","","","","",""
"5442","tooth","kijiko,uadui,pahiyum,kabalaka","kabalaka","n","3","html-keyboard-response","368","n","kabalaka","true","","4"
"4215.699999999721","","","","","3","html-slider-response","369","","","","3",""
"5696","","","","","3","html-keyboard-response","370","","","","",""
"21579","notebook","msitu,kila,mdudu,kemia","kemia","n","3","html-keyboard-response","371","j","mdudu","false","","4"
"2544.100000000093","","","","","3","html-slider-response","372","","","","2",""
"6601","","","","","3","html-keyboard-response","373","","","","",""
"3652","flag","ndege,mkate,trekta,kawa","trekta","j","3","html-keyboard-response","374","n","kawa","false","","4"
"2744.2000000001863","","","","","3","html-slider-response","375","","","","4",""
"4888","","","","","3","html-keyboard-response","376","","","","",""
"8149","squirrel","mahugaw,ukweli,hofu,kichwa","hofu","j","3","html-keyboard-response","377","n","kichwa","false","","4"
"2509.8000000002794","","","","","3","html-slider-response","378","","","","1",""
"4572","","","","","3","html-keyboard-response","379","","","","",""
"18262","door","tena,soko,surali,nyota","surali","j","3","html-keyboard-response","380","j","surali","true","","4"
"2683.399999999907","","","","","3","html-slider-response","381","","","","2",""
"7128","","","","","3","html-keyboard-response","382","","","","",""
"6103","salmon","mzungu,seri,baharia,sensilyo","sensilyo","n","3","html-keyboard-response","383","n","sensilyo","true","","4"
"2770","","","","","3","html-slider-response","384","","","","4",""
"4894","","","","","3","html-keyboard-response","385","","","","",""
"6233","shoulder","kelele,mkuu,ndaniya,guruwe","mkuu","v","3","html-keyboard-response","386","n","guruwe","false","","4"
"3722.2999999998137","","","","","3","html-slider-response","387","","","","3",""
"4310","","","","","3","html-keyboard-response","388","","","","",""
"5864","lamp","daub,bilaska,mbolea,afya","afya","n","3","html-keyboard-response","389","v","bilaska","false","","4"
"2863.7000000001863","","","","","3","html-slider-response","390","","","","2",""
"4345","","","","","3","html-keyboard-response","391","","","","",""
"2956","shelf","pamahaw,bungtod,kadaot,awit","pamahaw","f","3","html-keyboard-response","392","f","pamahaw","true","","1"
"3093.5","","","","","3","html-slider-response","393","","","","5",""
"4686","","","","","3","html-keyboard-response","394","","","","",""
"3838","human","bado,tinapay,kikapu,punguza","tinapay","v","3","html-keyboard-response","395","v","tinapay","true","","4"
"2689.2000000001863","","","","","3","html-slider-response","396","","","","5",""
"4764","","","","","3","html-keyboard-response","397","","","","",""
"24634","towel","tembo,funzi,pagpalit,pito","pagpalit","j","3","html-keyboard-response","398","f","tembo","false","","4"
"2462.5","","","","","3","html-slider-response","399","","","","2",""
"7614","","","","","3","html-keyboard-response","400","","","","",""
"20904","cat","neyemba,paghukom,baki,akili","paghukom","v","3","html-keyboard-response","401","f","neyemba","false","","4"
"2802.3000000002794","","","","","3","html-slider-response","402","","","","2",""
"8219","","","","","3","html-keyboard-response","403","","","","",""
"17872","spider","bunyag,kamwe,mkboa,atop","kamwe","v","3","html-keyboard-response","404","j","mkboa","false","","4"
"2935.7000000001863","","","","","3","html-slider-response","405","","","","1",""
"6244","","","","","3","html-keyboard-response","406","","","","",""
"3955","window","nanga,kweli,kujenga,umaga","kweli","v","3","html-keyboard-response","407","n","umaga","false","","4"
"3316.5","","","","","3","html-slider-response","408","","","","3",""
"4243","","","","","3","html-keyboard-response","409","","","","",""
"3069","woman","bandari,bituin,kovuli,pagtabon","pagtabon","n","3","html-keyboard-response","410","n","pagtabon","true","","1"
"2874.8000000002794","","","","","3","html-slider-response","411","","","","5",""
"3959","","","","","3","html-keyboard-response","412","","","","",""
"4815","giraffe","daraja,jumatu,hangyo,mahitabo","mahitabo","n","3","html-keyboard-response","413","n","mahitabo","true","","4"
"3552.5","","","","","3","html-slider-response","414","","","","2",""
"3995","","","","","3","html-keyboard-response","415","","","","",""
"4421","elephant","kito,petye,pagduol,suka","kito","f","3","html-keyboard-response","416","n","suka","false","","4"
"4459","","","","","3","html-slider-response","417","","","","3",""
"4914","","","","","3","html-keyboard-response","418","","","","",""
"3534","cave","kesho,ganti,maisha,nyundo","kesho","f","3","html-keyboard-response","419","n","nyundo","false","","4"
"2743.2000000001863","","","","","3","html-slider-response","420","","","","1",""
"4424","","","","","3","html-keyboard-response","421","","","","",""
"5313","bread","kaili,dari,dizeli,bugas","dari","v","3","html-keyboard-response","422","v","dari","true","","4"
"2642.7999999998137","","","","","3","html-slider-response","423","","","","2",""
"4486","","","","","3","html-keyboard-response","424","","","","",""
"6210","stone","ulimwengu,mkasi,asili,wingi","wingi","n","3","html-keyboard-response","425","n","wingi","true","","4"
"3700.5999999996275","","","","","3","html-slider-response","426","","","","3",""
"4101","","","","","3","html-keyboard-response","427","","","","",""
"3446","donkey","bloke,lalake,elfu,rombus","elfu","j","3","html-keyboard-response","428","v","lalake","false","","4"
"2515.600000000559","","","","","3","html-slider-response","429","","","","2",""
"21635","","","","","3","html-keyboard-response","430","","","","",""
"8575","bridge","daima,sahani,ngono,panya","sahani","v","3","html-keyboard-response","431","f","daima","false","","4"
"2916.2999999998137","","","","","3","html-slider-response","432","","","","2",""
"4731","","","","","3","html-keyboard-response","433","","","","",""
"5275","bonfire","mwezi,mfuko,goti,kusanya","goti","j","3","html-keyboard-response","434","j","goti","true","","4"
"3671.2999999998137","","","","","3","html-slider-response","435","","","","3",""
"4454","","","","","3","html-keyboard-response","436","","","","",""
"3196","book","kuhesa,picha,mara,mali","mali","n","3","html-keyboard-response","437","v","picha","false","","4"
"2912.7999999998137","","","","","3","html-slider-response","438","","","","2",""
"4116","","","","","3","html-keyboard-response","439","","","","",""
"5379","fish","bala,buli,baho,imani","buli","v","3","html-keyboard-response","440","v","buli","true","","4"
"3061.5999999996275","","","","","3","html-slider-response","441","","","","1",""
"5792","","","","","3","html-keyboard-response","442","","","","",""
"4094","spoon","betri,pagsulod,nzuri,ngazi","pagsulod","v","3","html-keyboard-response","443","v","pagsulod","true","","4"
"6851.799999999814","","","","","3","html-slider-response","444","","","","3",""
"4660","","","","","3","html-keyboard-response","445","","","","",""
"5222","scissors","duga,mtawa,tanuri,suga","tanuri","j","3","html-keyboard-response","446","j","tanuri","true","","4"
"2721.4000000003725","","","","","3","html-slider-response","447","","","","2",""
"4088","","","","","3","html-keyboard-response","448","","","","",""
"4651","page","wakala,ishiri,wimbo,skina","wimbo","j","3","html-keyboard-response","449","v","ishiri","false","","4"
"3454.7000000001863","","","","","3","html-slider-response","450","","","","3",""
"4404","","","","","3","html-keyboard-response","451","","","","",""
"2448","nose","gubat,kopa,kidole,sehemu","sehemu","n","3","html-keyboard-response","452","n","sehemu","true","","1"
"2971.600000000559","","","","","3","html-slider-response","453","","","","5",""
"4788","","","","","3","html-keyboard-response","454","","","","",""
"9340","ceiling","kugita,maua,kawaida,rayna","maua","v","3","html-keyboard-response","455","f","kugita","false","","4"
"3800.2000000001863","","","","","3","html-slider-response","456","","","","3",""
"5004","","","","","3","html-keyboard-response","457","","","","",""
"4879","bucket","kiatu,baga,ijayo,init","kiatu","f","3","html-keyboard-response","458","v","baga","false","","4"
"2620.2999999998137","","","","","3","html-slider-response","459","","","","4",""
"4486","","","","","3","html-keyboard-response","460","","","","",""
"3159","berry","abogado,kofia,nogozi,kinywa","kofia","v","3","html-keyboard-response","461","v","kofia","true","","1"
"2718.9000000003725","","","","","3","html-slider-response","462","","","","5",""
"4245","","","","","3","html-keyboard-response","463","","","","",""
"2328","mother","babaye,kahawa,mbuzi,jokofu","babaye","f","3","html-keyboard-response","464","f","babaye","true","","1"
"2691.9000000003725","","","","","3","html-slider-response","465","","","","5",""
"3966","","","","","3","html-keyboard-response","466","","","","",""
"6019","mosquito","isda,martilyo,taras,gutom","martilyo","v","3","html-keyboard-response","467","v","martilyo","true","","4"
"3591.5","","","","","3","html-slider-response","468","","","","5",""
"4082","","","","","3","html-keyboard-response","469","","","","",""
"8452","perfume","bino,sungura,ndogo,katuyoan","katuyoan","n","3","html-keyboard-response","470","j","ndogo","false","","4"
"2904.2000000001863","","","","","3","html-slider-response","471","","","","1",""
"5064","","","","","3","html-keyboard-response","472","","","","",""
"7599","sheet","bililhon,juuya,watu,kamantis","bililhon","f","3","html-keyboard-response","473","n","kamantis","false","","4"
"2788.699999999255","","","","","3","html-slider-response","474","","","","1",""
"4084","","","","","3","html-keyboard-response","475","","","","",""
"1997","puppet","napulo,lamok,mazishi,godoro","mazishi","j","3","html-keyboard-response","476","j","mazishi","true","","1"
"2915","","","","","3","html-slider-response","477","","","","5",""
"20177","","","","","3","html-keyboard-response","478","","","","",""
"4058","poster","nchi,madungog,fedha,kasuko","madungog","v","3","html-keyboard-response","479","v","madungog","true","","4"
"3033.7999999998137","","","","","3","html-slider-response","480","","","","2",""
"6025","","","","","3","html-keyboard-response","481","","","","",""
"5741","music","mraba,baiski,mageho,tumbo","baiski","v","3","html-keyboard-response","482","n","tumbo","false","","4"
"2500","","","","","3","html-slider-response","483","","","","1",""
"4643","","","","","3","html-keyboard-response","484","","","","",""
"3472","key","miaka,chombo,goma,ahos","chombo","v","3","html-keyboard-response","485","v","chombo","true","","4"
"2794.899999999441","","","","","3","html-slider-response","486","","","","2",""
"8567","","","","","3","html-keyboard-response","487","","","","",""
"4490","sock","ndoora,kimysa,mamba,mtirka","mamba","j","3","html-keyboard-response","488","j","mamba","true","","4"
"3880.100000000559","","","","","3","html-slider-response","489","","","","1",""
"4879","","","","","3","html-keyboard-response","490","","","","",""
"5198","marker","mapafu,salita,atay,maji","maji","n","3","html-keyboard-response","491","v","salita","false","","4"
"3783.7999999998137","","","","","3","html-slider-response","492","","","","3",""
"4709","","","","","3","html-keyboard-response","493","","","","",""
"6823","office","hazini,yatima,kuna,leso","leso","n","3","html-keyboard-response","494","n","leso","true","","4"
"4011.899999999441","","","","","3","html-slider-response","495","","","","5",""
"3581","","","","","3","html-keyboard-response","496","","","","",""
"4218","shoe","nyeusi,uyoga,hatua,kama","uyoga","v","3","html-keyboard-response","497","v","uyoga","true","","4"
"3650.7000000001863","","","","","3","html-slider-response","498","","","","2",""
"3279","","","","","3","html-keyboard-response","499","","","","",""
"4198","cop","mechezo,bustani,jikoni,bakus","mechezo","f","3","html-keyboard-response","500","f","mechezo","true","","4"
"4931.5999999996275","","","","","3","html-slider-response","501","","","","3",""
"2909","","","","","3","html-keyboard-response","502","","","","",""
"4745","bank","kudhibi,tualya,ofisi,silingan","silingan","n","3","html-keyboard-response","503","j","ofisi","false","","4"
"3688.899999999441","","","","","3","html-slider-response","504","","","","4",""
"3564","","","","","3","html-keyboard-response","505","","","","",""
"2304","letter","kifua,filimbi,chuma,uhuru","kifua","f","3","html-keyboard-response","506","f","kifua","true","","1"
"3806.7999999998137","","","","","3","html-slider-response","507","","","","5",""
"3280","","","","","3","html-keyboard-response","508","","","","",""
"2425","dog","lubi,bahari,washia,kalamu","bahari","v","3","html-keyboard-response","509","v","bahari","true","","1"
"3372.4000000003725","","","","","3","html-slider-response","510","","","","5",""
"2999","","","","","3","html-keyboard-response","511","","","","",""
"3468","shop","nopya,kerida,samaki,ndezu","samaki","j","3","html-keyboard-response","512","j","samaki","true","","4"
"2959.2999999998137","","","","","3","html-slider-response","513","","","","2",""
"3182","","","","","3","html-keyboard-response","514","","","","",""
"5871","flower","tamasha,bega,lobo,usiku","bega","v","3","html-keyboard-response","515","f","tamasha","false","","4"
"3070","","","","","3","html-slider-response","516","","","","2",""
"2547","","","","","3","html-keyboard-response","517","","","","",""
"2004","cigar","ndugu,kuta,mlango,adhabu","adhabu","n","3","html-keyboard-response","518","n","adhabu","true","","1"
"3256.2000000001863","","","","","3","html-slider-response","519","","","","5",""
"2839","","","","","3","html-keyboard-response","520","","","","",""
"4487","hammer","mekno,kitovu,napakyas,layag","napakyas","j","3","html-keyboard-response","521","v","kitovu","false","","4"
"3646.5999999996275","","","","","3","html-slider-response","522","","","","1",""
"3374","","","","","3","html-keyboard-response","523","","","","",""
"5997","fork","mgonjwa,baboy,paghago,gorisi","mgonjwa","f","3","html-keyboard-response","524","j","paghago","false","","4"
"4567","","","","","3","html-slider-response","525","","","","2",""
"3252","","","","","3","html-keyboard-response","526","","","","",""
"2251","sun","basi,bendi,luha,uongo","basi","f","3","html-keyboard-response","527","f","basi","true","","1"
"3970.9000000003725","","","","","3","html-slider-response","528","","","","5",""
"4161","","","","","3","html-keyboard-response","529","","","","",""
"18188","ladder","mashua,mwanga,kamba,pangalan","pangalan","n","3","html-keyboard-response","530","n","pangalan","true","","4"
"3380.0999999996275","","","","","3","html-slider-response","531","","","","4",""
"3776","","","","","3","html-keyboard-response","532","","","","",""
"1839","banana","kazi,kasamok,hagdan,twai","kazi","f","3","html-keyboard-response","533","f","kazi","true","","1"
"3751","","","","","3","html-slider-response","534","","","","5",""
"3768","","","","","3","html-keyboard-response","535","","","","",""
"5229","pudding","abug,aibu,mpishi,iring","aibu","v","3","html-keyboard-response","536","f","abug","false","","4"
"2885.2999999998137","","","","","3","html-slider-response","537","","","","1",""
"2830","","","","","3","html-keyboard-response","538","","","","",""
"6185","body","nyundu,tindashan,jibini,kununa","tindashan","v","3","html-keyboard-response","539","v","tindashan","true","","4"
"3680.0999999996275","","","","","3","html-slider-response","540","","","","2",""
"3703","","","","","3","html-keyboard-response","541","","","","",""
"4330","bed","kalipay,haraka,mapintas,starehe","mapintas","j","3","html-keyboard-response","542","f","kalipay","false","","4"
"4908.4000000003725","","","","","3","html-slider-response","543","","","","2",""
"2888","","","","","3","html-keyboard-response","544","","","","",""
"6796","tissue","lamigas,ugomvi,kisiwa,katika","ugomvi","v","3","html-keyboard-response","545","n","katika","false","","4"
"2873","","","","","3","html-slider-response","546","","","","1",""
"2510","","","","","3","html-keyboard-response","547","","","","",""
"5027","candle","geza,gabi,farasi,kupanda","geza","f","3","html-keyboard-response","548","j","farasi","false","","4"
"4632.9000000003725","","","","","3","html-slider-response","549","","","","3",""
"2567","","","","","3","html-keyboard-response","550","","","","",""
"1722","tomato","chupi,mvua,chupa,takatak","mvua","v","3","html-keyboard-response","551","v","mvua","true","","1"
"3824.4000000003725","","","","","3","html-slider-response","552","","","","5",""
"3082","","","","","3","html-keyboard-response","553","","","","",""
"11521","list","alizeti,kuzama,kaso,wingu","wingu","n","3","html-keyboard-response","554","n","wingu","true","","4"
"3731","","","","","3","html-slider-response","555","","","","2",""
"3046","","","","","3","html-keyboard-response","556","","","","",""
"4705","olive","bata,siagi,jiwe,welder","jiwe","j","3","html-keyboard-response","557","n","welder","false","","4"
"5300.200000000186","","","","","3","html-slider-response","558","","","","3",""
"2939","","","","","3","html-keyboard-response","559","","","","",""
"2730","picture","silya,chaki,kubwa,asin","kubwa","j","3","html-keyboard-response","560","j","kubwa","true","","1"
"3302.5","","","","","3","html-slider-response","561","","","","5",""
"2826","","","","","3","html-keyboard-response","562","","","","",""
"37450","page","wakala,wimbo,ishiri,skina","wimbo","v","4","html-keyboard-response","888","j","ishiri","false","",""
"3238.699999999255","","","","","4","html-slider-response","889","","","","4",""
"14102","sheet","bililhon,juuya,watu,kamantis","bililhon","f","4","html-keyboard-response","890","n","kamantis","false","",""
"3051.5","","","","","4","html-slider-response","891","","","","2",""
"14695","ladder","mashua,pangalan,mwanga,kamba","pangalan","v","4","html-keyboard-response","892","v","pangalan","true","",""
"3928","","","","","4","html-slider-response","893","","","","3",""
"25546","door","tena,surali,soko,nyota","surali","v","4","html-keyboard-response","894","v","surali","true","",""
"2866.9000000003725","","","","","4","html-slider-response","895","","","","1",""
"5137","spider","bunyag,mkboa,kamwe,atop","kamwe","j","4","html-keyboard-response","896","v","mkboa","false","",""
"2617.2999999998137","","","","","4","html-slider-response","897","","","","4",""
"3085","picture","silya,kubwa,chaki,asin","kubwa","v","4","html-keyboard-response","898","v","kubwa","true","",""
"3279.7000000001863","","","","","4","html-slider-response","899","","","","5",""
"3478","boat","hamsi,pombe,agalon,kitanda","agalon","j","4","html-keyboard-response","900","j","agalon","true","",""
"2638.399999999441","","","","","4","html-slider-response","901","","","","4",""
"3727","donkey","bloke,lalake,rombus,elfu","elfu","n","4","html-keyboard-response","902","n","elfu","true","",""
"2844.2000000001863","","","","","4","html-slider-response","903","","","","4",""
"38464","book","mali,kuhesa,picha,mara","mali","f","4","html-keyboard-response","904","j","picha","false","",""
"3497.7999999998137","","","","","4","html-slider-response","905","","","","2",""
"23783","cup","matumai,dagat,shimoni,jeraha","matumai","f","4","html-keyboard-response","906","j","shimoni","false","",""
"2840.7999999998137","","","","","4","html-slider-response","907","","","","1",""
"3126","sun","bendi,basi,luha,uongo","basi","v","4","html-keyboard-response","908","v","basi","true","",""
"4326.399999999441","","","","","4","html-slider-response","909","","","","4",""
"35720","pudding","abug,mpishi,aibu,iring","aibu","j","4","html-keyboard-response","910","n","iring","false","",""
"3085.100000000559","","","","","4","html-slider-response","911","","","","1",""
"3257","human","bado,tinapay,kikapu,punguza","tinapay","v","4","html-keyboard-response","912","v","tinapay","true","",""
"3168.0999999996275","","","","","4","html-slider-response","913","","","","5",""
"3872","squirrel","hofu,mahugaw,ukweli,kichwa","hofu","f","4","html-keyboard-response","914","n","kichwa","false","",""
"4028.399999999441","","","","","4","html-slider-response","915","","","","3",""
"7268","park","tambok,pwani,bunifu,ihalas","bunifu","j","4","html-keyboard-response","916","v","pwani","false","",""
"3784.300000000745","","","","","4","html-slider-response","917","","","","2",""
"4128","poster","nchi,madungog,fedha,kasuko","madungog","v","4","html-keyboard-response","918","v","madungog","true","",""
"2844.2000000001863","","","","","4","html-slider-response","919","","","","4",""
"3812","wolf","kaburi,ndizi,lugha,mchuzi","lugha","j","4","html-keyboard-response","920","j","lugha","true","",""
"3112.899999999441","","","","","4","html-slider-response","921","","","","5",""
"4167","cat","neyemba,baki,paghukom,akili","paghukom","j","4","html-keyboard-response","922","v","baki","false","",""
"2773.899999999441","","","","","4","html-slider-response","923","","","","4",""
"41932","fish","buli,bala,baho,imani","buli","f","4","html-keyboard-response","924","f","buli","true","",""
"2787.199999999255","","","","","4","html-slider-response","925","","","","5",""
"4371","tooth","kabalaka,kijiko,uadui,pahiyum","kabalaka","f","4","html-keyboard-response","926","f","kabalaka","true","",""
"3560.0999999996275","","","","","4","html-slider-response","927","","","","3",""
"3043","cave","ganti,maisha,nyundo,kesho","kesho","n","4","html-keyboard-response","928","n","kesho","true","",""
"3465.4000000003725","","","","","4","html-slider-response","929","","","","5",""
"5707","lamp","daub,afya,bilaska,mbolea","afya","v","4","html-keyboard-response","930","j","bilaska","false","",""
"3002.7000000001863","","","","","4","html-slider-response","931","","","","1",""
"69857","banana","kasamok,hagdan,kazi,twai","kazi","j","4","html-keyboard-response","932","f","kasamok","false","",""
"3818.4000000003725","","","","","4","html-slider-response","933","","","","3",""
"15166","bonfire","goti,mwezi,mfuko,kusanya","goti","f","4","html-keyboard-response","934","f","goti","true","",""
"4505.4000000003725","","","","","4","html-slider-response","935","","","","5",""
"20235","cop","mechezo,bustani,jikoni,bakus","mechezo","f","4","html-keyboard-response","936","f","mechezo","true","",""
"4742.100000000559","","","","","4","html-slider-response","937","","","","5",""
"12330","marker","mapafu,salita,atay,maji","maji","n","4","html-keyboard-response","938","v","salita","false","",""
"2991.800000000745","","","","","4","html-slider-response","939","","","","2",""
"21938","window","kweli,nanga,kujenga,umaga","kweli","f","4","html-keyboard-response","940","j","kujenga","false","",""
"2706.0999999996275","","","","","4","html-slider-response","941","","","","2",""
"49932","body","nyundu,tindashan,jibini,kununa","tindashan","v","4","html-keyboard-response","942","v","tindashan","true","",""
"3204.199999999255","","","","","4","html-slider-response","943","","","","1",""
"3205","apple","ukame,estante,kisu,edad","kisu","j","4","html-keyboard-response","944","j","kisu","true","",""
"2911.2000000001863","","","","","4","html-slider-response","945","","","","5",""
"10447","salmon","sensilyo,mzungu,seri,baharia","sensilyo","f","4","html-keyboard-response","946","f","sensilyo","true","",""
"2803","","","","","4","html-slider-response","947","","","","4",""
"3340","bed","kalipay,mapintas,haraka,starehe","mapintas","v","4","html-keyboard-response","948","v","mapintas","true","",""
"3888.7000000001863","","","","","4","html-slider-response","949","","","","5",""
"37207","berry","abogado,nogozi,kinywa,kofia","kofia","n","4","html-keyboard-response","950","n","kofia","true","",""
"2862.7000000001863","","","","","4","html-slider-response","951","","","","5",""
"13897","mirror","rangi,kanding,furaha,sulagma","sulagma","n","4","html-keyboard-response","952","n","sulagma","true","",""
"2930","","","","","4","html-slider-response","953","","","","1",""
"3510","flag","ndege,mkate,kawa,trekta","trekta","n","4","html-keyboard-response","954","n","trekta","true","",""
"3516.600000000559","","","","","4","html-slider-response","955","","","","5",""
"4122","shoulder","kelele,mkuu,ndaniya,guruwe","mkuu","v","4","html-keyboard-response","956","v","mkuu","true","",""
"2811.600000000559","","","","","4","html-slider-response","957","","","","4",""
"7402","tissue","lamigas,kisiwa,katika,ugomvi","ugomvi","n","4","html-keyboard-response","958","n","ugomvi","true","",""
"3126.0999999996275","","","","","4","html-slider-response","959","","","","2",""
"24081","notebook","msitu,kemia,kila,mdudu","kemia","v","4","html-keyboard-response","960","v","kemia","true","",""
"2633","","","","","4","html-slider-response","961","","","","4",""
"3561","snake","pagtukod,jansa,karon,mvringo","pagtukod","f","4","html-keyboard-response","962","f","pagtukod","true","",""
"2815.5999999996275","","","","","4","html-slider-response","963","","","","5",""
"5724","finger","simu,moyo,sufuria,lima","moyo","v","4","html-keyboard-response","964","n","lima","false","",""
"2823.4000000003725","","","","","4","html-slider-response","965","","","","2",""
"5661","basket","kumbuka,utepe,hasira,kumba","kumba","n","4","html-keyboard-response","966","j","hasira","false","",""
"3195.5","","","","","4","html-slider-response","967","","","","1",""
"3670","curtain","lisud,bulwawan,mchanga,chubani","mchanga","j","4","html-keyboard-response","968","v","bulwawan","false","",""
"3577.0999999996275","","","","","4","html-slider-response","969","","","","3",""
"8385","perfume","bino,sungura,ndogo,katuyoan","katuyoan","n","4","html-keyboard-response","970","j","ndogo","false","",""
"3037.5","","","","","4","html-slider-response","971","","","","2",""
"5663","key","miaka,chombo,goma,ahos","chombo","v","4","html-keyboard-response","972","f","miaka","false","",""
"2936.7000000001863","","","","","4","html-slider-response","973","","","","1",""
"4263","olive","bata,siagi,welder,jiwe","jiwe","n","4","html-keyboard-response","974","n","jiwe","true","",""
"2429.0999999996275","","","","","4","html-slider-response","975","","","","2",""
"5362","rose","singizi,paghalad,mwanake,amani","paghalad","v","4","html-keyboard-response","976","n","amani","false","",""
"2759.699999999255","","","","","4","html-slider-response","977","","","","1",""
"5304","bridge","sahani,daima,ngono,panya","sahani","f","4","html-keyboard-response","978","j","ngono","false","",""
"2740.2000000001863","","","","","4","html-slider-response","979","","","","2",""
"2456","hill","matumbo,kushoto,kukimba,sweta","matumbo","f","4","html-keyboard-response","980","f","matumbo","true","",""
"2715.5","","","","","4","html-slider-response","981","","","","5",""
"4121","letter","kifua,filimbi,chuma,uhuru","kifua","f","4","html-keyboard-response","982","f","kifua","true","",""
"2641.5","","","","","4","html-slider-response","983","","","","1",""
"3218","sock","mamba,ndoora,kimysa,mtirka","mamba","f","4","html-keyboard-response","984","f","mamba","true","",""
"2632.4000000003725","","","","","4","html-slider-response","985","","","","5",""
"9437","fork","baboy,mgonjwa,paghago,gorisi","mgonjwa","v","4","html-keyboard-response","986","j","paghago","false","",""
"3034.0999999996275","","","","","4","html-slider-response","987","","","","3",""
"3208","box","kuacha,rafiki,adui,kitande","adui","j","4","html-keyboard-response","988","v","rafiki","false","",""
"2558.2999999998137","","","","","4","html-slider-response","989","","","","1",""
"4321","gift","baba,nyange,baso,pagtawag","pagtawag","n","4","html-keyboard-response","990","n","pagtawag","true","",""
"2958.5999999996275","","","","","4","html-slider-response","991","","","","4",""
"6403","bucket","kiatu,baga,ijayo,init","kiatu","f","4","html-keyboard-response","992","v","baga","false","",""
"2478.2000000001863","","","","","4","html-slider-response","993","","","","2",""
"3557","shop","nopya,kerida,samaki,ndezu","samaki","j","4","html-keyboard-response","994","j","samaki","true","",""
"3219","","","","","4","html-slider-response","995","","","","3",""
"6850","puppet","napulo,lamok,godoro,mazishi","mazishi","n","4","html-keyboard-response","996","j","godoro","false","",""
"2600.5999999996275","","","","","4","html-slider-response","997","","","","1",""
"3987","nose","gubat,kopa,kidole,sehemu","sehemu","n","4","html-keyboard-response","998","n","sehemu","true","",""
"3322.5999999996275","","","","","4","html-slider-response","999","","","","4",""
"2948","music","mraba,mageho,baiski,tumbo","baiski","j","4","html-keyboard-response","1000","j","baiski","true","",""
"2423.4000000003725","","","","","4","html-slider-response","1001","","","","5",""
"2850","dog","lubi,washia,kalamu,bahari","bahari","n","4","html-keyboard-response","1002","n","bahari","true","",""
"2769","","","","","4","html-slider-response","1003","","","","5",""
"55755","eel","ishara,kunywa,kabuang,msumari","msumari","n","4","html-keyboard-response","1004","n","msumari","true","",""
"3171","","","","","4","html-slider-response","1005","","","","1",""
"2549","number","shule,kengele,mundamo,choori","mundamo","j","4","html-keyboard-response","1006","j","mundamo","true","",""
"2894.5","","","","","4","html-slider-response","1007","","","","5",""
"5782","tomato","chupi,chupa,takatak,mvua","mvua","n","4","html-keyboard-response","1008","j","takatak","false","",""
"3197.5999999996275","","","","","4","html-slider-response","1009","","","","2",""
"4711","coffin","kioo,barua,tubag,hulma","kioo","f","4","html-keyboard-response","1010","f","kioo","true","",""
"2779.0999999996275","","","","","4","html-slider-response","1011","","","","4",""
"8165","knee","mvuke,kubale,bili,duka","duka","n","4","html-keyboard-response","1012","n","duka","true","",""
"2783.5","","","","","4","html-slider-response","1013","","","","1",""
"8667","woman","bandari,pagtabon,bituin,kovuli","pagtabon","v","4","html-keyboard-response","1014","v","pagtabon","true","",""
"3278.5","","","","","4","html-slider-response","1015","","","","5",""
"4072","stone","ulimwengu,wingi,mkasi,asili","wingi","v","4","html-keyboard-response","1016","v","wingi","true","",""
"6924","","","","","4","html-slider-response","1017","","","","4",""
"5281","bread","kaili,dizeli,bugas,dari","dari","n","4","html-keyboard-response","1018","f","kaili","false","",""
"2683.100000000559","","","","","4","html-slider-response","1019","","","","1",""
"4065","triangle","kihozi,bentaha,liog,kasadpan","kasadpan","n","4","html-keyboard-response","1020","j","liog","false","",""
"2534.5999999996275","","","","","4","html-slider-response","1021","","","","5",""
"5454","scissors","duga,mtawa,tanuri,suga","tanuri","j","4","html-keyboard-response","1022","j","tanuri","true","",""
"2984.7999999998137","","","","","4","html-slider-response","1023","","","","4",""
"5453","giraffe","daraja,mahitabo,jumatu,hangyo","mahitabo","v","4","html-keyboard-response","1024","v","mahitabo","true","",""
"5187.299999999814","","","","","4","html-slider-response","1025","","","","3",""
"4751","flower","tamasha,lobo,bega,usiku","bega","j","4","html-keyboard-response","1026","j","bega","true","",""
"2946.7000000001863","","","","","4","html-slider-response","1027","","","","5",""
"3154","candle","gabi,geza,farasi,kupanda","geza","v","4","html-keyboard-response","1028","v","geza","true","",""
"3168.5999999996275","","","","","4","html-slider-response","1029","","","","5",""
"3672","mother","babaye,kahawa,mbuzi,jokofu","babaye","f","4","html-keyboard-response","1030","f","babaye","true","",""
"3090.7000000001863","","","","","4","html-slider-response","1031","","","","5",""
"5548","towel","tembo,funzi,pito,pagpalit","pagpalit","n","4","html-keyboard-response","1032","n","pagpalit","true","",""
"2782.5","","","","","4","html-slider-response","1033","","","","1",""
"2266","elephant","petye,pagduol,kito,suka","kito","j","4","html-keyboard-response","1034","j","kito","true","",""
"2843.399999999441","","","","","4","html-slider-response","1035","","","","5",""
"3889","shelf","bungtod,kadaot,pamahaw,awit","pamahaw","j","4","html-keyboard-response","1036","j","pamahaw","true","",""
"2725.9000000003725","","","","","4","html-slider-response","1037","","","","2",""
"1952","mosquito","isda,taras,martilyo,gutom","martilyo","j","4","html-keyboard-response","1038","j","martilyo","true","",""
"2770.9000000003725","","","","","4","html-slider-response","1039","","","","5",""
"3922","column","ufagio,pundok,dila,pala","ufagio","f","4","html-keyboard-response","1040","v","pundok","false","",""
"2801.4000000003725","","","","","4","html-slider-response","1041","","","","2",""
"5795","pants","haki,pintal,chuki,hari","haki","f","4","html-keyboard-response","1042","f","haki","true","",""
"2896.7000000001863","","","","","4","html-slider-response","1043","","","","5",""
"4423","list","alizeti,kuzama,wingu,kaso","wingu","j","4","html-keyboard-response","1044","f","alizeti","false","",""
"3953.2999999998137","","","","","4","html-slider-response","1045","","","","4",""
"5438","bank","kudhibi,tualya,silingan,ofisi","silingan","j","4","html-keyboard-response","1046","j","silingan","true","",""
"2489.2000000001863","","","","","4","html-slider-response","1047","","","","2",""
"4624","clock","kartasi,mbwa,abang,osha","mbwa","v","4","html-keyboard-response","1048","v","mbwa","true","",""
"3227.2999999998137","","","","","4","html-slider-response","1049","","","","3",""
"3432","ceiling","kugita,kawaida,maua,rayna","maua","j","4","html-keyboard-response","1050","j","maua","true","",""
"3616.2999999998137","","","","","4","html-slider-response","1051","","","","5",""
"6232","train","sayari,itik,dakika,mungu","sayari","f","4","html-keyboard-response","1052","n","mungu","false","",""
"2661.7000000001863","","","","","4","html-slider-response","1053","","","","1",""
"4184","magazine","gundi,mchawi,kiti,bahandi","kiti","j","4","html-keyboard-response","1054","v","mchawi","false","",""
"3171.100000000559","","","","","4","html-slider-response","1055","","","","3",""
"3883","office","hazini,leso,yatima,kuna","leso","v","4","html-keyboard-response","1056","v","leso","true","",""
"3720.2000000001863","","","","","4","html-slider-response","1057","","","","4",""
"10597","wheel","punda,tawo,bafuni,baadaye","bafuni","j","4","html-keyboard-response","1058","f","punda","false","",""
"2397.100000000559","","","","","4","html-slider-response","1059","","","","2",""
"4104","spoon","betri,pagsulod,nzuri,ngazi","pagsulod","v","4","html-keyboard-response","1060","v","pagsulod","true","",""
"3043.899999999441","","","","","4","html-slider-response","1061","","","","4",""
"7867","hammer","mekno,napakyas,kitovu,layag","napakyas","v","4","html-keyboard-response","1062","j","kitovu","false","",""
"3251.4000000003725","","","","","4","html-slider-response","1063","","","","3",""
"3441","cigar","ndugu,kuta,mlango,adhabu","adhabu","n","4","html-keyboard-response","1064","v","kuta","false","",""
"3373.7999999998137","","","","","4","html-slider-response","1065","","","","2",""
"14599","shoe","nyeusi,uyoga,hatua,kama","uyoga","v","4","html-keyboard-response","1066","f","nyeusi","false","",""
"3108.100000000559","","","","","4","html-slider-response","1067","","","","1",""
"2591","list","alizeti,kuzama,wingu,kaso","wingu","j","5","html-keyboard-response","1069","f","alizeti","false","",""
"2788.7000000001863","","","","","5","html-slider-response","1070","","","","5",""
"2554","number","shule,kengele,mundamo,choori","mundamo","j","5","html-keyboard-response","1071","j","mundamo","true","",""
"2885.7000000001863","","","","","5","html-slider-response","1072","","","","5",""
"3657","apple","kisu,ukame,estante,edad","kisu","f","5","html-keyboard-response","1073","f","kisu","true","",""
"2554.7000000001863","","","","","5","html-slider-response","1074","","","","5",""
"6227","knee","mvuke,duka,kubale,bili","duka","v","5","html-keyboard-response","1075","v","duka","true","",""
"3223.4000000003725","","","","","5","html-slider-response","1076","","","","2",""
"3889","tooth","kabalaka,kijiko,uadui,pahiyum","kabalaka","f","5","html-keyboard-response","1077","f","kabalaka","true","",""
"3521.100000000559","","","","","5","html-slider-response","1078","","","","3",""
"3097","berry","abogado,kofia,nogozi,kinywa","kofia","v","5","html-keyboard-response","1079","v","kofia","true","",""
"2495.2999999998137","","","","","5","html-slider-response","1080","","","","4",""
"7267","bridge","daima,sahani,ngono,panya","sahani","v","5","html-keyboard-response","1081","j","ngono","false","",""
"2955.899999999441","","","","","5","html-slider-response","1082","","","","2",""
"2906","perfume","bino,katuyoan,sungura,ndogo","katuyoan","v","5","html-keyboard-response","1083","n","ndogo","false","",""
"2495.5","","","","","5","html-slider-response","1084","","","","2",""
"5041","ladder","pangalan,mashua,mwanga,kamba","pangalan","f","5","html-keyboard-response","1085","f","pangalan","true","",""
"3296.2999999998137","","","","","5","html-slider-response","1086","","","","1",""
"3632","pants","pintal,haki,chuki,hari","haki","v","5","html-keyboard-response","1087","v","haki","true","",""
"4696.899999999441","","","","","5","html-slider-response","1088","","","","5",""
"18051","salmon","mzungu,seri,sensilyo,baharia","sensilyo","j","5","html-keyboard-response","1089","j","sensilyo","true","",""
"2724.7000000001863","","","","","5","html-slider-response","1090","","","","5",""
"2580","coffin","barua,tubag,kioo,hulma","kioo","j","5","html-keyboard-response","1091","j","kioo","true","",""
"3546.7000000001863","","","","","5","html-slider-response","1092","","","","4",""
"5631","park","tambok,bunifu,pwani,ihalas","bunifu","v","5","html-keyboard-response","1093","f","tambok","false","",""
"2536.300000000745","","","","","5","html-slider-response","1094","","","","2",""
"4983","giraffe","daraja,jumatu,mahitabo,hangyo","mahitabo","j","5","html-keyboard-response","1095","j","mahitabo","true","",""
"3177.7999999998137","","","","","5","html-slider-response","1096","","","","3",""
"6057","mirror","rangi,kanding,sulagma,furaha","sulagma","j","5","html-keyboard-response","1097","v","kanding","false","",""
"2580.0999999996275","","","","","5","html-slider-response","1098","","","","1",""
"3885","ceiling","kugita,maua,kawaida,rayna","maua","v","5","html-keyboard-response","1099","v","maua","true","",""
"2891.899999999441","","","","","5","html-slider-response","1100","","","","4",""
"30576","marker","mapafu,maji,salita,atay","maji","v","5","html-keyboard-response","1101","f","mapafu","false","",""
"3027.399999999441","","","","","5","html-slider-response","1102","","","","3",""
"3466","sock","mamba,ndoora,kimysa,mtirka","mamba","f","5","html-keyboard-response","1103","f","mamba","true","",""
"3504.2000000001863","","","","","5","html-slider-response","1104","","","","2",""
"4257","cop","bustani,jikoni,mechezo,bakus","mechezo","j","5","html-keyboard-response","1105","j","mechezo","true","",""
"2412.0999999996275","","","","","5","html-slider-response","1106","","","","4",""
"3798","gift","pagtawag,baba,nyange,baso","pagtawag","f","5","html-keyboard-response","1107","f","pagtawag","true","",""
"2693.899999999441","","","","","5","html-slider-response","1108","","","","5",""
"4661","notebook","msitu,kemia,kila,mdudu","kemia","v","5","html-keyboard-response","1109","v","kemia","true","",""
"2958.2999999998137","","","","","5","html-slider-response","1110","","","","4",""
"3312","bank","kudhibi,tualya,ofisi,silingan","silingan","n","5","html-keyboard-response","1111","n","silingan","true","",""
"2314.399999999441","","","","","5","html-slider-response","1112","","","","5",""
"4507","letter","kifua,filimbi,chuma,uhuru","kifua","f","5","html-keyboard-response","1113","f","kifua","true","",""
"3274.7999999998137","","","","","5","html-slider-response","1114","","","","3",""
"3575","candle","gabi,farasi,kupanda,geza","geza","n","5","html-keyboard-response","1115","n","geza","true","",""
"2955.699999999255","","","","","5","html-slider-response","1116","","","","5",""
"3479","bread","kaili,dari,dizeli,bugas","dari","v","5","html-keyboard-response","1117","j","dizeli","false","",""
"3059.2999999998137","","","","","5","html-slider-response","1118","","","","2",""
"4797","snake","jansa,pagtukod,karon,mvringo","pagtukod","v","5","html-keyboard-response","1119","v","pagtukod","true","",""
"2773.5","","","","","5","html-slider-response","1120","","","","4",""
"2867","rose","paghalad,singizi,mwanake,amani","paghalad","f","5","html-keyboard-response","1121","n","amani","false","",""
"2868.5","","","","","5","html-slider-response","1122","","","","1",""
"2837","hill","kushoto,kukimba,matumbo,sweta","matumbo","j","5","html-keyboard-response","1123","j","matumbo","true","",""
"2586.9000000003725","","","","","5","html-slider-response","1124","","","","5",""
"5737","train","itik,dakika,mungu,sayari","sayari","n","5","html-keyboard-response","1125","n","sayari","true","",""
"3064.800000000745","","","","","5","html-slider-response","1126","","","","1",""
"12175","shop","nopya,kerida,samaki,ndezu","samaki","j","5","html-keyboard-response","1127","j","samaki","true","",""
"3163.2999999998137","","","","","5","html-slider-response","1128","","","","1",""
"4453","nose","sehemu,gubat,kopa,kidole","sehemu","f","5","html-keyboard-response","1129","f","sehemu","true","",""
"2480.5999999996275","","","","","5","html-slider-response","1130","","","","4",""
"3295","boat","hamsi,agalon,pombe,kitanda","agalon","v","5","html-keyboard-response","1131","v","agalon","true","",""
"2642.600000000559","","","","","5","html-slider-response","1132","","","","5",""
"2750","body","nyundu,jibini,kununa,tindashan","tindashan","n","5","html-keyboard-response","1133","n","tindashan","true","",""
"2816.300000000745","","","","","5","html-slider-response","1134","","","","4",""
"2347","bed","kalipay,haraka,starehe,mapintas","mapintas","n","5","html-keyboard-response","1135","n","mapintas","true","",""
"3265.5","","","","","5","html-slider-response","1136","","","","5",""
"22459","squirrel","mahugaw,ukweli,hofu,kichwa","hofu","j","5","html-keyboard-response","1137","j","hofu","true","",""
"2610.7999999998137","","","","","5","html-slider-response","1138","","","","5",""
"30105","window","nanga,kujenga,kweli,umaga","kweli","j","5","html-keyboard-response","1139","j","kweli","true","",""
"2491.399999999441","","","","","5","html-slider-response","1140","","","","5",""
"2148","bonfire","mwezi,mfuko,goti,kusanya","goti","j","5","html-keyboard-response","1141","j","goti","true","",""
"2600.7000000001863","","","","","5","html-slider-response","1142","","","","5",""
"6093","fish","bala,baho,imani,buli","buli","n","5","html-keyboard-response","1143","v","baho","false","",""
"2578.5","","","","","5","html-slider-response","1144","","","","1",""
"12103","cat","neyemba,baki,paghukom,akili","paghukom","j","5","html-keyboard-response","1145","v","baki","false","",""
"3965.2000000001863","","","","","5","html-slider-response","1146","","","","3",""
"4009","spider","bunyag,kamwe,mkboa,atop","kamwe","v","5","html-keyboard-response","1147","j","mkboa","false","",""
"3651.2999999998137","","","","","5","html-slider-response","1148","","","","4",""
"3517","eel","ishara,kunywa,kabuang,msumari","msumari","n","5","html-keyboard-response","1149","n","msumari","true","",""
"6531.5999999996275","","","","","5","html-slider-response","1150","","","","3",""
"6492","woman","bandari,bituin,pagtabon,kovuli","pagtabon","j","5","html-keyboard-response","1151","j","pagtabon","true","",""
"3184.899999999441","","","","","5","html-slider-response","1152","","","","5",""
"6694","magazine","gundi,mchawi,kiti,bahandi","kiti","j","5","html-keyboard-response","1153","v","mchawi","false","",""
"3238.4000000003725","","","","","5","html-slider-response","1154","","","","2",""
"5628","pudding","abug,mpishi,aibu,iring","aibu","j","5","html-keyboard-response","1155","n","iring","false","",""
"2725.7999999998137","","","","","5","html-slider-response","1156","","","","1",""
"2589","lamp","daub,bilaska,afya,mbolea","afya","j","5","html-keyboard-response","1157","j","afya","true","",""
"3215.2999999998137","","","","","5","html-slider-response","1158","","","","4",""
"2865","cave","ganti,kesho,maisha,nyundo","kesho","v","5","html-keyboard-response","1159","v","kesho","true","",""
"2806.2000000001863","","","","","5","html-slider-response","1160","","","","5",""
"3690","shoulder","kelele,ndaniya,guruwe,mkuu","mkuu","n","5","html-keyboard-response","1161","n","mkuu","true","",""
"3784.7000000001863","","","","","5","html-slider-response","1162","","","","3",""
"3400","stone","ulimwengu,mkasi,wingi,asili","wingi","j","5","html-keyboard-response","1163","j","wingi","true","",""
"2575.5","","","","","5","html-slider-response","1164","","","","4",""
"8401","column","pundok,dila,pala,ufagio","ufagio","n","5","html-keyboard-response","1165","f","pundok","false","",""
"3021.7000000001863","","","","","5","html-slider-response","1166","","","","1",""
"5000","page","wakala,ishiri,wimbo,skina","wimbo","j","5","html-keyboard-response","1167","v","ishiri","false","",""
"2512.600000000559","","","","","5","html-slider-response","1168","","","","2",""
"8363","shoe","uyoga,nyeusi,hatua,kama","uyoga","f","5","html-keyboard-response","1169","f","uyoga","true","",""
"3025.2000000001863","","","","","5","html-slider-response","1170","","","","3",""
"7390","clock","kartasi,mbwa,abang,osha","mbwa","v","5","html-keyboard-response","1171","v","mbwa","true","",""
"3482.7000000001863","","","","","5","html-slider-response","1172","","","","3",""
"47255","towel","tembo,funzi,pito,pagpalit","pagpalit","n","5","html-keyboard-response","1173","n","pagpalit","true","",""
"2702.7000000001863","","","","","5","html-slider-response","1174","","","","5",""
"5062","tomato","chupi,chupa,mvua,takatak","mvua","j","5","html-keyboard-response","1175","n","takatak","false","",""
"2540","","","","","5","html-slider-response","1176","","","","2",""
"4190","bucket","kiatu,baga,ijayo,init","kiatu","f","5","html-keyboard-response","1177","v","baga","false","",""
"2855.0999999996275","","","","","5","html-slider-response","1178","","","","4",""
"4488","finger","moyo,simu,sufuria,lima","moyo","f","5","html-keyboard-response","1179","n","lima","false","",""
"2772.9000000003725","","","","","5","html-slider-response","1180","","","","2",""
"1938","mother","kahawa,mbuzi,jokofu,babaye","babaye","n","5","html-keyboard-response","1181","n","babaye","true","",""
"3334.7000000001863","","","","","5","html-slider-response","1182","","","","5",""
"1996","human","tinapay,bado,kikapu,punguza","tinapay","f","5","html-keyboard-response","1183","f","tinapay","true","",""
"2506.5","","","","","5","html-slider-response","1184","","","","5",""
"3106","sun","bendi,luha,uongo,basi","basi","n","5","html-keyboard-response","1185","n","basi","true","",""
"2609.600000000559","","","","","5","html-slider-response","1186","","","","5",""
"4934","fork","mgonjwa,baboy,paghago,gorisi","mgonjwa","f","5","html-keyboard-response","1187","j","paghago","false","",""
"3455.2999999998137","","","","","5","html-slider-response","1188","","","","2",""
"2180","donkey","elfu,bloke,lalake,rombus","elfu","f","5","html-keyboard-response","1189","f","elfu","true","",""
"3473.2000000001863","","","","","5","html-slider-response","1190","","","","4",""
"2465","wolf","kaburi,ndizi,mchuzi,lugha","lugha","n","5","html-keyboard-response","1191","n","lugha","true","",""
"2752.7999999998137","","","","","5","html-slider-response","1192","","","","5",""
"3727","cigar","adhabu,ndugu,kuta,mlango","adhabu","f","5","html-keyboard-response","1193","v","ndugu","false","",""
"2806.800000000745","","","","","5","html-slider-response","1194","","","","1",""
"6573","olive","bata,siagi,welder,jiwe","jiwe","n","5","html-keyboard-response","1195","n","jiwe","true","",""
"3105.100000000559","","","","","5","html-slider-response","1196","","","","4",""
"4284","key","miaka,goma,ahos,chombo","chombo","n","5","html-keyboard-response","1197","v","goma","false","",""
"3199.7000000001863","","","","","5","html-slider-response","1198","","","","1",""
"3710","door","tena,soko,nyota,surali","surali","n","5","html-keyboard-response","1199","n","surali","true","",""
"8356.5","","","","","5","html-slider-response","1200","","","","1",""
"58025","wheel","bafuni,punda,tawo,baadaye","bafuni","f","5","html-keyboard-response","1201","n","baadaye","false","",""
"2808.4000000003725","","","","","5","html-slider-response","1202","","","","1",""
"4731","basket","kumba,kumbuka,utepe,hasira","kumba","f","5","html-keyboard-response","1203","v","kumbuka","false","",""
"2847.5999999996275","","","","","5","html-slider-response","1204","","","","2",""
"4573","elephant","petye,kito,pagduol,suka","kito","v","5","html-keyboard-response","1205","v","kito","true","",""
"3422.600000000559","","","","","5","html-slider-response","1206","","","","5",""
"1946","office","hazini,yatima,kuna,leso","leso","n","5","html-keyboard-response","1207","n","leso","true","",""
"2468","","","","","5","html-slider-response","1208","","","","5",""
"3018","music","mraba,mageho,baiski,tumbo","baiski","j","5","html-keyboard-response","1209","j","baiski","true","",""
"2797.7000000001863","","","","","5","html-slider-response","1210","","","","5",""
"4884","tissue","lamigas,ugomvi,kisiwa,katika","ugomvi","v","5","html-keyboard-response","1211","n","katika","false","",""
"3041.899999999441","","","","","5","html-slider-response","1212","","","","2",""
"6060","curtain","lisud,bulwawan,mchanga,chubani","mchanga","j","5","html-keyboard-response","1213","v","bulwawan","false","",""
"3720.0999999996275","","","","","5","html-slider-response","1214","","","","4",""
"3928","flag","ndege,mkate,kawa,trekta","trekta","n","5","html-keyboard-response","1215","n","trekta","true","",""
"3007.699999999255","","","","","5","html-slider-response","1216","","","","5",""
"2708","dog","lubi,bahari,washia,kalamu","bahari","v","5","html-keyboard-response","1217","v","bahari","true","",""
"2588.7999999998137","","","","","5","html-slider-response","1218","","","","5",""
"3680","cup","matumai,dagat,shimoni,jeraha","matumai","f","5","html-keyboard-response","1219","f","matumai","true","",""
"3269.7999999998137","","","","","5","html-slider-response","1220","","","","4",""
"4528","sheet","juuya,watu,bililhon,kamantis","bililhon","j","5","html-keyboard-response","1221","n","kamantis","false","",""
"2615.9000000003725","","","","","5","html-slider-response","1222","","","","1",""
"3708","spoon","betri,pagsulod,nzuri,ngazi","pagsulod","v","5","html-keyboard-response","1223","v","pagsulod","true","",""
"2513.899999999441","","","","","5","html-slider-response","1224","","","","2",""
"3191","flower","bega,tamasha,lobo,usiku","bega","f","5","html-keyboard-response","1225","f","bega","true","",""
"2631","","","","","5","html-slider-response","1226","","","","5",""
"2378","picture","silya,chaki,kubwa,asin","kubwa","j","5","html-keyboard-response","1227","j","kubwa","true","",""
"2528.5","","","","","5","html-slider-response","1228","","","","5",""
"4378","puppet","napulo,lamok,mazishi,godoro","mazishi","j","5","html-keyboard-response","1229","j","mazishi","true","",""
"3608.100000000559","","","","","5","html-slider-response","1230","","","","1",""
"23414","banana","kasamok,hagdan,kazi,twai","kazi","j","5","html-keyboard-response","1231","j","kazi","true","",""
"2981.9000000003725","","","","","5","html-slider-response","1232","","","","5",""
"3460","book","mali,kuhesa,picha,mara","mali","f","5","html-keyboard-response","1233","f","mali","true","",""
"2626.2999999998137","","","","","5","html-slider-response","1234","","","","2",""
"5279","triangle","kasadpan,kihozi,bentaha,liog","kasadpan","f","5","html-keyboard-response","1235","n","liog","false","",""
"2491.7000000001863","","","","","5","html-slider-response","1236","","","","4",""
"3501","poster","nchi,fedha,kasuko,madungog","madungog","n","5","html-keyboard-response","1237","n","madungog","true","",""
"2669","","","","","5","html-slider-response","1238","","","","2",""
"2563","box","adui,kuacha,rafiki,kitande","adui","f","5","html-keyboard-response","1239","j","rafiki","false","",""
"4628.5999999996275","","","","","5","html-slider-response","1240","","","","3",""
"1886","mosquito","isda,taras,martilyo,gutom","martilyo","j","5","html-keyboard-response","1241","j","martilyo","true","",""
"3086.7000000001863","","","","","5","html-slider-response","1242","","","","5",""
"5922","shelf","pamahaw,bungtod,kadaot,awit","pamahaw","f","5","html-keyboard-response","1243","v","bungtod","false","",""
"2636.2000000001863","","","","","5","html-slider-response","1244","","","","2",""
"6780","scissors","duga,mtawa,suga,tanuri","tanuri","n","5","html-keyboard-response","1245","n","tanuri","true","",""
"2412.300000000745","","","","","5","html-slider-response","1246","","","","4",""
"10549","hammer","mekno,napakyas,kitovu,layag","napakyas","v","5","html-keyboard-response","1247","v","napakyas","true","",""
"2587.2000000001863","","","","","5","html-slider-response","1248","","","","5",""
