"rt","en_word","options","swa_word","correct_answer","phase","trial_type","trial_index","input_answer","input_word","accuracy","certainty","amt_choices"
"3545","bonfire","mwezi,mfuko,kusanya,goti","goti","n","2","html-keyboard-response","106","j","kusanya","false","",""
"3562","","","","","2","html-slider-response","107","","","","1",""
"2408","flower","tamasha,bega,lobo,usiku","bega","v","2","html-keyboard-response","108","f","tamasha","false","",""
"1711","","","","","2","html-slider-response","109","","","","2",""
"2228","column","pundok,ufagio,dila,pala","ufagio","v","2","html-keyboard-response","110","n","pala","false","",""
"1655","","","","","2","html-slider-response","111","","","","2",""
"2070","music","baiski,mraba,mageho,tumbo","baiski","f","2","html-keyboard-response","112","v","mraba","false","",""
"3563","","","","","2","html-slider-response","113","","","","3",""
"3177","spider","kamwe,bunyag,mkboa,atop","kamwe","f","2","html-keyboard-response","114","j","mkboa","false","",""
"1559","","","","","2","html-slider-response","115","","","","2",""
"2805","fork","baboy,paghago,gorisi,mgonjwa","mgonjwa","n","2","html-keyboard-response","116","n","mgonjwa","true","",""
"1718","","","","","2","html-slider-response","117","","","","2",""
"2055","mosquito","isda,taras,gutom,martilyo","martilyo","n","2","html-keyboard-response","118","n","martilyo","true","",""
"1679","","","","","2","html-slider-response","119","","","","4",""
"2686","banana","kasamok,hagdan,twai,kazi","kazi","n","2","html-keyboard-response","120","n","kazi","true","",""
"1643","","","","","2","html-slider-response","121","","","","4",""
"1792","cup","dagat,shimoni,matumai,jeraha","matumai","j","2","html-keyboard-response","122","f","dagat","false","",""
"1109","","","","","2","html-slider-response","123","","","","2",""
"2473","shop","samaki,nopya,kerida,ndezu","samaki","f","2","html-keyboard-response","124","n","ndezu","false","",""
"1503","","","","","2","html-slider-response","125","","","","2",""
"14150","elephant","petye,pagduol,kito,suka","kito","j","2","html-keyboard-response","126","j","kito","true","",""
"1953","","","","","2","html-slider-response","127","","","","1",""
"17275","bucket","baga,ijayo,init,kiatu","kiatu","n","2","html-keyboard-response","128","j","init","false","",""
"2453","","","","","2","html-slider-response","129","","","","2",""
"1959","book","kuhesa,mali,picha,mara","mali","v","2","html-keyboard-response","130","v","mali","true","",""
"1759","","","","","2","html-slider-response","131","","","","4",""
"2419","mirror","rangi,kanding,furaha,sulagma","sulagma","n","2","html-keyboard-response","132","f","rangi","false","",""
"1537","","","","","2","html-slider-response","133","","","","2",""
"3140","office","leso,hazini,yatima,kuna","leso","f","2","html-keyboard-response","134","v","hazini","false","",""
"1229","","","","","2","html-slider-response","135","","","","2",""
"1848","body","nyundu,tindashan,jibini,kununa","tindashan","v","2","html-keyboard-response","136","j","jibini","false","",""
"1366","","","","","2","html-slider-response","137","","","","2",""
"2356","perfume","bino,katuyoan,sungura,ndogo","katuyoan","v","2","html-keyboard-response","138","n","ndogo","false","",""
"1485","","","","","2","html-slider-response","139","","","","2",""
"3944","olive","bata,siagi,jiwe,welder","jiwe","j","2","html-keyboard-response","140","v","siagi","false","",""
"1737","","","","","2","html-slider-response","141","","","","2",""
"2117","magazine","gundi,kiti,mchawi,bahandi","kiti","v","2","html-keyboard-response","142","n","bahandi","false","",""
"1371","","","","","2","html-slider-response","143","","","","2",""
"2396","bread","dari,kaili,dizeli,bugas","dari","f","2","html-keyboard-response","144","v","kaili","false","",""
"1145","","","","","2","html-slider-response","145","","","","2",""
"1722","cave","ganti,maisha,nyundo,kesho","kesho","n","2","html-keyboard-response","146","f","ganti","false","",""
"1248","","","","","2","html-slider-response","147","","","","2",""
"3060","ladder","mashua,pangalan,mwanga,kamba","pangalan","v","2","html-keyboard-response","148","j","mwanga","false","",""
"1168","","","","","2","html-slider-response","149","","","","2",""
"4573","human","bado,kikapu,punguza,tinapay","tinapay","n","2","html-keyboard-response","150","j","punguza","false","",""
"1183","","","","","2","html-slider-response","151","","","","2",""
"2700","clock","kartasi,abang,mbwa,osha","mbwa","j","2","html-keyboard-response","152","n","osha","false","",""
"1273","","","","","2","html-slider-response","153","","","","2",""
"2213","shelf","pamahaw,bungtod,kadaot,awit","pamahaw","f","2","html-keyboard-response","154","j","kadaot","false","",""
"1375","","","","","2","html-slider-response","155","","","","2",""
"2813","salmon","mzungu,seri,sensilyo,baharia","sensilyo","j","2","html-keyboard-response","156","n","baharia","false","",""
"1253","","","","","2","html-slider-response","157","","","","2",""
"2065","coffin","barua,tubag,kioo,hulma","kioo","j","2","html-keyboard-response","158","j","kioo","true","",""
"1707","","","","","2","html-slider-response","159","","","","1",""
"2673","notebook","msitu,kila,kemia,mdudu","kemia","j","2","html-keyboard-response","160","v","kila","false","",""
"1618","","","","","2","html-slider-response","161","","","","2",""
"1530","shoulder","mkuu,kelele,ndaniya,guruwe","mkuu","f","2","html-keyboard-response","162","f","mkuu","true","",""
"1446","","","","","2","html-slider-response","163","","","","2",""
"3862","park","tambok,pwani,ihalas,bunifu","bunifu","n","2","html-keyboard-response","164","f","tambok","false","",""
"1610","","","","","2","html-slider-response","165","","","","2",""
"2874","number","shule,kengele,choori,mundamo","mundamo","n","2","html-keyboard-response","166","n","mundamo","true","",""
"1908","","","","","2","html-slider-response","167","","","","2",""
"2583","apple","kisu,ukame,estante,edad","kisu","f","2","html-keyboard-response","168","n","edad","false","",""
"1893","","","","","2","html-slider-response","169","","","","1",""
"1865","letter","filimbi,kifua,chuma,uhuru","kifua","v","2","html-keyboard-response","170","j","chuma","false","",""
"1614","","","","","2","html-slider-response","171","","","","2",""
"3397","eel","ishara,kunywa,msumari,kabuang","msumari","j","2","html-keyboard-response","172","j","msumari","true","",""
"1377","","","","","2","html-slider-response","173","","","","2",""
"1867","cop","bustani,jikoni,mechezo,bakus","mechezo","j","2","html-keyboard-response","174","n","bakus","false","",""
"2077","","","","","2","html-slider-response","175","","","","2",""
"1865","wolf","kaburi,ndizi,lugha,mchuzi","lugha","j","2","html-keyboard-response","176","n","mchuzi","false","",""
"2162","","","","","2","html-slider-response","177","","","","2",""
"2027","squirrel","mahugaw,hofu,ukweli,kichwa","hofu","v","2","html-keyboard-response","178","j","ukweli","false","",""
"2242","","","","","2","html-slider-response","179","","","","1",""
"3155","nose","gubat,kopa,kidole,sehemu","sehemu","n","2","html-keyboard-response","180","f","gubat","false","",""
"1729","","","","","2","html-slider-response","181","","","","2",""
"2836","sock","ndoora,kimysa,mtirka,mamba","mamba","n","2","html-keyboard-response","182","n","mamba","true","",""
"2134","","","","","2","html-slider-response","183","","","","5",""
"2256","bank","kudhibi,tualya,silingan,ofisi","silingan","j","2","html-keyboard-response","184","n","ofisi","false","",""
"1803","","","","","2","html-slider-response","185","","","","2",""
"4282","donkey","bloke,elfu,lalake,rombus","elfu","v","2","html-keyboard-response","186","f","bloke","false","",""
"3360","","","","","2","html-slider-response","187","","","","2",""
"3181","poster","nchi,madungog,fedha,kasuko","madungog","v","2","html-keyboard-response","188","v","madungog","true","",""
"1385","","","","","2","html-slider-response","189","","","","2",""
"1826","puppet","napulo,lamok,mazishi,godoro","mazishi","j","2","html-keyboard-response","190","v","lamok","false","",""
"1551","","","","","2","html-slider-response","191","","","","2",""
"2573","hill","kushoto,kukimba,matumbo,sweta","matumbo","j","2","html-keyboard-response","192","n","sweta","false","",""
"1547","","","","","2","html-slider-response","193","","","","2",""
"1801","tooth","kijiko,kabalaka,uadui,pahiyum","kabalaka","v","2","html-keyboard-response","194","j","uadui","false","",""
"1486","","","","","2","html-slider-response","195","","","","2",""
"2495","woman","bandari,pagtabon,bituin,kovuli","pagtabon","v","2","html-keyboard-response","196","f","bandari","false","",""
"2241","","","","","2","html-slider-response","197","","","","1",""
"4394","wheel","bafuni,punda,tawo,baadaye","bafuni","f","2","html-keyboard-response","198","v","punda","false","",""
"1819","","","","","2","html-slider-response","199","","","","2",""
"2130","mother","kahawa,mbuzi,jokofu,babaye","babaye","n","2","html-keyboard-response","200","n","babaye","true","",""
"1712","","","","","2","html-slider-response","201","","","","2",""
"2660","bed","kalipay,haraka,starehe,mapintas","mapintas","n","2","html-keyboard-response","202","v","haraka","false","",""
"1784","","","","","2","html-slider-response","203","","","","1",""
"3077","key","chombo,miaka,goma,ahos","chombo","f","2","html-keyboard-response","204","f","chombo","true","",""
"1314","","","","","2","html-slider-response","205","","","","2",""
"4259","page","wakala,wimbo,ishiri,skina","wimbo","v","2","html-keyboard-response","206","j","ishiri","false","",""
"3064","","","","","2","html-slider-response","207","","","","2",""
"3506","pants","haki,pintal,chuki,hari","haki","f","2","html-keyboard-response","208","f","haki","true","",""
"1679","","","","","2","html-slider-response","209","","","","2",""
"3718","sun","bendi,luha,basi,uongo","basi","j","2","html-keyboard-response","210","v","luha","false","",""
"2125","","","","","2","html-slider-response","211","","","","2",""
"1937","finger","simu,moyo,sufuria,lima","moyo","v","2","html-keyboard-response","212","f","simu","false","",""
"1665","","","","","2","html-slider-response","213","","","","2",""
"2898","shoe","nyeusi,uyoga,hatua,kama","uyoga","v","2","html-keyboard-response","214","j","hatua","false","",""
"1654","","","","","2","html-slider-response","215","","","","2",""
"4390","giraffe","mahitabo,daraja,jumatu,hangyo","mahitabo","f","2","html-keyboard-response","216","f","mahitabo","true","",""
"2406","","","","","2","html-slider-response","217","","","","2",""
"2319","dog","lubi,washia,bahari,kalamu","bahari","j","2","html-keyboard-response","218","j","bahari","true","",""
"1221","","","","","2","html-slider-response","219","","","","2",""
"2767","box","kuacha,rafiki,kitande,adui","adui","n","2","html-keyboard-response","220","j","kitande","false","",""
"1345","","","","","2","html-slider-response","221","","","","2",""
"3434","scissors","duga,tanuri,mtawa,suga","tanuri","v","2","html-keyboard-response","222","f","duga","false","",""
"1279","","","","","2","html-slider-response","223","","","","2",""
"9381","cat","neyemba,paghukom,baki,akili","paghukom","v","2","html-keyboard-response","224","j","baki","false","",""
"4744","","","","","2","html-slider-response","225","","","","2",""
"2389","basket","kumbuka,utepe,hasira,kumba","kumba","n","2","html-keyboard-response","226","v","utepe","false","",""
"2146","","","","","2","html-slider-response","227","","","","2",""
"3200","snake","pagtukod,jansa,karon,mvringo","pagtukod","f","2","html-keyboard-response","228","n","mvringo","false","",""
"1991","","","","","2","html-slider-response","229","","","","1",""
"3684","gift","baba,nyange,baso,pagtawag","pagtawag","n","2","html-keyboard-response","230","n","pagtawag","true","",""
"1748","","","","","2","html-slider-response","231","","","","2",""
"2512","train","itik,sayari,dakika,mungu","sayari","v","2","html-keyboard-response","232","j","dakika","false","",""
"1389","","","","","2","html-slider-response","233","","","","2",""
"3367","pudding","aibu,abug,mpishi,iring","aibu","f","2","html-keyboard-response","234","n","iring","false","",""
"1423","","","","","2","html-slider-response","235","","","","2",""
"28243","tomato","chupi,mvua,chupa,takatak","mvua","v","2","html-keyboard-response","236","v","mvua","true","",""
"1753","","","","","2","html-slider-response","237","","","","2",""
"3867","stone","ulimwengu,mkasi,wingi,asili","wingi","j","2","html-keyboard-response","238","n","asili","false","",""
"2762","","","","","2","html-slider-response","239","","","","2",""
"3570","hammer","napakyas,mekno,kitovu,layag","napakyas","f","2","html-keyboard-response","240","j","kitovu","false","",""
"2207","","","","","2","html-slider-response","241","","","","2",""
"6837","knee","duka,mvuke,kubale,bili","duka","f","2","html-keyboard-response","242","f","duka","true","",""
"1723","","","","","2","html-slider-response","243","","","","2",""
"2345","ceiling","kugita,maua,kawaida,rayna","maua","v","2","html-keyboard-response","244","n","rayna","false","",""
"1266","","","","","2","html-slider-response","245","","","","2",""
"2205","spoon","betri,nzuri,pagsulod,ngazi","pagsulod","j","2","html-keyboard-response","246","n","ngazi","false","",""
"1304","","","","","2","html-slider-response","247","","","","2",""
"2013","marker","mapafu,maji,salita,atay","maji","v","2","html-keyboard-response","248","v","maji","true","",""
"1350","","","","","2","html-slider-response","249","","","","2",""
"2462","candle","gabi,geza,farasi,kupanda","geza","v","2","html-keyboard-response","250","v","geza","true","",""
"2074","","","","","2","html-slider-response","251","","","","2",""
"1610","tissue","ugomvi,lamigas,kisiwa,katika","ugomvi","f","2","html-keyboard-response","252","n","katika","false","",""
"1233","","","","","2","html-slider-response","253","","","","2",""
"1963","bridge","daima,ngono,panya,sahani","sahani","n","2","html-keyboard-response","254","n","sahani","true","",""
"1501","","","","","2","html-slider-response","255","","","","2",""
"2808","berry","abogado,kofia,nogozi,kinywa","kofia","v","2","html-keyboard-response","256","f","abogado","false","",""
"2081","","","","","2","html-slider-response","257","","","","2",""
"2835","triangle","kihozi,bentaha,liog,kasadpan","kasadpan","n","2","html-keyboard-response","258","v","bentaha","false","",""
"2207","","","","","2","html-slider-response","259","","","","2",""
"2593","door","tena,soko,nyota,surali","surali","n","2","html-keyboard-response","260","j","nyota","false","",""
"1163","","","","","2","html-slider-response","261","","","","2",""
"2619","fish","bala,baho,imani,buli","buli","n","2","html-keyboard-response","262","f","bala","false","",""
"2034","","","","","2","html-slider-response","263","","","","2",""
"1466","curtain","lisud,bulwawan,mchanga,chubani","mchanga","j","2","html-keyboard-response","264","f","lisud","false","",""
"1386","","","","","2","html-slider-response","265","","","","2",""
"2323","flag","ndege,mkate,kawa,trekta","trekta","n","2","html-keyboard-response","266","j","kawa","false","",""
"1664","","","","","2","html-slider-response","267","","","","2",""
"3181","boat","hamsi,agalon,pombe,kitanda","agalon","v","2","html-keyboard-response","268","n","kitanda","false","",""
"1326","","","","","2","html-slider-response","269","","","","2",""
"2182","rose","paghalad,singizi,mwanake,amani","paghalad","f","2","html-keyboard-response","270","j","mwanake","false","",""
"1085","","","","","2","html-slider-response","271","","","","2",""
"2510","lamp","daub,bilaska,mbolea,afya","afya","n","2","html-keyboard-response","272","n","afya","true","",""
"1209","","","","","2","html-slider-response","273","","","","2",""
"15220","cigar","ndugu,adhabu,kuta,mlango","adhabu","v","2","html-keyboard-response","274","f","ndugu","false","",""
"1659","","","","","2","html-slider-response","275","","","","2",""
"1817","list","alizeti,kuzama,kaso,wingu","wingu","n","2","html-keyboard-response","276","n","wingu","true","",""
"1043","","","","","2","html-slider-response","277","","","","2",""
"2289","sheet","juuya,watu,kamantis,bililhon","bililhon","n","2","html-keyboard-response","278","n","bililhon","true","",""
"1651","","","","","2","html-slider-response","279","","","","5",""
"2009","picture","kubwa,silya,chaki,asin","kubwa","f","2","html-keyboard-response","280","j","chaki","false","",""
"1113","","","","","2","html-slider-response","281","","","","2",""
"1930","towel","tembo,funzi,pagpalit,pito","pagpalit","j","2","html-keyboard-response","282","v","funzi","false","",""
"1115","","","","","2","html-slider-response","283","","","","2",""
"2553","window","nanga,kujenga,umaga,kweli","kweli","n","2","html-keyboard-response","284","n","kweli","true","",""
"1551","","","","","2","html-slider-response","285","","","","2",""
"4353","box","kuacha,rafiki,kitande,adui","adui","n","3","html-keyboard-response","293","v","rafiki","false","","4"
"2694","","","","","3","html-slider-response","294","","","","2",""
"2067","","","","","3","html-keyboard-response","295","","","","",""
"3671","pants","haki,pintal,chuki,hari","haki","f","3","html-keyboard-response","296","f","haki","true","","4"
"1351","","","","","3","html-slider-response","297","","","","2",""
"2102","","","","","3","html-keyboard-response","298","","","","",""
"2367","cup","dagat,shimoni,jeraha,matumai","matumai","n","3","html-keyboard-response","299","n","matumai","true","","4"
"1788","","","","","3","html-slider-response","300","","","","2",""
"2313","","","","","3","html-keyboard-response","301","","","","",""
"2431","triangle","kasadpan,kihozi,bentaha,liog","kasadpan","f","3","html-keyboard-response","302","j","bentaha","false","","4"
"1512","","","","","3","html-slider-response","303","","","","2",""
"1885","","","","","3","html-keyboard-response","304","","","","",""
"3288","curtain","lisud,bulwawan,mchanga,chubani","mchanga","j","3","html-keyboard-response","305","j","mchanga","true","","4"
"1270","","","","","3","html-slider-response","306","","","","2",""
"1879","","","","","3","html-keyboard-response","307","","","","",""
"2215","clock","kartasi,mbwa,abang,osha","mbwa","v","3","html-keyboard-response","308","n","osha","false","","4"
"1722","","","","","3","html-slider-response","309","","","","2",""
"923","","","","","3","html-keyboard-response","310","","","","",""
"3495","mirror","rangi,kanding,sulagma,furaha","sulagma","j","3","html-keyboard-response","311","v","kanding","false","","4"
"1452","","","","","3","html-slider-response","312","","","","2",""
"873","","","","","3","html-keyboard-response","313","","","","",""
"3040","coffin","barua,kioo,tubag,hulma","kioo","v","3","html-keyboard-response","314","v","kioo","true","","1"
"1949","","","","","3","html-slider-response","315","","","","5",""
"839","","","","","3","html-keyboard-response","316","","","","",""
"4768","magazine","gundi,mchawi,kiti,bahandi","kiti","j","3","html-keyboard-response","317","v","mchawi","false","","4"
"2095","","","","","3","html-slider-response","318","","","","2",""
"870","","","","","3","html-keyboard-response","319","","","","",""
"1710","column","pundok,dila,ufagio,pala","ufagio","j","3","html-keyboard-response","320","j","ufagio","true","","1"
"2202","","","","","3","html-slider-response","321","","","","5",""
"2010","","","","","3","html-keyboard-response","322","","","","",""
"3112","number","shule,kengele,mundamo,choori","mundamo","j","3","html-keyboard-response","323","j","mundamo","true","","4"
"1565","","","","","3","html-slider-response","324","","","","2",""
"1686","","","","","3","html-keyboard-response","325","","","","",""
"3047","rose","singizi,mwanake,paghalad,amani","paghalad","j","3","html-keyboard-response","326","v","mwanake","false","","4"
"1678","","","","","3","html-slider-response","327","","","","2",""
"879","","","","","3","html-keyboard-response","328","","","","",""
"3776","eel","ishara,kunywa,msumari,kabuang","msumari","j","3","html-keyboard-response","329","j","msumari","true","","4"
"1433","","","","","3","html-slider-response","330","","","","2",""
"838","","","","","3","html-keyboard-response","331","","","","",""
"3775","gift","baba,nyange,baso,pagtawag","pagtawag","n","3","html-keyboard-response","332","n","pagtawag","true","","4"
"1821","","","","","3","html-slider-response","333","","","","2",""
"912","","","","","3","html-keyboard-response","334","","","","",""
"1679","apple","ukame,estante,kisu,edad","kisu","j","3","html-keyboard-response","335","j","kisu","true","","1"
"1644","","","","","3","html-slider-response","336","","","","5",""
"1545","","","","","3","html-keyboard-response","337","","","","",""
"1567","wheel","punda,bafuni,tawo,baadaye","bafuni","v","3","html-keyboard-response","338","v","bafuni","true","","1"
"2313","","","","","3","html-slider-response","339","","","","5",""
"730","","","","","3","html-keyboard-response","340","","","","",""
"3095","knee","duka,mvuke,kubale,bili","duka","f","3","html-keyboard-response","341","v","mvuke","false","","4"
"1823","","","","","3","html-slider-response","342","","","","2",""
"693","","","","","3","html-keyboard-response","343","","","","",""
"1535","basket","kumbuka,kumba,utepe,hasira","kumba","v","3","html-keyboard-response","344","v","kumba","true","","1"
"2661","","","","","3","html-slider-response","345","","","","5",""
"598","","","","","3","html-keyboard-response","346","","","","",""
"3263","park","tambok,pwani,ihalas,bunifu","bunifu","n","3","html-keyboard-response","347","f","tambok","false","","4"
"1511","","","","","3","html-slider-response","348","","","","2",""
"1093","","","","","3","html-keyboard-response","349","","","","",""
"3143","finger","simu,moyo,sufuria,lima","moyo","v","3","html-keyboard-response","350","n","lima","false","","4"
"1570","","","","","3","html-slider-response","351","","","","2",""
"699","","","","","3","html-keyboard-response","352","","","","",""
"1743","boat","hamsi,pombe,agalon,kitanda","agalon","j","3","html-keyboard-response","353","n","kitanda","false","","4"
"1650","","","","","3","html-slider-response","354","","","","2",""
"712","","","","","3","html-keyboard-response","355","","","","",""
"2158","hill","kushoto,kukimba,sweta,matumbo","matumbo","n","3","html-keyboard-response","356","j","sweta","false","","4"
"1263","","","","","3","html-slider-response","357","","","","2",""
"1126","","","","","3","html-keyboard-response","358","","","","",""
"3839","train","itik,dakika,sayari,mungu","sayari","j","3","html-keyboard-response","359","n","mungu","false","","4"
"1020","","","","","3","html-slider-response","360","","","","2",""
"585","","","","","3","html-keyboard-response","361","","","","",""
"3615","wolf","kaburi,ndizi,mchuzi,lugha","lugha","n","3","html-keyboard-response","362","v","ndizi","false","","4"
"1174","","","","","3","html-slider-response","363","","","","2",""
"671","","","","","3","html-keyboard-response","364","","","","",""
"4279","snake","jansa,karon,mvringo,pagtukod","pagtukod","n","3","html-keyboard-response","365","n","pagtukod","true","","4"
"1584","","","","","3","html-slider-response","366","","","","2",""
"621","","","","","3","html-keyboard-response","367","","","","",""
"3095","tooth","kijiko,uadui,pahiyum,kabalaka","kabalaka","n","3","html-keyboard-response","368","f","kijiko","false","","4"
"1466","","","","","3","html-slider-response","369","","","","2",""
"754","","","","","3","html-keyboard-response","370","","","","",""
"3527","notebook","msitu,kemia,kila,mdudu","kemia","v","3","html-keyboard-response","371","j","kila","false","","4"
"1625","","","","","3","html-slider-response","372","","","","2",""
"691","","","","","3","html-keyboard-response","373","","","","",""
"2399","flag","trekta,ndege,mkate,kawa","trekta","f","3","html-keyboard-response","374","n","kawa","false","","4"
"1377","","","","","3","html-slider-response","375","","","","2",""
"668","","","","","3","html-keyboard-response","376","","","","",""
"4431","squirrel","mahugaw,hofu,ukweli,kichwa","hofu","v","3","html-keyboard-response","377","j","ukweli","false","","4"
"1354","","","","","3","html-slider-response","378","","","","2",""
"1370","","","","","3","html-keyboard-response","379","","","","",""
"4903","door","tena,soko,nyota,surali","surali","n","3","html-keyboard-response","380","v","soko","false","","4"
"1449","","","","","3","html-slider-response","381","","","","2",""
"541","","","","","3","html-keyboard-response","382","","","","",""
"4087","salmon","mzungu,seri,sensilyo,baharia","sensilyo","j","3","html-keyboard-response","383","j","sensilyo","true","","4"
"1605","","","","","3","html-slider-response","384","","","","2",""
"856","","","","","3","html-keyboard-response","385","","","","",""
"2975","shoulder","kelele,mkuu,ndaniya,guruwe","mkuu","v","3","html-keyboard-response","386","f","kelele","false","","4"
"1190","","","","","3","html-slider-response","387","","","","2",""
"591","","","","","3","html-keyboard-response","388","","","","",""
"3207","lamp","daub,bilaska,afya,mbolea","afya","j","3","html-keyboard-response","389","f","daub","false","","4"
"1122","","","","","3","html-slider-response","390","","","","2",""
"586","","","","","3","html-keyboard-response","391","","","","",""
"2160","shelf","pamahaw,bungtod,kadaot,awit","pamahaw","f","3","html-keyboard-response","392","f","pamahaw","true","","1"
"1771","","","","","3","html-slider-response","393","","","","5",""
"553","","","","","3","html-keyboard-response","394","","","","",""
"2470","human","tinapay,bado,kikapu,punguza","tinapay","f","3","html-keyboard-response","395","j","kikapu","false","","4"
"1407","","","","","3","html-slider-response","396","","","","2",""
"1813","","","","","3","html-keyboard-response","397","","","","",""
"3111","towel","tembo,funzi,pito,pagpalit","pagpalit","n","3","html-keyboard-response","398","v","funzi","false","","4"
"1818","","","","","3","html-slider-response","399","","","","2",""
"675","","","","","3","html-keyboard-response","400","","","","",""
"4159","cat","paghukom,neyemba,baki,akili","paghukom","f","3","html-keyboard-response","401","n","akili","false","","4"
"1923","","","","","3","html-slider-response","402","","","","2",""
"666","","","","","3","html-keyboard-response","403","","","","",""
"3495","spider","bunyag,mkboa,kamwe,atop","kamwe","j","3","html-keyboard-response","404","f","bunyag","false","","4"
"1606","","","","","3","html-slider-response","405","","","","2",""
"422","","","","","3","html-keyboard-response","406","","","","",""
"3744","window","nanga,kweli,kujenga,umaga","kweli","v","3","html-keyboard-response","407","n","umaga","false","","4"
"1505","","","","","3","html-slider-response","408","","","","2",""
"589","","","","","3","html-keyboard-response","409","","","","",""
"1255","woman","bandari,bituin,kovuli,pagtabon","pagtabon","n","3","html-keyboard-response","410","n","pagtabon","true","","1"
"2318","","","","","3","html-slider-response","411","","","","5",""
"583","","","","","3","html-keyboard-response","412","","","","",""
"3136","giraffe","daraja,mahitabo,jumatu,hangyo","mahitabo","v","3","html-keyboard-response","413","v","mahitabo","true","","4"
"1293","","","","","3","html-slider-response","414","","","","2",""
"527","","","","","3","html-keyboard-response","415","","","","",""
"7247","elephant","kito,petye,pagduol,suka","kito","f","3","html-keyboard-response","416","n","suka","false","","4"
"4386","","","","","3","html-slider-response","417","","","","2",""
"691","","","","","3","html-keyboard-response","418","","","","",""
"2519","cave","kesho,ganti,maisha,nyundo","kesho","f","3","html-keyboard-response","419","f","kesho","true","","4"
"1570","","","","","3","html-slider-response","420","","","","2",""
"707","","","","","3","html-keyboard-response","421","","","","",""
"2815","bread","kaili,dari,dizeli,bugas","dari","v","3","html-keyboard-response","422","f","kaili","false","","4"
"1960","","","","","3","html-slider-response","423","","","","2",""
"1876","","","","","3","html-keyboard-response","424","","","","",""
"6631","stone","wingi,ulimwengu,mkasi,asili","wingi","f","3","html-keyboard-response","425","j","mkasi","false","","4"
"3441","","","","","3","html-slider-response","426","","","","2",""
"1289","","","","","3","html-keyboard-response","427","","","","",""
"1839","donkey","bloke,elfu,lalake,rombus","elfu","v","3","html-keyboard-response","428","f","bloke","false","","4"
"2237","","","","","3","html-slider-response","429","","","","2",""
"1206","","","","","3","html-keyboard-response","430","","","","",""
"30","bridge","sahani,daima,ngono,panya","sahani","f","3","html-keyboard-response","431","j","ngono","false","","4"
"2956","","","","","3","html-slider-response","432","","","","2",""
"1506","","","","","3","html-keyboard-response","433","","","","",""
"4295","bonfire","mwezi,mfuko,goti,kusanya","goti","j","3","html-keyboard-response","434","v","mfuko","false","","4"
"1395","","","","","3","html-slider-response","435","","","","2",""
"1312","","","","","3","html-keyboard-response","436","","","","",""
"5927","book","mali,kuhesa,picha,mara","mali","f","3","html-keyboard-response","437","j","picha","false","","4"
"1908","","","","","3","html-slider-response","438","","","","2",""
"1184","","","","","3","html-keyboard-response","439","","","","",""
"2504","fish","bala,baho,buli,imani","buli","j","3","html-keyboard-response","440","f","bala","false","","4"
"2149","","","","","3","html-slider-response","441","","","","2",""
"1238","","","","","3","html-keyboard-response","442","","","","",""
"3360","spoon","betri,pagsulod,nzuri,ngazi","pagsulod","v","3","html-keyboard-response","443","n","ngazi","false","","4"
"1941","","","","","3","html-slider-response","444","","","","2",""
"1055","","","","","3","html-keyboard-response","445","","","","",""
"3311","scissors","duga,mtawa,suga,tanuri","tanuri","n","3","html-keyboard-response","446","v","mtawa","false","","4"
"1488","","","","","3","html-slider-response","447","","","","2",""
"1188","","","","","3","html-keyboard-response","448","","","","",""
"3391","page","wakala,ishiri,skina,wimbo","wimbo","n","3","html-keyboard-response","449","j","skina","false","","4"
"1573","","","","","3","html-slider-response","450","","","","2",""
"1015","","","","","3","html-keyboard-response","451","","","","",""
"1496","nose","gubat,sehemu,kopa,kidole","sehemu","v","3","html-keyboard-response","452","v","sehemu","true","","1"
"3326","","","","","3","html-slider-response","453","","","","5",""
"1670","","","","","3","html-keyboard-response","454","","","","",""
"3024","ceiling","kugita,kawaida,maua,rayna","maua","j","3","html-keyboard-response","455","n","rayna","false","","4"
"1984","","","","","3","html-slider-response","456","","","","2",""
"1531","","","","","3","html-keyboard-response","457","","","","",""
"3408","bucket","baga,kiatu,ijayo,init","kiatu","v","3","html-keyboard-response","458","n","init","false","","4"
"2223","","","","","3","html-slider-response","459","","","","4",""
"1181","","","","","3","html-keyboard-response","460","","","","",""
"1287","berry","abogado,kofia,nogozi,kinywa","kofia","v","3","html-keyboard-response","461","v","kofia","true","","1"
"3314","","","","","3","html-slider-response","462","","","","5",""
"1458","","","","","3","html-keyboard-response","463","","","","",""
"1390","mother","kahawa,mbuzi,jokofu,babaye","babaye","n","3","html-keyboard-response","464","n","babaye","true","","1"
"2077","","","","","3","html-slider-response","465","","","","5",""
"1150","","","","","3","html-keyboard-response","466","","","","",""
"4111","mosquito","isda,taras,gutom,martilyo","martilyo","n","3","html-keyboard-response","467","n","martilyo","true","","4"
"1893","","","","","3","html-slider-response","468","","","","4",""
"1103","","","","","3","html-keyboard-response","469","","","","",""
"3959","perfume","bino,sungura,ndogo,katuyoan","katuyoan","n","3","html-keyboard-response","470","n","katuyoan","true","","4"
"1934","","","","","3","html-slider-response","471","","","","4",""
"1231","","","","","3","html-keyboard-response","472","","","","",""
"4375","sheet","bililhon,juuya,watu,kamantis","bililhon","f","3","html-keyboard-response","473","f","bililhon","true","","4"
"1604","","","","","3","html-slider-response","474","","","","4",""
"1041","","","","","3","html-keyboard-response","475","","","","",""
"1024","puppet","mazishi,napulo,lamok,godoro","mazishi","f","3","html-keyboard-response","476","f","mazishi","true","","1"
"3326","","","","","3","html-slider-response","477","","","","5",""
"1126","","","","","3","html-keyboard-response","478","","","","",""
"5032","poster","nchi,fedha,kasuko,madungog","madungog","n","3","html-keyboard-response","479","n","madungog","true","","4"
"2037","","","","","3","html-slider-response","480","","","","2",""
"558","","","","","3","html-keyboard-response","481","","","","",""
"2415","music","mraba,mageho,tumbo,baiski","baiski","n","3","html-keyboard-response","482","j","tumbo","false","","4"
"1753","","","","","3","html-slider-response","483","","","","2",""
"733","","","","","3","html-keyboard-response","484","","","","",""
"1791","key","miaka,goma,chombo,ahos","chombo","j","3","html-keyboard-response","485","v","goma","false","","4"
"1114","","","","","3","html-slider-response","486","","","","2",""
"411","","","","","3","html-keyboard-response","487","","","","",""
"2688","sock","mamba,ndoora,kimysa,mtirka","mamba","f","3","html-keyboard-response","488","f","mamba","true","","4"
"2097","","","","","3","html-slider-response","489","","","","5",""
"418","","","","","3","html-keyboard-response","490","","","","",""
"3767","marker","maji,mapafu,salita,atay","maji","f","3","html-keyboard-response","491","f","maji","true","","4"
"1972","","","","","3","html-slider-response","492","","","","2",""
"502","","","","","3","html-keyboard-response","493","","","","",""
"1911","office","leso,hazini,yatima,kuna","leso","f","3","html-keyboard-response","494","n","kuna","false","","4"
"1192","","","","","3","html-slider-response","495","","","","2",""
"381","","","","","3","html-keyboard-response","496","","","","",""
"2991","shoe","nyeusi,hatua,uyoga,kama","uyoga","j","3","html-keyboard-response","497","n","kama","false","","4"
"1617","","","","","3","html-slider-response","498","","","","2",""
"381","","","","","3","html-keyboard-response","499","","","","",""
"3342","cop","mechezo,bustani,jikoni,bakus","mechezo","f","3","html-keyboard-response","500","v","bustani","false","","4"
"1288","","","","","3","html-slider-response","501","","","","2",""
"1549","","","","","3","html-keyboard-response","502","","","","",""
"2455","bank","silingan,kudhibi,tualya,ofisi","silingan","f","3","html-keyboard-response","503","f","silingan","true","","4"
"1522","","","","","3","html-slider-response","504","","","","2",""
"618","","","","","3","html-keyboard-response","505","","","","",""
"1623","letter","filimbi,chuma,kifua,uhuru","kifua","j","3","html-keyboard-response","506","j","kifua","true","","1"
"1358","","","","","3","html-slider-response","507","","","","5",""
"1031","","","","","3","html-keyboard-response","508","","","","",""
"1166","dog","lubi,washia,bahari,kalamu","bahari","j","3","html-keyboard-response","509","j","bahari","true","","1"
"1863","","","","","3","html-slider-response","510","","","","5",""
"511","","","","","3","html-keyboard-response","511","","","","",""
"2496","shop","nopya,samaki,kerida,ndezu","samaki","v","3","html-keyboard-response","512","n","ndezu","false","","4"
"1280","","","","","3","html-slider-response","513","","","","2",""
"325","","","","","3","html-keyboard-response","514","","","","",""
"2287","flower","tamasha,lobo,usiku,bega","bega","n","3","html-keyboard-response","515","n","bega","true","","4"
"2002","","","","","3","html-slider-response","516","","","","2",""
"579","","","","","3","html-keyboard-response","517","","","","",""
"1342","cigar","ndugu,adhabu,kuta,mlango","adhabu","v","3","html-keyboard-response","518","v","adhabu","true","","1"
"2161","","","","","3","html-slider-response","519","","","","5",""
"618","","","","","3","html-keyboard-response","520","","","","",""
"2191","hammer","napakyas,mekno,kitovu,layag","napakyas","f","3","html-keyboard-response","521","n","layag","false","","4"
"1320","","","","","3","html-slider-response","522","","","","2",""
"444","","","","","3","html-keyboard-response","523","","","","",""
"3048","fork","baboy,paghago,gorisi,mgonjwa","mgonjwa","n","3","html-keyboard-response","524","n","mgonjwa","true","","4"
"2461","","","","","3","html-slider-response","525","","","","2",""
"1521","","","","","3","html-keyboard-response","526","","","","",""
"1295","sun","bendi,luha,basi,uongo","basi","j","3","html-keyboard-response","527","j","basi","true","","1"
"2493","","","","","3","html-slider-response","528","","","","5",""
"600","","","","","3","html-keyboard-response","529","","","","",""
"2605","ladder","mashua,pangalan,mwanga,kamba","pangalan","v","3","html-keyboard-response","530","f","mashua","false","","4"
"1541","","","","","3","html-slider-response","531","","","","4",""
"447","","","","","3","html-keyboard-response","532","","","","",""
"1463","banana","kasamok,kazi,hagdan,twai","kazi","v","3","html-keyboard-response","533","v","kazi","true","","1"
"1495","","","","","3","html-slider-response","534","","","","5",""
"677","","","","","3","html-keyboard-response","535","","","","",""
"2727","pudding","abug,aibu,mpishi,iring","aibu","v","3","html-keyboard-response","536","j","mpishi","false","","4"
"1567","","","","","3","html-slider-response","537","","","","2",""
"950","","","","","3","html-keyboard-response","538","","","","",""
"3478","body","nyundu,jibini,kununa,tindashan","tindashan","n","3","html-keyboard-response","539","n","tindashan","true","","4"
"1575","","","","","3","html-slider-response","540","","","","2",""
"444","","","","","3","html-keyboard-response","541","","","","",""
"3047","bed","mapintas,kalipay,haraka,starehe","mapintas","f","3","html-keyboard-response","542","n","starehe","false","","4"
"1696","","","","","3","html-slider-response","543","","","","2",""
"1236","","","","","3","html-keyboard-response","544","","","","",""
"4310","tissue","lamigas,kisiwa,ugomvi,katika","ugomvi","j","3","html-keyboard-response","545","f","lamigas","false","","4"
"1728","","","","","3","html-slider-response","546","","","","5",""
"484","","","","","3","html-keyboard-response","547","","","","",""
"2846","candle","gabi,farasi,geza,kupanda","geza","j","3","html-keyboard-response","548","f","gabi","false","","4"
"1871","","","","","3","html-slider-response","549","","","","2",""
"406","","","","","3","html-keyboard-response","550","","","","",""
"1447","tomato","chupi,mvua,chupa,takatak","mvua","v","3","html-keyboard-response","551","v","mvua","true","","1"
"1960","","","","","3","html-slider-response","552","","","","5",""
"509","","","","","3","html-keyboard-response","553","","","","",""
"14022","list","alizeti,wingu,kuzama,kaso","wingu","v","3","html-keyboard-response","554","f","alizeti","false","","4"
"1881","","","","","3","html-slider-response","555","","","","2",""
"771","","","","","3","html-keyboard-response","556","","","","",""
"2351","olive","bata,siagi,jiwe,welder","jiwe","j","3","html-keyboard-response","557","v","siagi","false","","4"
"1163","","","","","3","html-slider-response","558","","","","2",""
"426","","","","","3","html-keyboard-response","559","","","","",""
"1567","picture","silya,chaki,kubwa,asin","kubwa","j","3","html-keyboard-response","560","j","kubwa","true","","1"
"1212","","","","","3","html-slider-response","561","","","","2",""
"721","","","","","3","html-keyboard-response","562","","","","",""
"4449","page","wakala,wimbo,ishiri,skina","wimbo","v","4","html-keyboard-response","888","n","skina","false","",""
"1657","","","","","4","html-slider-response","889","","","","2",""
"1880","sheet","juuya,watu,kamantis,bililhon","bililhon","n","4","html-keyboard-response","890","n","bililhon","true","",""
"1804","","","","","4","html-slider-response","891","","","","5",""
"2933","ladder","mashua,mwanga,pangalan,kamba","pangalan","j","4","html-keyboard-response","892","j","pangalan","true","",""
"1652","","","","","4","html-slider-response","893","","","","4",""
"5517","door","tena,surali,soko,nyota","surali","v","4","html-keyboard-response","894","v","surali","true","",""
"2723","","","","","4","html-slider-response","895","","","","2",""
"5916","spider","kamwe,bunyag,mkboa,atop","kamwe","f","4","html-keyboard-response","896","j","mkboa","false","",""
"1364","","","","","4","html-slider-response","897","","","","4",""
"3198","picture","kubwa,silya,chaki,asin","kubwa","f","4","html-keyboard-response","898","j","chaki","false","",""
"1899","","","","","4","html-slider-response","899","","","","4",""
"3064","boat","hamsi,pombe,agalon,kitanda","agalon","j","4","html-keyboard-response","900","j","agalon","true","",""
"1100","","","","","4","html-slider-response","901","","","","5",""
"3640","donkey","bloke,elfu,lalake,rombus","elfu","v","4","html-keyboard-response","902","v","elfu","true","",""
"1417","","","","","4","html-slider-response","903","","","","5",""
"2608","book","kuhesa,mali,picha,mara","mali","v","4","html-keyboard-response","904","v","mali","true","",""
"1528","","","","","4","html-slider-response","905","","","","5",""
"4737","cup","matumai,dagat,shimoni,jeraha","matumai","f","4","html-keyboard-response","906","f","matumai","true","",""
"1384","","","","","4","html-slider-response","907","","","","4",""
"3961","sun","basi,bendi,luha,uongo","basi","f","4","html-keyboard-response","908","f","basi","true","",""
"1341","","","","","4","html-slider-response","909","","","","4",""
"2775","pudding","abug,mpishi,aibu,iring","aibu","j","4","html-keyboard-response","910","v","mpishi","false","",""
"1606","","","","","4","html-slider-response","911","","","","4",""
"4566","human","bado,kikapu,punguza,tinapay","tinapay","n","4","html-keyboard-response","912","j","punguza","false","",""
"1349","","","","","4","html-slider-response","913","","","","4",""
"2222","squirrel","mahugaw,hofu,ukweli,kichwa","hofu","v","4","html-keyboard-response","914","j","ukweli","false","",""
"1407","","","","","4","html-slider-response","915","","","","4",""
"4835","park","bunifu,tambok,pwani,ihalas","bunifu","f","4","html-keyboard-response","916","v","tambok","false","",""
"1496","","","","","4","html-slider-response","917","","","","2",""
"3397","poster","nchi,fedha,kasuko,madungog","madungog","n","4","html-keyboard-response","918","n","madungog","true","",""
"1701","","","","","4","html-slider-response","919","","","","4",""
"4279","wolf","kaburi,ndizi,mchuzi,lugha","lugha","n","4","html-keyboard-response","920","n","lugha","true","",""
"1798","","","","","4","html-slider-response","921","","","","4",""
"5669","cat","neyemba,paghukom,baki,akili","paghukom","v","4","html-keyboard-response","922","j","baki","false","",""
"1610","","","","","4","html-slider-response","923","","","","2",""
"4082","fish","bala,baho,imani,buli","buli","n","4","html-keyboard-response","924","n","buli","true","",""
"1502","","","","","4","html-slider-response","925","","","","5",""
"5069","tooth","kijiko,uadui,kabalaka,pahiyum","kabalaka","j","4","html-keyboard-response","926","n","pahiyum","false","",""
"1710","","","","","4","html-slider-response","927","","","","2",""
"3343","cave","ganti,maisha,kesho,nyundo","kesho","j","4","html-keyboard-response","928","v","maisha","false","",""
"1151","","","","","4","html-slider-response","929","","","","4",""
"2428","lamp","daub,afya,bilaska,mbolea","afya","v","4","html-keyboard-response","930","v","afya","true","",""
"1697","","","","","4","html-slider-response","931","","","","4",""
"4347","banana","kazi,kasamok,hagdan,twai","kazi","f","4","html-keyboard-response","932","v","kasamok","false","",""
"1437","","","","","4","html-slider-response","933","","","","4",""
"2999","bonfire","mwezi,mfuko,goti,kusanya","goti","j","4","html-keyboard-response","934","n","kusanya","false","",""
"1565","","","","","4","html-slider-response","935","","","","2",""
"3829","cop","bustani,jikoni,bakus,mechezo","mechezo","n","4","html-keyboard-response","936","n","mechezo","true","",""
"1752","","","","","4","html-slider-response","937","","","","5",""
"2770","marker","mapafu,salita,atay,maji","maji","n","4","html-keyboard-response","938","f","mapafu","false","",""
"1239","","","","","4","html-slider-response","939","","","","5",""
"2580","window","nanga,kujenga,kweli,umaga","kweli","j","4","html-keyboard-response","940","j","kweli","true","",""
"1213","","","","","4","html-slider-response","941","","","","5",""
"4655","body","nyundu,jibini,kununa,tindashan","tindashan","n","4","html-keyboard-response","942","n","tindashan","true","",""
"1359","","","","","4","html-slider-response","943","","","","2",""
"2628","apple","ukame,kisu,estante,edad","kisu","v","4","html-keyboard-response","944","v","kisu","true","",""
"1274","","","","","4","html-slider-response","945","","","","4",""
"3411","salmon","mzungu,sensilyo,seri,baharia","sensilyo","v","4","html-keyboard-response","946","n","baharia","false","",""
"1401","","","","","4","html-slider-response","947","","","","4",""
"3409","bed","kalipay,haraka,mapintas,starehe","mapintas","j","4","html-keyboard-response","948","n","starehe","false","",""
"2412","","","","","4","html-slider-response","949","","","","5",""
"3601","berry","abogado,nogozi,kinywa,kofia","kofia","n","4","html-keyboard-response","950","n","kofia","true","",""
"1357","","","","","4","html-slider-response","951","","","","4",""
"2903","mirror","rangi,sulagma,kanding,furaha","sulagma","v","4","html-keyboard-response","952","v","sulagma","true","",""
"1290","","","","","4","html-slider-response","953","","","","4",""
"3481","flag","ndege,mkate,trekta,kawa","trekta","j","4","html-keyboard-response","954","j","trekta","true","",""
"1184","","","","","4","html-slider-response","955","","","","4",""
"5085","shoulder","kelele,ndaniya,guruwe,mkuu","mkuu","n","4","html-keyboard-response","956","n","mkuu","true","",""
"1374","","","","","4","html-slider-response","957","","","","2",""
"4510","tissue","lamigas,kisiwa,katika,ugomvi","ugomvi","n","4","html-keyboard-response","958","j","katika","false","",""
"1528","","","","","4","html-slider-response","959","","","","4",""
"2804","notebook","msitu,kila,kemia,mdudu","kemia","j","4","html-keyboard-response","960","v","kila","false","",""
"1088","","","","","4","html-slider-response","961","","","","4",""
"2811","snake","jansa,karon,mvringo,pagtukod","pagtukod","n","4","html-keyboard-response","962","n","pagtukod","true","",""
"1345","","","","","4","html-slider-response","963","","","","5",""
"4747","finger","simu,sufuria,moyo,lima","moyo","j","4","html-keyboard-response","964","j","moyo","true","",""
"2132","","","","","4","html-slider-response","965","","","","2",""
"4678","basket","kumba,kumbuka,utepe,hasira","kumba","f","4","html-keyboard-response","966","n","hasira","false","",""
"1122","","","","","4","html-slider-response","967","","","","4",""
"4018","curtain","lisud,mchanga,bulwawan,chubani","mchanga","v","4","html-keyboard-response","968","v","mchanga","true","",""
"1961","","","","","4","html-slider-response","969","","","","4",""
"3113","perfume","bino,sungura,ndogo,katuyoan","katuyoan","n","4","html-keyboard-response","970","n","katuyoan","true","",""
"1450","","","","","4","html-slider-response","971","","","","4",""
"3722","key","miaka,goma,ahos,chombo","chombo","n","4","html-keyboard-response","972","n","chombo","true","",""
"1698","","","","","4","html-slider-response","973","","","","4",""
"3104","olive","bata,siagi,welder,jiwe","jiwe","n","4","html-keyboard-response","974","j","welder","false","",""
"1856","","","","","4","html-slider-response","975","","","","4",""
"3909","rose","singizi,paghalad,mwanake,amani","paghalad","v","4","html-keyboard-response","976","v","paghalad","true","",""
"2093","","","","","4","html-slider-response","977","","","","4",""
"5527","bridge","sahani,daima,ngono,panya","sahani","f","4","html-keyboard-response","978","n","panya","false","",""
"2486","","","","","4","html-slider-response","979","","","","4",""
"2543","hill","kushoto,matumbo,kukimba,sweta","matumbo","v","4","html-keyboard-response","980","n","sweta","false","",""
"1638","","","","","4","html-slider-response","981","","","","5",""
"3670","letter","kifua,filimbi,chuma,uhuru","kifua","f","4","html-keyboard-response","982","j","chuma","false","",""
"1883","","","","","4","html-slider-response","983","","","","4",""
"2337","sock","ndoora,kimysa,mamba,mtirka","mamba","j","4","html-keyboard-response","984","j","mamba","true","",""
"1208","","","","","4","html-slider-response","985","","","","5",""
"3340","fork","baboy,mgonjwa,paghago,gorisi","mgonjwa","v","4","html-keyboard-response","986","j","paghago","false","",""
"1177","","","","","4","html-slider-response","987","","","","4",""
"6530","box","adui,kuacha,rafiki,kitande","adui","f","4","html-keyboard-response","988","f","adui","true","",""
"1785","","","","","4","html-slider-response","989","","","","4",""
"2587","gift","baba,pagtawag,nyange,baso","pagtawag","v","4","html-keyboard-response","990","v","pagtawag","true","",""
"1509","","","","","4","html-slider-response","991","","","","4",""
"2000","bucket","baga,kiatu,ijayo,init","kiatu","v","4","html-keyboard-response","992","n","init","false","",""
"1568","","","","","4","html-slider-response","993","","","","5",""
"3812","shop","samaki,nopya,kerida,ndezu","samaki","f","4","html-keyboard-response","994","n","ndezu","false","",""
"1053","","","","","4","html-slider-response","995","","","","4",""
"2943","puppet","napulo,lamok,godoro,mazishi","mazishi","n","4","html-keyboard-response","996","v","lamok","false","",""
"1281","","","","","4","html-slider-response","997","","","","4",""
"5593","nose","gubat,kopa,kidole,sehemu","sehemu","n","4","html-keyboard-response","998","n","sehemu","true","",""
"979","","","","","4","html-slider-response","999","","","","4",""
"1900","music","mraba,baiski,mageho,tumbo","baiski","v","4","html-keyboard-response","1000","n","tumbo","false","",""
"1671","","","","","4","html-slider-response","1001","","","","5",""
"2853","dog","lubi,bahari,washia,kalamu","bahari","v","4","html-keyboard-response","1002","v","bahari","true","",""
"1280","","","","","4","html-slider-response","1003","","","","4",""
"2010","eel","ishara,msumari,kunywa,kabuang","msumari","v","4","html-keyboard-response","1004","v","msumari","true","",""
"1558","","","","","4","html-slider-response","1005","","","","4",""
"4246","number","shule,kengele,mundamo,choori","mundamo","j","4","html-keyboard-response","1006","j","mundamo","true","",""
"1954","","","","","4","html-slider-response","1007","","","","5",""
"6293","tomato","mvua,chupi,chupa,takatak","mvua","f","4","html-keyboard-response","1008","j","chupa","false","",""
"1174","","","","","4","html-slider-response","1009","","","","4",""
"3519","coffin","barua,tubag,hulma,kioo","kioo","n","4","html-keyboard-response","1010","f","barua","false","",""
"1455","","","","","4","html-slider-response","1011","","","","2",""
"3297","knee","mvuke,kubale,duka,bili","duka","j","4","html-keyboard-response","1012","f","mvuke","false","",""
"1283","","","","","4","html-slider-response","1013","","","","4",""
"3040","woman","bandari,bituin,pagtabon,kovuli","pagtabon","j","4","html-keyboard-response","1014","j","pagtabon","true","",""
"1655","","","","","4","html-slider-response","1015","","","","4",""
"2652","stone","ulimwengu,mkasi,asili,wingi","wingi","n","4","html-keyboard-response","1016","v","mkasi","false","",""
"1949","","","","","4","html-slider-response","1017","","","","4",""
"3807","bread","kaili,dizeli,bugas,dari","dari","n","4","html-keyboard-response","1018","n","dari","true","",""
"1230","","","","","4","html-slider-response","1019","","","","4",""
"2430","triangle","kihozi,bentaha,liog,kasadpan","kasadpan","n","4","html-keyboard-response","1020","n","kasadpan","true","",""
"1307","","","","","4","html-slider-response","1021","","","","5",""
"3308","scissors","duga,tanuri,mtawa,suga","tanuri","v","4","html-keyboard-response","1022","v","tanuri","true","",""
"1496","","","","","4","html-slider-response","1023","","","","2",""
"3313","giraffe","daraja,jumatu,mahitabo,hangyo","mahitabo","j","4","html-keyboard-response","1024","j","mahitabo","true","",""
"2594","","","","","4","html-slider-response","1025","","","","4",""
"3191","flower","tamasha,lobo,usiku,bega","bega","n","4","html-keyboard-response","1026","f","tamasha","false","",""
"1472","","","","","4","html-slider-response","1027","","","","4",""
"3276","candle","gabi,farasi,kupanda,geza","geza","n","4","html-keyboard-response","1028","n","geza","true","",""
"1636","","","","","4","html-slider-response","1029","","","","2",""
"3896","mother","kahawa,babaye,mbuzi,jokofu","babaye","v","4","html-keyboard-response","1030","f","kahawa","false","",""
"2088","","","","","4","html-slider-response","1031","","","","4",""
"3572","towel","tembo,pagpalit,funzi,pito","pagpalit","v","4","html-keyboard-response","1032","n","pito","false","",""
"1300","","","","","4","html-slider-response","1033","","","","4",""
"3286","elephant","petye,pagduol,suka,kito","kito","n","4","html-keyboard-response","1034","j","suka","false","",""
"2089","","","","","4","html-slider-response","1035","","","","4",""
"3490","shelf","bungtod,kadaot,pamahaw,awit","pamahaw","j","4","html-keyboard-response","1036","f","bungtod","false","",""
"1250","","","","","4","html-slider-response","1037","","","","4",""
"1680","mosquito","isda,martilyo,taras,gutom","martilyo","v","4","html-keyboard-response","1038","v","martilyo","true","",""
"1381","","","","","4","html-slider-response","1039","","","","5",""
"2257","column","pundok,ufagio,dila,pala","ufagio","v","4","html-keyboard-response","1040","j","dila","false","",""
"1283","","","","","4","html-slider-response","1041","","","","4",""
"3034","pants","pintal,chuki,haki,hari","haki","j","4","html-keyboard-response","1042","v","chuki","false","",""
"1238","","","","","4","html-slider-response","1043","","","","5",""
"3494","list","alizeti,kuzama,wingu,kaso","wingu","j","4","html-keyboard-response","1044","j","wingu","true","",""
"1409","","","","","4","html-slider-response","1045","","","","4",""
"2034","bank","kudhibi,silingan,tualya,ofisi","silingan","v","4","html-keyboard-response","1046","v","silingan","true","",""
"1304","","","","","4","html-slider-response","1047","","","","5",""
"1765","clock","kartasi,mbwa,abang,osha","mbwa","v","4","html-keyboard-response","1048","n","osha","false","",""
"1626","","","","","4","html-slider-response","1049","","","","5",""
"3273","ceiling","maua,kugita,kawaida,rayna","maua","f","4","html-keyboard-response","1050","n","rayna","false","",""
"1454","","","","","4","html-slider-response","1051","","","","5",""
"2766","train","itik,sayari,dakika,mungu","sayari","v","4","html-keyboard-response","1052","v","sayari","true","",""
"980","","","","","4","html-slider-response","1053","","","","4",""
"4434","magazine","gundi,kiti,mchawi,bahandi","kiti","v","4","html-keyboard-response","1054","v","kiti","true","",""
"1553","","","","","4","html-slider-response","1055","","","","4",""
"2355","office","hazini,yatima,leso,kuna","leso","j","4","html-keyboard-response","1056","j","leso","true","",""
"1421","","","","","4","html-slider-response","1057","","","","4",""
"3078","wheel","bafuni,punda,tawo,baadaye","bafuni","f","4","html-keyboard-response","1058","j","tawo","false","",""
"1410","","","","","4","html-slider-response","1059","","","","4",""
"4226","spoon","betri,nzuri,pagsulod,ngazi","pagsulod","j","4","html-keyboard-response","1060","v","nzuri","false","",""
"10153","","","","","4","html-slider-response","1061","","","","4",""
"3290","hammer","mekno,kitovu,layag,napakyas","napakyas","n","4","html-keyboard-response","1062","j","layag","false","",""
"2004","","","","","4","html-slider-response","1063","","","","4",""
"2868","cigar","ndugu,kuta,adhabu,mlango","adhabu","j","4","html-keyboard-response","1064","n","mlango","false","",""
"1814","","","","","4","html-slider-response","1065","","","","4",""
"4958","shoe","nyeusi,hatua,uyoga,kama","uyoga","j","4","html-keyboard-response","1066","n","kama","false","",""
"1782","","","","","4","html-slider-response","1067","","","","4",""
"5034","list","wingu,alizeti,kuzama,kaso","wingu","f","5","html-keyboard-response","1069","f","wingu","true","",""
"2933","","","","","5","html-slider-response","1070","","","","4",""
"2429","number","shule,kengele,choori,mundamo","mundamo","n","5","html-keyboard-response","1071","n","mundamo","true","",""
"1661","","","","","5","html-slider-response","1072","","","","4",""
"2430","apple","ukame,estante,edad,kisu","kisu","n","5","html-keyboard-response","1073","n","kisu","true","",""
"2343","","","","","5","html-slider-response","1074","","","","5",""
"3484","knee","mvuke,kubale,duka,bili","duka","j","5","html-keyboard-response","1075","f","mvuke","false","",""
"1920","","","","","5","html-slider-response","1076","","","","4",""
"3412","tooth","kijiko,uadui,pahiyum,kabalaka","kabalaka","n","5","html-keyboard-response","1077","j","pahiyum","false","",""
"1823","","","","","5","html-slider-response","1078","","","","4",""
"6548","berry","abogado,kofia,nogozi,kinywa","kofia","v","5","html-keyboard-response","1079","j","nogozi","false","",""
"1757","","","","","5","html-slider-response","1080","","","","4",""
"3494","bridge","daima,ngono,sahani,panya","sahani","j","5","html-keyboard-response","1081","f","daima","false","",""
"2168","","","","","5","html-slider-response","1082","","","","4",""
"2851","perfume","bino,sungura,katuyoan,ndogo","katuyoan","j","5","html-keyboard-response","1083","j","katuyoan","true","",""
"1387","","","","","5","html-slider-response","1084","","","","4",""
"2464","ladder","mashua,pangalan,mwanga,kamba","pangalan","v","5","html-keyboard-response","1085","f","mashua","false","",""
"1258","","","","","5","html-slider-response","1086","","","","4",""
"3851","pants","haki,pintal,chuki,hari","haki","f","5","html-keyboard-response","1087","j","chuki","false","",""
"1678","","","","","5","html-slider-response","1088","","","","4",""
"5911","salmon","sensilyo,mzungu,seri,baharia","sensilyo","f","5","html-keyboard-response","1089","f","sensilyo","true","",""
"1872","","","","","5","html-slider-response","1090","","","","4",""
"3508","coffin","kioo,barua,tubag,hulma","kioo","f","5","html-keyboard-response","1091","v","barua","false","",""
"1441","","","","","5","html-slider-response","1092","","","","4",""
"2458","park","tambok,bunifu,pwani,ihalas","bunifu","v","5","html-keyboard-response","1093","f","tambok","false","",""
"1457","","","","","5","html-slider-response","1094","","","","4",""
"3418","giraffe","mahitabo,daraja,jumatu,hangyo","mahitabo","f","5","html-keyboard-response","1095","f","mahitabo","true","",""
"1772","","","","","5","html-slider-response","1096","","","","4",""
"3937","mirror","rangi,kanding,furaha,sulagma","sulagma","n","5","html-keyboard-response","1097","n","sulagma","true","",""
"1737","","","","","5","html-slider-response","1098","","","","4",""
"1906","ceiling","kugita,maua,kawaida,rayna","maua","v","5","html-keyboard-response","1099","n","rayna","false","",""
"1361","","","","","5","html-slider-response","1100","","","","4",""
"1850","marker","maji,mapafu,salita,atay","maji","f","5","html-keyboard-response","1101","v","mapafu","false","",""
"1369","","","","","5","html-slider-response","1102","","","","4",""
"1984","sock","ndoora,kimysa,mtirka,mamba","mamba","n","5","html-keyboard-response","1103","n","mamba","true","",""
"2872","","","","","5","html-slider-response","1104","","","","5",""
"3100","cop","bustani,jikoni,mechezo,bakus","mechezo","j","5","html-keyboard-response","1105","j","mechezo","true","",""
"1758","","","","","5","html-slider-response","1106","","","","5",""
"2433","gift","baba,nyange,baso,pagtawag","pagtawag","n","5","html-keyboard-response","1107","n","pagtawag","true","",""
"2377","","","","","5","html-slider-response","1108","","","","5",""
"2480","notebook","msitu,kemia,kila,mdudu","kemia","v","5","html-keyboard-response","1109","j","kila","false","",""
"1915","","","","","5","html-slider-response","1110","","","","4",""
"1745","bank","kudhibi,tualya,ofisi,silingan","silingan","n","5","html-keyboard-response","1111","n","silingan","true","",""
"1459","","","","","5","html-slider-response","1112","","","","5",""
"4010","letter","filimbi,kifua,chuma,uhuru","kifua","v","5","html-keyboard-response","1113","v","kifua","true","",""
"2629","","","","","5","html-slider-response","1114","","","","4",""
"2623","candle","geza,gabi,farasi,kupanda","geza","f","5","html-keyboard-response","1115","f","geza","true","",""
"1963","","","","","5","html-slider-response","1116","","","","4",""
"2848","bread","kaili,dari,dizeli,bugas","dari","v","5","html-keyboard-response","1117","v","dari","true","",""
"1344","","","","","5","html-slider-response","1118","","","","4",""
"2652","snake","pagtukod,jansa,karon,mvringo","pagtukod","f","5","html-keyboard-response","1119","f","pagtukod","true","",""
"1525","","","","","5","html-slider-response","1120","","","","4",""
"3598","rose","singizi,mwanake,amani,paghalad","paghalad","n","5","html-keyboard-response","1121","n","paghalad","true","",""
"1256","","","","","5","html-slider-response","1122","","","","4",""
"2098","hill","kushoto,kukimba,matumbo,sweta","matumbo","j","5","html-keyboard-response","1123","n","sweta","false","",""
"1469","","","","","5","html-slider-response","1124","","","","4",""
"3599","train","sayari,itik,dakika,mungu","sayari","f","5","html-keyboard-response","1125","f","sayari","true","",""
"1766","","","","","5","html-slider-response","1126","","","","4",""
"3637","shop","nopya,samaki,kerida,ndezu","samaki","v","5","html-keyboard-response","1127","n","ndezu","false","",""
"1357","","","","","5","html-slider-response","1128","","","","4",""
"2542","nose","gubat,kopa,sehemu,kidole","sehemu","j","5","html-keyboard-response","1129","j","sehemu","true","",""
"3177","","","","","5","html-slider-response","1130","","","","2",""
"3834","boat","agalon,hamsi,pombe,kitanda","agalon","f","5","html-keyboard-response","1131","f","agalon","true","",""
"1939","","","","","5","html-slider-response","1132","","","","5",""
"3304","body","tindashan,nyundu,jibini,kununa","tindashan","f","5","html-keyboard-response","1133","f","tindashan","true","",""
"1750","","","","","5","html-slider-response","1134","","","","4",""
"2052","bed","mapintas,kalipay,haraka,starehe","mapintas","f","5","html-keyboard-response","1135","n","starehe","false","",""
"2086","","","","","5","html-slider-response","1136","","","","5",""
"3494","squirrel","mahugaw,hofu,ukweli,kichwa","hofu","v","5","html-keyboard-response","1137","j","ukweli","false","",""
"1799","","","","","5","html-slider-response","1138","","","","4",""
"3677","window","kweli,nanga,kujenga,umaga","kweli","f","5","html-keyboard-response","1139","f","kweli","true","",""
"2067","","","","","5","html-slider-response","1140","","","","4",""
"4097","bonfire","mwezi,mfuko,kusanya,goti","goti","n","5","html-keyboard-response","1141","f","mwezi","false","",""
"2518","","","","","5","html-slider-response","1142","","","","4",""
"4182","fish","bala,baho,buli,imani","buli","j","5","html-keyboard-response","1143","j","buli","true","",""
"1861","","","","","5","html-slider-response","1144","","","","5",""
"3358","cat","neyemba,baki,akili,paghukom","paghukom","n","5","html-keyboard-response","1145","v","baki","false","",""
"1691","","","","","5","html-slider-response","1146","","","","4",""
"4945","spider","bunyag,kamwe,mkboa,atop","kamwe","v","5","html-keyboard-response","1147","j","mkboa","false","",""
"1639","","","","","5","html-slider-response","1148","","","","4",""
"3564","eel","ishara,msumari,kunywa,kabuang","msumari","v","5","html-keyboard-response","1149","v","msumari","true","",""
"1344","","","","","5","html-slider-response","1150","","","","4",""
"2314","woman","bandari,pagtabon,bituin,kovuli","pagtabon","v","5","html-keyboard-response","1151","v","pagtabon","true","",""
"1476","","","","","5","html-slider-response","1152","","","","4",""
"1521","magazine","gundi,mchawi,bahandi,kiti","kiti","n","5","html-keyboard-response","1153","n","kiti","true","",""
"1390","","","","","5","html-slider-response","1154","","","","4",""
"2525","pudding","aibu,abug,mpishi,iring","aibu","f","5","html-keyboard-response","1155","j","mpishi","false","",""
"1252","","","","","5","html-slider-response","1156","","","","4",""
"2335","lamp","daub,afya,bilaska,mbolea","afya","v","5","html-keyboard-response","1157","f","daub","false","",""
"1432","","","","","5","html-slider-response","1158","","","","4",""
"2498","cave","ganti,kesho,maisha,nyundo","kesho","v","5","html-keyboard-response","1159","f","ganti","false","",""
"3846","","","","","5","html-slider-response","1160","","","","4",""
"3116","shoulder","mkuu,kelele,ndaniya,guruwe","mkuu","f","5","html-keyboard-response","1161","f","mkuu","true","",""
"1777","","","","","5","html-slider-response","1162","","","","4",""
"5476","stone","wingi,ulimwengu,mkasi,asili","wingi","f","5","html-keyboard-response","1163","j","mkasi","false","",""
"1560","","","","","5","html-slider-response","1164","","","","4",""
"3044","column","pundok,dila,ufagio,pala","ufagio","j","5","html-keyboard-response","1165","v","dila","false","",""
"1555","","","","","5","html-slider-response","1166","","","","4",""
"6414","page","wimbo,wakala,ishiri,skina","wimbo","f","5","html-keyboard-response","1167","f","wimbo","true","",""
"2222","","","","","5","html-slider-response","1168","","","","4",""
"5358","shoe","nyeusi,hatua,kama,uyoga","uyoga","n","5","html-keyboard-response","1169","f","nyeusi","false","",""
"1581","","","","","5","html-slider-response","1170","","","","4",""
"4077","clock","kartasi,abang,osha,mbwa","mbwa","n","5","html-keyboard-response","1171","j","osha","false","",""
"1903","","","","","5","html-slider-response","1172","","","","4",""
"2740","towel","tembo,funzi,pagpalit,pito","pagpalit","j","5","html-keyboard-response","1173","n","pito","false","",""
"1677","","","","","5","html-slider-response","1174","","","","4",""
"4998","tomato","mvua,chupi,chupa,takatak","mvua","f","5","html-keyboard-response","1175","j","chupa","false","",""
"1325","","","","","5","html-slider-response","1176","","","","4",""
"1560","bucket","baga,ijayo,kiatu,init","kiatu","j","5","html-keyboard-response","1177","n","init","false","",""
"2207","","","","","5","html-slider-response","1178","","","","5",""
"3389","finger","simu,sufuria,moyo,lima","moyo","j","5","html-keyboard-response","1179","j","moyo","true","",""
"1475","","","","","5","html-slider-response","1180","","","","4",""
"3449","mother","kahawa,mbuzi,jokofu,babaye","babaye","n","5","html-keyboard-response","1181","v","mbuzi","false","",""
"1622","","","","","5","html-slider-response","1182","","","","4",""
"2988","human","bado,kikapu,tinapay,punguza","tinapay","j","5","html-keyboard-response","1183","j","tinapay","true","",""
"1874","","","","","5","html-slider-response","1184","","","","4",""
"6784","sun","bendi,luha,uongo,basi","basi","n","5","html-keyboard-response","1185","f","bendi","false","",""
"1851","","","","","5","html-slider-response","1186","","","","2",""
"3664","fork","baboy,paghago,mgonjwa,gorisi","mgonjwa","j","5","html-keyboard-response","1187","v","paghago","false","",""
"1446","","","","","5","html-slider-response","1188","","","","4",""
"2558","donkey","elfu,bloke,lalake,rombus","elfu","f","5","html-keyboard-response","1189","f","elfu","true","",""
"2693","","","","","5","html-slider-response","1190","","","","5",""
"2256","wolf","kaburi,ndizi,mchuzi,lugha","lugha","n","5","html-keyboard-response","1191","n","lugha","true","",""
"1705","","","","","5","html-slider-response","1192","","","","4",""
"3244","cigar","ndugu,kuta,adhabu,mlango","adhabu","j","5","html-keyboard-response","1193","j","adhabu","true","",""
"1929","","","","","5","html-slider-response","1194","","","","4",""
"2091","olive","bata,siagi,welder,jiwe","jiwe","n","5","html-keyboard-response","1195","j","welder","false","",""
"2101","","","","","5","html-slider-response","1196","","","","4",""
"1711","key","miaka,goma,ahos,chombo","chombo","n","5","html-keyboard-response","1197","n","chombo","true","",""
"1682","","","","","5","html-slider-response","1198","","","","4",""
"3491","door","tena,soko,nyota,surali","surali","n","5","html-keyboard-response","1199","f","tena","false","",""
"2121","","","","","5","html-slider-response","1200","","","","4",""
"2778","wheel","punda,tawo,baadaye,bafuni","bafuni","n","5","html-keyboard-response","1201","v","tawo","false","",""
"1807","","","","","5","html-slider-response","1202","","","","4",""
"6908","basket","kumba,kumbuka,utepe,hasira","kumba","f","5","html-keyboard-response","1203","v","kumbuka","false","",""
"1481","","","","","5","html-slider-response","1204","","","","4",""
"5234","elephant","kito,petye,pagduol,suka","kito","f","5","html-keyboard-response","1205","n","suka","false","",""
"1734","","","","","5","html-slider-response","1206","","","","4",""
"2060","office","leso,hazini,yatima,kuna","leso","f","5","html-keyboard-response","1207","f","leso","true","",""
"1416","","","","","5","html-slider-response","1208","","","","4",""
"2332","music","mraba,mageho,tumbo,baiski","baiski","n","5","html-keyboard-response","1209","j","tumbo","false","",""
"1644","","","","","5","html-slider-response","1210","","","","4",""
"4264","tissue","ugomvi,lamigas,kisiwa,katika","ugomvi","f","5","html-keyboard-response","1211","j","kisiwa","false","",""
"2017","","","","","5","html-slider-response","1212","","","","4",""
"2475","curtain","lisud,bulwawan,chubani,mchanga","mchanga","n","5","html-keyboard-response","1213","n","mchanga","true","",""
"1343","","","","","5","html-slider-response","1214","","","","4",""
"1910","flag","ndege,mkate,kawa,trekta","trekta","n","5","html-keyboard-response","1215","n","trekta","true","",""
"1272","","","","","5","html-slider-response","1216","","","","4",""
"1725","dog","lubi,washia,kalamu,bahari","bahari","n","5","html-keyboard-response","1217","n","bahari","true","",""
"1948","","","","","5","html-slider-response","1218","","","","4",""
"2678","cup","dagat,matumai,shimoni,jeraha","matumai","v","5","html-keyboard-response","1219","v","matumai","true","",""
"1545","","","","","5","html-slider-response","1220","","","","4",""
"1947","sheet","juuya,bililhon,watu,kamantis","bililhon","v","5","html-keyboard-response","1221","v","bililhon","true","",""
"1405","","","","","5","html-slider-response","1222","","","","5",""
"3423","spoon","betri,nzuri,ngazi,pagsulod","pagsulod","n","5","html-keyboard-response","1223","v","nzuri","false","",""
"1688","","","","","5","html-slider-response","1224","","","","4",""
"3252","flower","bega,tamasha,lobo,usiku","bega","f","5","html-keyboard-response","1225","f","bega","true","",""
"2246","","","","","5","html-slider-response","1226","","","","2",""
"4879","picture","kubwa,silya,chaki,asin","kubwa","f","5","html-keyboard-response","1227","j","chaki","false","",""
"1888","","","","","5","html-slider-response","1228","","","","4",""
"2681","puppet","napulo,lamok,godoro,mazishi","mazishi","n","5","html-keyboard-response","1229","v","lamok","false","",""
"2253","","","","","5","html-slider-response","1230","","","","4",""
"4872","banana","kasamok,kazi,hagdan,twai","kazi","v","5","html-keyboard-response","1231","f","kasamok","false","",""
"3364","","","","","5","html-slider-response","1232","","","","5",""
"2383","book","kuhesa,picha,mara,mali","mali","n","5","html-keyboard-response","1233","n","mali","true","",""
"2211","","","","","5","html-slider-response","1234","","","","5",""
"3666","triangle","kihozi,bentaha,kasadpan,liog","kasadpan","j","5","html-keyboard-response","1235","j","kasadpan","true","",""
"1698","","","","","5","html-slider-response","1236","","","","4",""
"3000","poster","nchi,madungog,fedha,kasuko","madungog","v","5","html-keyboard-response","1237","v","madungog","true","",""
"2433","","","","","5","html-slider-response","1238","","","","4",""
"2770","box","kuacha,rafiki,adui,kitande","adui","j","5","html-keyboard-response","1239","j","adui","true","",""
"1615","","","","","5","html-slider-response","1240","","","","4",""
"1948","mosquito","martilyo,isda,taras,gutom","martilyo","f","5","html-keyboard-response","1241","f","martilyo","true","",""
"2338","","","","","5","html-slider-response","1242","","","","5",""
"3418","shelf","bungtod,kadaot,awit,pamahaw","pamahaw","n","5","html-keyboard-response","1243","f","bungtod","false","",""
"1423","","","","","5","html-slider-response","1244","","","","4",""
"3527","scissors","tanuri,duga,mtawa,suga","tanuri","f","5","html-keyboard-response","1245","n","suga","false","",""
"1931","","","","","5","html-slider-response","1246","","","","2",""
"3489","hammer","mekno,kitovu,napakyas,layag","napakyas","j","5","html-keyboard-response","1247","n","layag","false","",""
"1607","","","","","5","html-slider-response","1248","","","","4",""
