"rt","en_word","options","swa_word","correct_answer","phase","trial_type","trial_index","input_answer","input_word","accuracy","certainty","amt_choices"
"2992","bonfire","goti,mwezi,mfuko,kusanya","goti","f","2","html-keyboard-response","106","n","kusanya","false","",""
"1509.199999988079","","","","","2","html-slider-response","107","","","","4",""
"4854","flower","tamasha,lobo,usiku,bega","bega","n","2","html-keyboard-response","108","f","tamasha","false","",""
"1473.300000011921","","","","","2","html-slider-response","109","","","","4",""
"5010","column","pundok,ufagio,dila,pala","ufagio","v","2","html-keyboard-response","110","v","ufagio","true","",""
"1910.5","","","","","2","html-slider-response","111","","","","5",""
"3233","music","mraba,mageho,tumbo,baiski","baiski","n","2","html-keyboard-response","112","j","tumbo","false","",""
"1221.0999999642372","","","","","2","html-slider-response","113","","","","4",""
"3290","spider","bunyag,mkboa,atop,kamwe","kamwe","n","2","html-keyboard-response","114","n","kamwe","true","",""
"1148.199999988079","","","","","2","html-slider-response","115","","","","5",""
"7068","fork","mgonjwa,baboy,paghago,gorisi","mgonjwa","f","2","html-keyboard-response","116","j","paghago","false","",""
"2081.399999976158","","","","","2","html-slider-response","117","","","","5",""
"3581","mosquito","isda,taras,martilyo,gutom","martilyo","j","2","html-keyboard-response","118","j","martilyo","true","",""
"1260.5","","","","","2","html-slider-response","119","","","","5",""
"4157","banana","kasamok,kazi,hagdan,twai","kazi","v","2","html-keyboard-response","120","n","twai","false","",""
"1192.1000000238419","","","","","2","html-slider-response","121","","","","2",""
"4365","cup","dagat,shimoni,jeraha,matumai","matumai","n","2","html-keyboard-response","122","n","matumai","true","",""
"1593.7000000476837","","","","","2","html-slider-response","123","","","","4",""
"3262","shop","nopya,kerida,ndezu,samaki","samaki","n","2","html-keyboard-response","124","n","samaki","true","",""
"1312","","","","","2","html-slider-response","125","","","","4",""
"2254","elephant","petye,pagduol,suka,kito","kito","n","2","html-keyboard-response","126","v","pagduol","false","",""
"1228.300000011921","","","","","2","html-slider-response","127","","","","5",""
"4450","bucket","baga,ijayo,kiatu,init","kiatu","j","2","html-keyboard-response","128","j","kiatu","true","",""
"1312.7000000476837","","","","","2","html-slider-response","129","","","","4",""
"3290","book","kuhesa,picha,mali,mara","mali","j","2","html-keyboard-response","130","j","mali","true","",""
"1180.699999988079","","","","","2","html-slider-response","131","","","","5",""
"4209","mirror","rangi,kanding,sulagma,furaha","sulagma","j","2","html-keyboard-response","132","j","sulagma","true","",""
"1727.300000011921","","","","","2","html-slider-response","133","","","","2",""
"2762","office","leso,hazini,yatima,kuna","leso","f","2","html-keyboard-response","134","j","yatima","false","",""
"995","","","","","2","html-slider-response","135","","","","4",""
"3041","body","nyundu,jibini,tindashan,kununa","tindashan","j","2","html-keyboard-response","136","n","kununa","false","",""
"4827.700000047684","","","","","2","html-slider-response","137","","","","3",""
"4218","perfume","bino,sungura,katuyoan,ndogo","katuyoan","j","2","html-keyboard-response","138","j","katuyoan","true","",""
"1222.1000000238419","","","","","2","html-slider-response","139","","","","2",""
"3244","olive","jiwe,bata,siagi,welder","jiwe","f","2","html-keyboard-response","140","f","jiwe","true","",""
"1296.9000000357628","","","","","2","html-slider-response","141","","","","4",""
"4105","magazine","gundi,mchawi,bahandi,kiti","kiti","n","2","html-keyboard-response","142","n","kiti","true","",""
"1941.0999999642372","","","","","2","html-slider-response","143","","","","5",""
"2216","bread","kaili,dizeli,dari,bugas","dari","j","2","html-keyboard-response","144","n","bugas","false","",""
"1547.1000000238419","","","","","2","html-slider-response","145","","","","4",""
"5875","cave","kesho,ganti,maisha,nyundo","kesho","f","2","html-keyboard-response","146","f","kesho","true","",""
"1758","","","","","2","html-slider-response","147","","","","5",""
"2404","ladder","mashua,pangalan,mwanga,kamba","pangalan","v","2","html-keyboard-response","148","v","pangalan","true","",""
"1609.5","","","","","2","html-slider-response","149","","","","5",""
"3815","human","bado,kikapu,punguza,tinapay","tinapay","n","2","html-keyboard-response","150","v","kikapu","false","",""
"1853.0999999642372","","","","","2","html-slider-response","151","","","","2",""
"2716","clock","mbwa,kartasi,abang,osha","mbwa","f","2","html-keyboard-response","152","j","abang","false","",""
"1148.199999988079","","","","","2","html-slider-response","153","","","","2",""
"3504","shelf","bungtod,pamahaw,kadaot,awit","pamahaw","v","2","html-keyboard-response","154","j","kadaot","false","",""
"1868","","","","","2","html-slider-response","155","","","","4",""
"2520","salmon","mzungu,sensilyo,seri,baharia","sensilyo","v","2","html-keyboard-response","156","v","sensilyo","true","",""
"1202.5","","","","","2","html-slider-response","157","","","","5",""
"4174","coffin","barua,tubag,kioo,hulma","kioo","j","2","html-keyboard-response","158","j","kioo","true","",""
"1120.5","","","","","2","html-slider-response","159","","","","4",""
"2340","notebook","msitu,kila,mdudu,kemia","kemia","n","2","html-keyboard-response","160","n","kemia","true","",""
"1390.3999999761581","","","","","2","html-slider-response","161","","","","2",""
"1996","shoulder","kelele,ndaniya,mkuu,guruwe","mkuu","j","2","html-keyboard-response","162","v","ndaniya","false","",""
"1097.199999988079","","","","","2","html-slider-response","163","","","","2",""
"4343","park","tambok,bunifu,pwani,ihalas","bunifu","v","2","html-keyboard-response","164","j","pwani","false","",""
"1633.1000000238419","","","","","2","html-slider-response","165","","","","2",""
"3113","number","shule,mundamo,kengele,choori","mundamo","v","2","html-keyboard-response","166","v","mundamo","true","",""
"1601.3999999761581","","","","","2","html-slider-response","167","","","","2",""
"3894","apple","ukame,kisu,estante,edad","kisu","v","2","html-keyboard-response","168","v","kisu","true","",""
"1463.5","","","","","2","html-slider-response","169","","","","4",""
"3705","letter","filimbi,chuma,kifua,uhuru","kifua","j","2","html-keyboard-response","170","j","kifua","true","",""
"1985.5","","","","","2","html-slider-response","171","","","","4",""
"2699","eel","ishara,msumari,kunywa,kabuang","msumari","v","2","html-keyboard-response","172","n","kabuang","false","",""
"1125.9000000357628","","","","","2","html-slider-response","173","","","","2",""
"1975","cop","bustani,jikoni,bakus,mechezo","mechezo","n","2","html-keyboard-response","174","j","bakus","false","",""
"1262","","","","","2","html-slider-response","175","","","","4",""
"2203","wolf","kaburi,lugha,ndizi,mchuzi","lugha","v","2","html-keyboard-response","176","f","kaburi","false","",""
"1978.800000011921","","","","","2","html-slider-response","177","","","","4",""
"4634","squirrel","mahugaw,hofu,ukweli,kichwa","hofu","v","2","html-keyboard-response","178","v","hofu","true","",""
"1144.9000000357628","","","","","2","html-slider-response","179","","","","4",""
"5521","nose","gubat,sehemu,kopa,kidole","sehemu","v","2","html-keyboard-response","180","j","kopa","false","",""
"1646.199999988079","","","","","2","html-slider-response","181","","","","4",""
"2871","sock","ndoora,kimysa,mamba,mtirka","mamba","j","2","html-keyboard-response","182","v","kimysa","false","",""
"1018.7000000476837","","","","","2","html-slider-response","183","","","","4",""
"3579","bank","kudhibi,silingan,tualya,ofisi","silingan","v","2","html-keyboard-response","184","n","ofisi","false","",""
"1321.300000011921","","","","","2","html-slider-response","185","","","","5",""
"4424","donkey","bloke,lalake,elfu,rombus","elfu","j","2","html-keyboard-response","186","j","elfu","true","",""
"1637.1000000238419","","","","","2","html-slider-response","187","","","","4",""
"5835","poster","nchi,fedha,kasuko,madungog","madungog","n","2","html-keyboard-response","188","n","madungog","true","",""
"1822.5","","","","","2","html-slider-response","189","","","","4",""
"3091","puppet","napulo,lamok,godoro,mazishi","mazishi","n","2","html-keyboard-response","190","n","mazishi","true","",""
"2491.199999988079","","","","","2","html-slider-response","191","","","","4",""
"2088","hill","kushoto,kukimba,sweta,matumbo","matumbo","n","2","html-keyboard-response","192","n","matumbo","true","",""
"1021.8000000119209","","","","","2","html-slider-response","193","","","","4",""
"4394","tooth","kijiko,uadui,kabalaka,pahiyum","kabalaka","j","2","html-keyboard-response","194","f","kijiko","false","",""
"1250.300000011921","","","","","2","html-slider-response","195","","","","4",""
"2608","woman","bandari,bituin,kovuli,pagtabon","pagtabon","n","2","html-keyboard-response","196","n","pagtabon","true","",""
"1172.7999999523163","","","","","2","html-slider-response","197","","","","5",""
"29699","wheel","punda,bafuni,tawo,baadaye","bafuni","v","2","html-keyboard-response","198","v","bafuni","true","",""
"2660.800000011921","","","","","2","html-slider-response","199","","","","5",""
"3424","mother","kahawa,babaye,mbuzi,jokofu","babaye","v","2","html-keyboard-response","200","v","babaye","true","",""
"1238.800000011921","","","","","2","html-slider-response","201","","","","2",""
"2136","bed","kalipay,haraka,starehe,mapintas","mapintas","n","2","html-keyboard-response","202","j","starehe","false","",""
"1062.0999999642372","","","","","2","html-slider-response","203","","","","2",""
"2046","key","chombo,miaka,goma,ahos","chombo","f","2","html-keyboard-response","204","f","chombo","true","",""
"1450.6000000238419","","","","","2","html-slider-response","205","","","","4",""
"3486","page","wakala,ishiri,wimbo,skina","wimbo","j","2","html-keyboard-response","206","f","wakala","false","",""
"1255.199999988079","","","","","2","html-slider-response","207","","","","4",""
"2874","pants","pintal,chuki,haki,hari","haki","j","2","html-keyboard-response","208","n","hari","false","",""
"1961.1000000238419","","","","","2","html-slider-response","209","","","","5",""
"2086","sun","bendi,luha,basi,uongo","basi","j","2","html-keyboard-response","210","v","luha","false","",""
"1182.4000000357628","","","","","2","html-slider-response","211","","","","4",""
"4082","finger","simu,sufuria,lima,moyo","moyo","n","2","html-keyboard-response","212","f","simu","false","",""
"1221.1000000238419","","","","","2","html-slider-response","213","","","","4",""
"3083","shoe","nyeusi,hatua,kama,uyoga","uyoga","n","2","html-keyboard-response","214","n","uyoga","true","",""
"1167.8999999761581","","","","","2","html-slider-response","215","","","","5",""
"6403","giraffe","daraja,mahitabo,jumatu,hangyo","mahitabo","v","2","html-keyboard-response","216","v","mahitabo","true","",""
"1191.5999999642372","","","","","2","html-slider-response","217","","","","5",""
"3550","dog","bahari,lubi,washia,kalamu","bahari","f","2","html-keyboard-response","218","f","bahari","true","",""
"1250.5","","","","","2","html-slider-response","219","","","","5",""
"2558","box","kuacha,rafiki,kitande,adui","adui","n","2","html-keyboard-response","220","j","kitande","false","",""
"1345.1000000238419","","","","","2","html-slider-response","221","","","","4",""
"2028","scissors","duga,mtawa,tanuri,suga","tanuri","j","2","html-keyboard-response","222","j","tanuri","true","",""
"1675.1000000238419","","","","","2","html-slider-response","223","","","","5",""
"2731","cat","paghukom,neyemba,baki,akili","paghukom","f","2","html-keyboard-response","224","f","paghukom","true","",""
"1090.5","","","","","2","html-slider-response","225","","","","5",""
"4059","basket","kumba,kumbuka,utepe,hasira","kumba","f","2","html-keyboard-response","226","v","kumbuka","false","",""
"1165.8999999761581","","","","","2","html-slider-response","227","","","","5",""
"3026","snake","jansa,pagtukod,karon,mvringo","pagtukod","v","2","html-keyboard-response","228","v","pagtukod","true","",""
"1173.8999999761581","","","","","2","html-slider-response","229","","","","5",""
"1602","gift","baba,nyange,pagtawag,baso","pagtawag","j","2","html-keyboard-response","230","f","baba","false","",""
"1118.4000000357628","","","","","2","html-slider-response","231","","","","5",""
"2043","train","itik,sayari,dakika,mungu","sayari","v","2","html-keyboard-response","232","n","mungu","false","",""
"981.8999999761581","","","","","2","html-slider-response","233","","","","2",""
"2373","pudding","abug,mpishi,aibu,iring","aibu","j","2","html-keyboard-response","234","v","mpishi","false","",""
"1617.800000011921","","","","","2","html-slider-response","235","","","","5",""
"1858","tomato","mvua,chupi,chupa,takatak","mvua","f","2","html-keyboard-response","236","n","takatak","false","",""
"4856.699999988079","","","","","2","html-slider-response","237","","","","3",""
"28944","stone","ulimwengu,wingi,mkasi,asili","wingi","v","2","html-keyboard-response","238","n","asili","false","",""
"1973.0999999642372","","","","","2","html-slider-response","239","","","","2",""
"1712","hammer","mekno,kitovu,layag,napakyas","napakyas","n","2","html-keyboard-response","240","f","mekno","false","",""
"1564.0999999642372","","","","","2","html-slider-response","241","","","","2",""
"8079","knee","mvuke,duka,kubale,bili","duka","v","2","html-keyboard-response","242","v","duka","true","",""
"1462","","","","","2","html-slider-response","243","","","","5",""
"2150","ceiling","kugita,kawaida,maua,rayna","maua","j","2","html-keyboard-response","244","v","kawaida","false","",""
"1162.3999999761581","","","","","2","html-slider-response","245","","","","4",""
"3623","spoon","betri,pagsulod,nzuri,ngazi","pagsulod","v","2","html-keyboard-response","246","n","ngazi","false","",""
"1869.8999999761581","","","","","2","html-slider-response","247","","","","5",""
"1988","marker","maji,mapafu,salita,atay","maji","f","2","html-keyboard-response","248","n","atay","false","",""
"2101.400000035763","","","","","2","html-slider-response","249","","","","4",""
"2697","candle","geza,gabi,farasi,kupanda","geza","f","2","html-keyboard-response","250","n","kupanda","false","",""
"1142.0999999642372","","","","","2","html-slider-response","251","","","","4",""
"2068","tissue","lamigas,kisiwa,katika,ugomvi","ugomvi","n","2","html-keyboard-response","252","n","ugomvi","true","",""
"1603.300000011921","","","","","2","html-slider-response","253","","","","4",""
"2684","bridge","daima,ngono,sahani,panya","sahani","j","2","html-keyboard-response","254","v","ngono","false","",""
"1071.800000011921","","","","","2","html-slider-response","255","","","","4",""
"3941","berry","abogado,nogozi,kinywa,kofia","kofia","n","2","html-keyboard-response","256","v","nogozi","false","",""
"1036.800000011921","","","","","2","html-slider-response","257","","","","5",""
"4737","triangle","kihozi,bentaha,kasadpan,liog","kasadpan","j","2","html-keyboard-response","258","j","kasadpan","true","",""
"1086.7999999523163","","","","","2","html-slider-response","259","","","","4",""
"2244","door","tena,surali,soko,nyota","surali","v","2","html-keyboard-response","260","n","nyota","false","",""
"1001.6000000238419","","","","","2","html-slider-response","261","","","","4",""
"2268","fish","bala,baho,imani,buli","buli","n","2","html-keyboard-response","262","n","buli","true","",""
"978.4000000357628","","","","","2","html-slider-response","263","","","","4",""
"2645","curtain","lisud,mchanga,bulwawan,chubani","mchanga","v","2","html-keyboard-response","264","v","mchanga","true","",""
"925.9000000357628","","","","","2","html-slider-response","265","","","","2",""
"1804","flag","ndege,mkate,trekta,kawa","trekta","j","2","html-keyboard-response","266","f","ndege","false","",""
"1580.300000011921","","","","","2","html-slider-response","267","","","","4",""
"2927","boat","hamsi,agalon,pombe,kitanda","agalon","v","2","html-keyboard-response","268","j","pombe","false","",""
"1580.6000000238419","","","","","2","html-slider-response","269","","","","4",""
"7024","rose","singizi,paghalad,mwanake,amani","paghalad","v","2","html-keyboard-response","270","n","amani","false","",""
"1488.8999999761581","","","","","2","html-slider-response","271","","","","4",""
"2285","lamp","daub,bilaska,afya,mbolea","afya","j","2","html-keyboard-response","272","n","mbolea","false","",""
"1020.6999999880791","","","","","2","html-slider-response","273","","","","4",""
"4238","cigar","ndugu,adhabu,kuta,mlango","adhabu","v","2","html-keyboard-response","274","n","mlango","false","",""
"1026.699999988079","","","","","2","html-slider-response","275","","","","4",""
"2048","list","alizeti,kuzama,kaso,wingu","wingu","n","2","html-keyboard-response","276","f","alizeti","false","",""
"1462.699999988079","","","","","2","html-slider-response","277","","","","4",""
"2507","sheet","juuya,bililhon,watu,kamantis","bililhon","v","2","html-keyboard-response","278","v","bililhon","true","",""
"1796.7000000476837","","","","","2","html-slider-response","279","","","","5",""
"3006","picture","silya,chaki,asin,kubwa","kubwa","n","2","html-keyboard-response","280","v","chaki","false","",""
"2114.099999964237","","","","","2","html-slider-response","281","","","","4",""
"3332","towel","pagpalit,tembo,funzi,pito","pagpalit","f","2","html-keyboard-response","282","v","tembo","false","",""
"1146.699999988079","","","","","2","html-slider-response","283","","","","5",""
"1988","window","nanga,kujenga,kweli,umaga","kweli","j","2","html-keyboard-response","284","n","umaga","false","",""
"1040.699999988079","","","","","2","html-slider-response","285","","","","4",""
"6005","box","adui,kuacha,rafiki,kitande","adui","f","3","html-keyboard-response","293","v","kuacha","false","","4"
"2814","","","","","3","html-slider-response","294","","","","2",""
"2626","","","","","3","html-keyboard-response","295","","","","",""
"4134","pants","pintal,haki,chuki,hari","haki","v","3","html-keyboard-response","296","n","hari","false","","4"
"1158.2000000476837","","","","","3","html-slider-response","297","","","","4",""
"4108","","","","","3","html-keyboard-response","298","","","","",""
"4425","cup","dagat,shimoni,matumai,jeraha","matumai","j","3","html-keyboard-response","299","f","dagat","false","","4"
"1883.8999999761581","","","","","3","html-slider-response","300","","","","2",""
"2090","","","","","3","html-keyboard-response","301","","","","",""
"2015","triangle","kihozi,kasadpan,bentaha,liog","kasadpan","v","3","html-keyboard-response","302","n","liog","false","","4"
"1833.699999988079","","","","","3","html-slider-response","303","","","","4",""
"1629","","","","","3","html-keyboard-response","304","","","","",""
"2886","curtain","lisud,bulwawan,mchanga,chubani","mchanga","j","3","html-keyboard-response","305","n","chubani","false","","4"
"1421.300000011921","","","","","3","html-slider-response","306","","","","4",""
"1310","","","","","3","html-keyboard-response","307","","","","",""
"2308","clock","kartasi,mbwa,abang,osha","mbwa","v","3","html-keyboard-response","308","n","osha","false","","4"
"2524.5","","","","","3","html-slider-response","309","","","","4",""
"995","","","","","3","html-keyboard-response","310","","","","",""
"1806","mirror","sulagma,rangi,kanding,furaha","sulagma","f","3","html-keyboard-response","311","f","sulagma","true","","4"
"2147.300000011921","","","","","3","html-slider-response","312","","","","2",""
"1387","","","","","3","html-keyboard-response","313","","","","",""
"2534","coffin","barua,tubag,kioo,hulma","kioo","j","3","html-keyboard-response","314","j","kioo","true","","1"
"1087.1000000238419","","","","","3","html-slider-response","315","","","","5",""
"1028","","","","","3","html-keyboard-response","316","","","","",""
"1950","magazine","gundi,mchawi,bahandi,kiti","kiti","n","3","html-keyboard-response","317","n","kiti","true","","4"
"1284.6000000238419","","","","","3","html-slider-response","318","","","","5",""
"1096","","","","","3","html-keyboard-response","319","","","","",""
"2888","column","pundok,ufagio,dila,pala","ufagio","v","3","html-keyboard-response","320","v","ufagio","true","","1"
"1243.8999999761581","","","","","3","html-slider-response","321","","","","5",""
"1088","","","","","3","html-keyboard-response","322","","","","",""
"3082","number","shule,kengele,mundamo,choori","mundamo","j","3","html-keyboard-response","323","j","mundamo","true","","4"
"2325.300000011921","","","","","3","html-slider-response","324","","","","4",""
"1144","","","","","3","html-keyboard-response","325","","","","",""
"4684","rose","paghalad,singizi,mwanake,amani","paghalad","f","3","html-keyboard-response","326","f","paghalad","true","","4"
"1625.699999988079","","","","","3","html-slider-response","327","","","","4",""
"1229","","","","","3","html-keyboard-response","328","","","","",""
"8441","eel","msumari,ishara,kunywa,kabuang","msumari","f","3","html-keyboard-response","329","n","kabuang","false","","4"
"1035.8999999761581","","","","","3","html-slider-response","330","","","","4",""
"1344","","","","","3","html-keyboard-response","331","","","","",""
"2427","gift","pagtawag,baba,nyange,baso","pagtawag","f","3","html-keyboard-response","332","v","baba","false","","4"
"2617.099999964237","","","","","3","html-slider-response","333","","","","4",""
"1220","","","","","3","html-keyboard-response","334","","","","",""
"2111","apple","kisu,ukame,estante,edad","kisu","f","3","html-keyboard-response","335","f","kisu","true","","1"
"1111.199999988079","","","","","3","html-slider-response","336","","","","4",""
"932","","","","","3","html-keyboard-response","337","","","","",""
"4544","wheel","bafuni,punda,tawo,baadaye","bafuni","f","3","html-keyboard-response","338","f","bafuni","true","","1"
"1194.6000000238419","","","","","3","html-slider-response","339","","","","5",""
"1050","","","","","3","html-keyboard-response","340","","","","",""
"2879","knee","mvuke,kubale,duka,bili","duka","j","3","html-keyboard-response","341","j","duka","true","","4"
"1291.6000000238419","","","","","3","html-slider-response","342","","","","5",""
"927","","","","","3","html-keyboard-response","343","","","","",""
"7616","basket","kumba,kumbuka,utepe,hasira","kumba","f","3","html-keyboard-response","344","f","kumba","true","","1"
"1372.0999999642372","","","","","3","html-slider-response","345","","","","4",""
"958","","","","","3","html-keyboard-response","346","","","","",""
"2398","park","tambok,bunifu,pwani,ihalas","bunifu","v","3","html-keyboard-response","347","v","bunifu","true","","4"
"1093.5","","","","","3","html-slider-response","348","","","","4",""
"791","","","","","3","html-keyboard-response","349","","","","",""
"2893","finger","simu,sufuria,lima,moyo","moyo","n","3","html-keyboard-response","350","n","moyo","true","","4"
"1142.3999999761581","","","","","3","html-slider-response","351","","","","5",""
"794","","","","","3","html-keyboard-response","352","","","","",""
"2371","boat","hamsi,pombe,agalon,kitanda","agalon","j","3","html-keyboard-response","353","n","kitanda","false","","4"
"1050.1000000238419","","","","","3","html-slider-response","354","","","","4",""
"1073","","","","","3","html-keyboard-response","355","","","","",""
"1822","hill","kushoto,kukimba,matumbo,sweta","matumbo","j","3","html-keyboard-response","356","n","sweta","false","","4"
"1086.8999999761581","","","","","3","html-slider-response","357","","","","4",""
"1097","","","","","3","html-keyboard-response","358","","","","",""
"1674","train","sayari,itik,dakika,mungu","sayari","f","3","html-keyboard-response","359","f","sayari","true","","4"
"2056.599999964237","","","","","3","html-slider-response","360","","","","4",""
"1552","","","","","3","html-keyboard-response","361","","","","",""
"2196","wolf","kaburi,lugha,ndizi,mchuzi","lugha","v","3","html-keyboard-response","362","n","mchuzi","false","","4"
"1855.3999999761581","","","","","3","html-slider-response","363","","","","4",""
"988","","","","","3","html-keyboard-response","364","","","","",""
"3867","snake","jansa,karon,mvringo,pagtukod","pagtukod","n","3","html-keyboard-response","365","n","pagtukod","true","","4"
"1094.199999988079","","","","","3","html-slider-response","366","","","","5",""
"1082","","","","","3","html-keyboard-response","367","","","","",""
"3006","tooth","kijiko,uadui,pahiyum,kabalaka","kabalaka","n","3","html-keyboard-response","368","j","pahiyum","false","","4"
"1031.8999999761581","","","","","3","html-slider-response","369","","","","4",""
"1037","","","","","3","html-keyboard-response","370","","","","",""
"3696","notebook","kemia,msitu,kila,mdudu","kemia","f","3","html-keyboard-response","371","j","kila","false","","4"
"1011","","","","","3","html-slider-response","372","","","","4",""
"1190","","","","","3","html-keyboard-response","373","","","","",""
"2648","flag","trekta,ndege,mkate,kawa","trekta","f","3","html-keyboard-response","374","f","trekta","true","","4"
"3300.900000035763","","","","","3","html-slider-response","375","","","","5",""
"854","","","","","3","html-keyboard-response","376","","","","",""
"3174","squirrel","hofu,mahugaw,ukweli,kichwa","hofu","f","3","html-keyboard-response","377","v","mahugaw","false","","4"
"1001.3999999761581","","","","","3","html-slider-response","378","","","","4",""
"807","","","","","3","html-keyboard-response","379","","","","",""
"2580","door","tena,soko,nyota,surali","surali","n","3","html-keyboard-response","380","v","soko","false","","4"
"951.3999999761581","","","","","3","html-slider-response","381","","","","4",""
"952","","","","","3","html-keyboard-response","382","","","","",""
"1840","salmon","mzungu,seri,baharia,sensilyo","sensilyo","n","3","html-keyboard-response","383","n","sensilyo","true","","4"
"994.0999999642372","","","","","3","html-slider-response","384","","","","5",""
"652","","","","","3","html-keyboard-response","385","","","","",""
"2244","shoulder","kelele,ndaniya,guruwe,mkuu","mkuu","n","3","html-keyboard-response","386","n","mkuu","true","","4"
"1053.5","","","","","3","html-slider-response","387","","","","5",""
"907","","","","","3","html-keyboard-response","388","","","","",""
"4818","lamp","daub,bilaska,afya,mbolea","afya","j","3","html-keyboard-response","389","n","mbolea","false","","4"
"1206.3999999761581","","","","","3","html-slider-response","390","","","","4",""
"1237","","","","","3","html-keyboard-response","391","","","","",""
"7663","shelf","bungtod,kadaot,pamahaw,awit","pamahaw","j","3","html-keyboard-response","392","j","pamahaw","true","","1"
"1155","","","","","3","html-slider-response","393","","","","4",""
"1155","","","","","3","html-keyboard-response","394","","","","",""
"3687","human","bado,kikapu,tinapay,punguza","tinapay","j","3","html-keyboard-response","395","j","tinapay","true","","4"
"1011.7000000476837","","","","","3","html-slider-response","396","","","","5",""
"799","","","","","3","html-keyboard-response","397","","","","",""
"3644","towel","tembo,funzi,pito,pagpalit","pagpalit","n","3","html-keyboard-response","398","f","tembo","false","","4"
"1055.6000000238419","","","","","3","html-slider-response","399","","","","5",""
"837","","","","","3","html-keyboard-response","400","","","","",""
"4646","cat","neyemba,baki,akili,paghukom","paghukom","n","3","html-keyboard-response","401","j","akili","false","","4"
"879.3000000119209","","","","","3","html-slider-response","402","","","","4",""
"874","","","","","3","html-keyboard-response","403","","","","",""
"2693","spider","bunyag,mkboa,atop,kamwe","kamwe","n","3","html-keyboard-response","404","n","kamwe","true","","4"
"989.2000000476837","","","","","3","html-slider-response","405","","","","4",""
"1040","","","","","3","html-keyboard-response","406","","","","",""
"1826","window","nanga,kujenga,umaga,kweli","kweli","n","3","html-keyboard-response","407","n","kweli","true","","4"
"979.0999999642372","","","","","3","html-slider-response","408","","","","5",""
"1032","","","","","3","html-keyboard-response","409","","","","",""
"1618","woman","bandari,pagtabon,bituin,kovuli","pagtabon","v","3","html-keyboard-response","410","v","pagtabon","true","","1"
"1713.300000011921","","","","","3","html-slider-response","411","","","","5",""
"836","","","","","3","html-keyboard-response","412","","","","",""
"6106","giraffe","daraja,mahitabo,jumatu,hangyo","mahitabo","v","3","html-keyboard-response","413","v","mahitabo","true","","4"
"1647.199999988079","","","","","3","html-slider-response","414","","","","5",""
"889","","","","","3","html-keyboard-response","415","","","","",""
"5184","elephant","kito,petye,pagduol,suka","kito","f","3","html-keyboard-response","416","j","pagduol","false","","4"
"1085","","","","","3","html-slider-response","417","","","","5",""
"748","","","","","3","html-keyboard-response","418","","","","",""
"3316","cave","ganti,maisha,nyundo,kesho","kesho","n","3","html-keyboard-response","419","j","nyundo","false","","4"
"1179.300000011921","","","","","3","html-slider-response","420","","","","5",""
"1459","","","","","3","html-keyboard-response","421","","","","",""
"4110","bread","kaili,dizeli,bugas,dari","dari","n","3","html-keyboard-response","422","f","kaili","false","","4"
"980.5","","","","","3","html-slider-response","423","","","","5",""
"1040","","","","","3","html-keyboard-response","424","","","","",""
"5864","stone","wingi,ulimwengu,mkasi,asili","wingi","f","3","html-keyboard-response","425","n","asili","false","","4"
"1452.800000011921","","","","","3","html-slider-response","426","","","","5",""
"1014","","","","","3","html-keyboard-response","427","","","","",""
"2773","donkey","bloke,lalake,rombus,elfu","elfu","n","3","html-keyboard-response","428","n","elfu","true","","4"
"1592.5","","","","","3","html-slider-response","429","","","","5",""
"918","","","","","3","html-keyboard-response","430","","","","",""
"1890","bridge","daima,ngono,panya,sahani","sahani","n","3","html-keyboard-response","431","n","sahani","true","","4"
"909.0999999642372","","","","","3","html-slider-response","432","","","","5",""
"880","","","","","3","html-keyboard-response","433","","","","",""
"1625","bonfire","mwezi,mfuko,goti,kusanya","goti","j","3","html-keyboard-response","434","n","kusanya","false","","4"
"1413.2999999523163","","","","","3","html-slider-response","435","","","","4",""
"821","","","","","3","html-keyboard-response","436","","","","",""
"2535","book","kuhesa,picha,mara,mali","mali","n","3","html-keyboard-response","437","n","mali","true","","4"
"975.9000000357628","","","","","3","html-slider-response","438","","","","5",""
"1775","","","","","3","html-keyboard-response","439","","","","",""
"2928","fish","bala,baho,buli,imani","buli","j","3","html-keyboard-response","440","v","baho","false","","4"
"961.3000000119209","","","","","3","html-slider-response","441","","","","5",""
"843","","","","","3","html-keyboard-response","442","","","","",""
"2977","spoon","pagsulod,betri,nzuri,ngazi","pagsulod","f","3","html-keyboard-response","443","f","pagsulod","true","","4"
"1859","","","","","3","html-slider-response","444","","","","5",""
"726","","","","","3","html-keyboard-response","445","","","","",""
"2722","scissors","duga,tanuri,mtawa,suga","tanuri","v","3","html-keyboard-response","446","v","tanuri","true","","4"
"1014.8000000119209","","","","","3","html-slider-response","447","","","","4",""
"905","","","","","3","html-keyboard-response","448","","","","",""
"3105","page","wimbo,wakala,ishiri,skina","wimbo","f","3","html-keyboard-response","449","v","wakala","false","","4"
"1357.0999999642372","","","","","3","html-slider-response","450","","","","4",""
"705","","","","","3","html-keyboard-response","451","","","","",""
"1740","nose","gubat,kopa,sehemu,kidole","sehemu","j","3","html-keyboard-response","452","j","sehemu","true","","1"
"1080.2000000476837","","","","","3","html-slider-response","453","","","","5",""
"814","","","","","3","html-keyboard-response","454","","","","",""
"4128","ceiling","kugita,kawaida,maua,rayna","maua","j","3","html-keyboard-response","455","v","kawaida","false","","4"
"939.3000000119209","","","","","3","html-slider-response","456","","","","4",""
"983","","","","","3","html-keyboard-response","457","","","","",""
"2659","bucket","baga,kiatu,ijayo,init","kiatu","v","3","html-keyboard-response","458","j","ijayo","false","","4"
"1562.5","","","","","3","html-slider-response","459","","","","4",""
"855","","","","","3","html-keyboard-response","460","","","","",""
"1043","berry","abogado,kofia,nogozi,kinywa","kofia","v","3","html-keyboard-response","461","v","kofia","true","","1"
"984.2999999523163","","","","","3","html-slider-response","462","","","","5",""
"743","","","","","3","html-keyboard-response","463","","","","",""
"2136","mother","kahawa,mbuzi,babaye,jokofu","babaye","j","3","html-keyboard-response","464","j","babaye","true","","1"
"1005.6000000238419","","","","","3","html-slider-response","465","","","","5",""
"779","","","","","3","html-keyboard-response","466","","","","",""
"2635","mosquito","isda,taras,martilyo,gutom","martilyo","j","3","html-keyboard-response","467","j","martilyo","true","","4"
"877.1999999880791","","","","","3","html-slider-response","468","","","","4",""
"757","","","","","3","html-keyboard-response","469","","","","",""
"3772","perfume","bino,katuyoan,sungura,ndogo","katuyoan","v","3","html-keyboard-response","470","v","katuyoan","true","","4"
"1006.9000000357628","","","","","3","html-slider-response","471","","","","5",""
"761","","","","","3","html-keyboard-response","472","","","","",""
"1619","sheet","juuya,watu,kamantis,bililhon","bililhon","n","3","html-keyboard-response","473","n","bililhon","true","","4"
"1211.9000000357628","","","","","3","html-slider-response","474","","","","5",""
"952","","","","","3","html-keyboard-response","475","","","","",""
"1879","puppet","napulo,mazishi,lamok,godoro","mazishi","v","3","html-keyboard-response","476","v","mazishi","true","","1"
"955.3000000119209","","","","","3","html-slider-response","477","","","","5",""
"824","","","","","3","html-keyboard-response","478","","","","",""
"3678","poster","nchi,madungog,fedha,kasuko","madungog","v","3","html-keyboard-response","479","v","madungog","true","","4"
"1591.5","","","","","3","html-slider-response","480","","","","4",""
"772","","","","","3","html-keyboard-response","481","","","","",""
"2718","music","mraba,mageho,tumbo,baiski","baiski","n","3","html-keyboard-response","482","v","mageho","false","","4"
"862.8000000119209","","","","","3","html-slider-response","483","","","","4",""
"1118","","","","","3","html-keyboard-response","484","","","","",""
"2698","key","chombo,miaka,goma,ahos","chombo","f","3","html-keyboard-response","485","f","chombo","true","","4"
"876.2000000476837","","","","","3","html-slider-response","486","","","","4",""
"694","","","","","3","html-keyboard-response","487","","","","",""
"3338","sock","ndoora,mamba,kimysa,mtirka","mamba","v","3","html-keyboard-response","488","j","kimysa","false","","4"
"1561.0999999642372","","","","","3","html-slider-response","489","","","","4",""
"842","","","","","3","html-keyboard-response","490","","","","",""
"3077","marker","mapafu,maji,salita,atay","maji","v","3","html-keyboard-response","491","v","maji","true","","4"
"1008.3000000119209","","","","","3","html-slider-response","492","","","","4",""
"743","","","","","3","html-keyboard-response","493","","","","",""
"3025","office","hazini,yatima,leso,kuna","leso","j","3","html-keyboard-response","494","j","leso","true","","4"
"1854.9000000357628","","","","","3","html-slider-response","495","","","","5",""
"1104","","","","","3","html-keyboard-response","496","","","","",""
"3198","shoe","nyeusi,hatua,uyoga,kama","uyoga","j","3","html-keyboard-response","497","v","hatua","false","","4"
"1490.800000011921","","","","","3","html-slider-response","498","","","","4",""
"927","","","","","3","html-keyboard-response","499","","","","",""
"2562","cop","mechezo,bustani,jikoni,bakus","mechezo","f","3","html-keyboard-response","500","v","bustani","false","","4"
"1330.800000011921","","","","","3","html-slider-response","501","","","","2",""
"692","","","","","3","html-keyboard-response","502","","","","",""
"2738","bank","kudhibi,silingan,tualya,ofisi","silingan","v","3","html-keyboard-response","503","n","ofisi","false","","4"
"942.6000000238419","","","","","3","html-slider-response","504","","","","4",""
"667","","","","","3","html-keyboard-response","505","","","","",""
"1801","letter","filimbi,kifua,chuma,uhuru","kifua","v","3","html-keyboard-response","506","v","kifua","true","","1"
"1644.699999988079","","","","","3","html-slider-response","507","","","","4",""
"596","","","","","3","html-keyboard-response","508","","","","",""
"1175","dog","lubi,bahari,washia,kalamu","bahari","v","3","html-keyboard-response","509","v","bahari","true","","1"
"1755.199999988079","","","","","3","html-slider-response","510","","","","5",""
"612","","","","","3","html-keyboard-response","511","","","","",""
"3395","shop","nopya,kerida,samaki,ndezu","samaki","j","3","html-keyboard-response","512","j","samaki","true","","4"
"1105.699999988079","","","","","3","html-slider-response","513","","","","5",""
"1904","","","","","3","html-keyboard-response","514","","","","",""
"3614","flower","tamasha,lobo,usiku,bega","bega","n","3","html-keyboard-response","515","f","tamasha","false","","4"
"1427","","","","","3","html-slider-response","516","","","","4",""
"1162","","","","","3","html-keyboard-response","517","","","","",""
"1499","cigar","ndugu,kuta,mlango,adhabu","adhabu","n","3","html-keyboard-response","518","n","adhabu","true","","1"
"1092.5999999642372","","","","","3","html-slider-response","519","","","","4",""
"868","","","","","3","html-keyboard-response","520","","","","",""
"1991","hammer","napakyas,mekno,kitovu,layag","napakyas","f","3","html-keyboard-response","521","v","mekno","false","","4"
"1393.1000000238419","","","","","3","html-slider-response","522","","","","2",""
"735","","","","","3","html-keyboard-response","523","","","","",""
"2684","fork","baboy,paghago,mgonjwa,gorisi","mgonjwa","j","3","html-keyboard-response","524","n","gorisi","false","","4"
"1078.1000000238419","","","","","3","html-slider-response","525","","","","4",""
"1165","","","","","3","html-keyboard-response","526","","","","",""
"1640","sun","bendi,basi,luha,uongo","basi","v","3","html-keyboard-response","527","v","basi","true","","1"
"1065.7999999523163","","","","","3","html-slider-response","528","","","","5",""
"707","","","","","3","html-keyboard-response","529","","","","",""
"6254","ladder","mashua,pangalan,mwanga,kamba","pangalan","v","3","html-keyboard-response","530","n","kamba","false","","4"
"1306.8999999761581","","","","","3","html-slider-response","531","","","","4",""
"755","","","","","3","html-keyboard-response","532","","","","",""
"1235","banana","kasamok,kazi,hagdan,twai","kazi","v","3","html-keyboard-response","533","v","kazi","true","","1"
"1045.0999999642372","","","","","3","html-slider-response","534","","","","5",""
"871","","","","","3","html-keyboard-response","535","","","","",""
"3763","pudding","abug,mpishi,iring,aibu","aibu","n","3","html-keyboard-response","536","f","abug","false","","4"
"1517.7000000476837","","","","","3","html-slider-response","537","","","","4",""
"1087","","","","","3","html-keyboard-response","538","","","","",""
"3576","body","nyundu,tindashan,jibini,kununa","tindashan","v","3","html-keyboard-response","539","v","tindashan","true","","4"
"1100.8999999761581","","","","","3","html-slider-response","540","","","","5",""
"804","","","","","3","html-keyboard-response","541","","","","",""
"2359","bed","kalipay,haraka,mapintas,starehe","mapintas","j","3","html-keyboard-response","542","v","haraka","false","","4"
"1645.7999999523163","","","","","3","html-slider-response","543","","","","4",""
"1043","","","","","3","html-keyboard-response","544","","","","",""
"2074","tissue","lamigas,ugomvi,kisiwa,katika","ugomvi","v","3","html-keyboard-response","545","f","lamigas","false","","4"
"1673.2999999523163","","","","","3","html-slider-response","546","","","","4",""
"1071","","","","","3","html-keyboard-response","547","","","","",""
"2962","candle","geza,gabi,farasi,kupanda","geza","f","3","html-keyboard-response","548","n","kupanda","false","","4"
"1091.3999999761581","","","","","3","html-slider-response","549","","","","4",""
"4001","","","","","3","html-keyboard-response","550","","","","",""
"1539","tomato","chupi,chupa,takatak,mvua","mvua","n","3","html-keyboard-response","551","n","mvua","true","","1"
"1326.4000000357628","","","","","3","html-slider-response","552","","","","5",""
"923","","","","","3","html-keyboard-response","553","","","","",""
"3065","list","alizeti,kuzama,wingu,kaso","wingu","j","3","html-keyboard-response","554","j","wingu","true","","4"
"1187","","","","","3","html-slider-response","555","","","","5",""
"1157","","","","","3","html-keyboard-response","556","","","","",""
"3084","olive","bata,jiwe,siagi,welder","jiwe","v","3","html-keyboard-response","557","v","jiwe","true","","4"
"924.3000000119209","","","","","3","html-slider-response","558","","","","5",""
"1072","","","","","3","html-keyboard-response","559","","","","",""
"1937","picture","silya,kubwa,chaki,asin","kubwa","v","3","html-keyboard-response","560","v","kubwa","true","","1"
"1044.8999999761581","","","","","3","html-slider-response","561","","","","5",""
"1587","","","","","3","html-keyboard-response","562","","","","",""
"3468","page","wimbo,wakala,ishiri,skina","wimbo","f","4","html-keyboard-response","888","j","ishiri","false","",""
"1616.4000000357628","","","","","4","html-slider-response","889","","","","2",""
"1346","sheet","juuya,watu,kamantis,bililhon","bililhon","n","4","html-keyboard-response","890","n","bililhon","true","",""
"1081.800000011921","","","","","4","html-slider-response","891","","","","5",""
"1927","ladder","mashua,mwanga,kamba,pangalan","pangalan","n","4","html-keyboard-response","892","n","pangalan","true","",""
"931.6999999880791","","","","","4","html-slider-response","893","","","","5",""
"2951","door","tena,soko,nyota,surali","surali","n","4","html-keyboard-response","894","v","soko","false","",""
"891.5999999642372","","","","","4","html-slider-response","895","","","","5",""
"6155","spider","kamwe,bunyag,mkboa,atop","kamwe","f","4","html-keyboard-response","896","v","bunyag","false","",""
"892.8000000119209","","","","","4","html-slider-response","897","","","","5",""
"4059","picture","kubwa,silya,chaki,asin","kubwa","f","4","html-keyboard-response","898","n","asin","false","",""
"1706.6000000238419","","","","","4","html-slider-response","899","","","","4",""
"4484","boat","hamsi,pombe,kitanda,agalon","agalon","n","4","html-keyboard-response","900","n","agalon","true","",""
"1393.300000011921","","","","","4","html-slider-response","901","","","","4",""
"9541","donkey","bloke,elfu,lalake,rombus","elfu","v","4","html-keyboard-response","902","n","rombus","false","",""
"894.6999999880791","","","","","4","html-slider-response","903","","","","4",""
"2255","book","kuhesa,picha,mali,mara","mali","j","4","html-keyboard-response","904","j","mali","true","",""
"1018.4000000357628","","","","","4","html-slider-response","905","","","","5",""
"2728","cup","matumai,dagat,shimoni,jeraha","matumai","f","4","html-keyboard-response","906","j","shimoni","false","",""
"1343","","","","","4","html-slider-response","907","","","","2",""
"2200","sun","basi,bendi,luha,uongo","basi","f","4","html-keyboard-response","908","j","luha","false","",""
"934.5999999642372","","","","","4","html-slider-response","909","","","","5",""
"2698","pudding","aibu,abug,mpishi,iring","aibu","f","4","html-keyboard-response","910","f","aibu","true","",""
"1002.5999999642372","","","","","4","html-slider-response","911","","","","4",""
"2035","human","bado,kikapu,punguza,tinapay","tinapay","n","4","html-keyboard-response","912","n","tinapay","true","",""
"962.8000000119209","","","","","4","html-slider-response","913","","","","5",""
"4279","squirrel","hofu,mahugaw,ukweli,kichwa","hofu","f","4","html-keyboard-response","914","f","hofu","true","",""
"1559.300000011921","","","","","4","html-slider-response","915","","","","5",""
"3402","park","tambok,pwani,ihalas,bunifu","bunifu","n","4","html-keyboard-response","916","n","bunifu","true","",""
"1351","","","","","4","html-slider-response","917","","","","4",""
"2869","poster","nchi,madungog,fedha,kasuko","madungog","v","4","html-keyboard-response","918","v","madungog","true","",""
"920.3000000119209","","","","","4","html-slider-response","919","","","","5",""
"2371","wolf","kaburi,ndizi,mchuzi,lugha","lugha","n","4","html-keyboard-response","920","n","lugha","true","",""
"1043.300000011921","","","","","4","html-slider-response","921","","","","4",""
"2661","cat","neyemba,baki,paghukom,akili","paghukom","j","4","html-keyboard-response","922","j","paghukom","true","",""
"905.5","","","","","4","html-slider-response","923","","","","5",""
"4097","fish","bala,buli,baho,imani","buli","v","4","html-keyboard-response","924","v","buli","true","",""
"1018.6000000238419","","","","","4","html-slider-response","925","","","","4",""
"1843","tooth","kabalaka,kijiko,uadui,pahiyum","kabalaka","f","4","html-keyboard-response","926","n","pahiyum","false","",""
"1365.1000000238419","","","","","4","html-slider-response","927","","","","2",""
"2723","cave","ganti,maisha,kesho,nyundo","kesho","j","4","html-keyboard-response","928","n","nyundo","false","",""
"1371.4000000357628","","","","","4","html-slider-response","929","","","","4",""
"1924","lamp","afya,daub,bilaska,mbolea","afya","f","4","html-keyboard-response","930","n","mbolea","false","",""
"1177.9000000357628","","","","","4","html-slider-response","931","","","","2",""
"2783","banana","kasamok,hagdan,kazi,twai","kazi","j","4","html-keyboard-response","932","n","twai","false","",""
"995.6999999880791","","","","","4","html-slider-response","933","","","","4",""
"2448","bonfire","mwezi,mfuko,kusanya,goti","goti","n","4","html-keyboard-response","934","j","kusanya","false","",""
"917.5","","","","","4","html-slider-response","935","","","","4",""
"3173","cop","bustani,mechezo,jikoni,bakus","mechezo","v","4","html-keyboard-response","936","f","bustani","false","",""
"1895.5","","","","","4","html-slider-response","937","","","","4",""
"3188","marker","maji,mapafu,salita,atay","maji","f","4","html-keyboard-response","938","f","maji","true","",""
"939.3999999761581","","","","","4","html-slider-response","939","","","","2",""
"2573","window","nanga,kujenga,kweli,umaga","kweli","j","4","html-keyboard-response","940","j","kweli","true","",""
"1684.5","","","","","4","html-slider-response","941","","","","4",""
"3334","body","nyundu,jibini,kununa,tindashan","tindashan","n","4","html-keyboard-response","942","n","tindashan","true","",""
"990.9000000357628","","","","","4","html-slider-response","943","","","","5",""
"2208","apple","ukame,estante,edad,kisu","kisu","n","4","html-keyboard-response","944","n","kisu","true","",""
"1565.699999988079","","","","","4","html-slider-response","945","","","","4",""
"2028","salmon","mzungu,sensilyo,seri,baharia","sensilyo","v","4","html-keyboard-response","946","v","sensilyo","true","",""
"2542.5","","","","","4","html-slider-response","947","","","","5",""
"3811","bed","kalipay,haraka,starehe,mapintas","mapintas","n","4","html-keyboard-response","948","v","haraka","false","",""
"1538.199999988079","","","","","4","html-slider-response","949","","","","4",""
"2645","berry","kofia,abogado,nogozi,kinywa","kofia","f","4","html-keyboard-response","950","f","kofia","true","",""
"969.8000000119209","","","","","4","html-slider-response","951","","","","5",""
"4234","mirror","rangi,kanding,furaha,sulagma","sulagma","n","4","html-keyboard-response","952","n","sulagma","true","",""
"1402.5","","","","","4","html-slider-response","953","","","","4",""
"3020","flag","trekta,ndege,mkate,kawa","trekta","f","4","html-keyboard-response","954","n","kawa","false","",""
"879.6999999880791","","","","","4","html-slider-response","955","","","","4",""
"2556","shoulder","kelele,ndaniya,guruwe,mkuu","mkuu","n","4","html-keyboard-response","956","n","mkuu","true","",""
"894.6000000238419","","","","","4","html-slider-response","957","","","","2",""
"1780","tissue","lamigas,kisiwa,katika,ugomvi","ugomvi","n","4","html-keyboard-response","958","f","lamigas","false","",""
"926.1000000238419","","","","","4","html-slider-response","959","","","","2",""
"2559","notebook","msitu,kila,mdudu,kemia","kemia","n","4","html-keyboard-response","960","v","kila","false","",""
"912.5999999642372","","","","","4","html-slider-response","961","","","","4",""
"2868","snake","jansa,karon,pagtukod,mvringo","pagtukod","j","4","html-keyboard-response","962","j","pagtukod","true","",""
"1480.699999988079","","","","","4","html-slider-response","963","","","","5",""
"2230","finger","simu,moyo,sufuria,lima","moyo","v","4","html-keyboard-response","964","v","moyo","true","",""
"939.8000000119209","","","","","4","html-slider-response","965","","","","4",""
"4177","basket","kumbuka,kumba,utepe,hasira","kumba","v","4","html-keyboard-response","966","n","hasira","false","",""
"930.9000000357628","","","","","4","html-slider-response","967","","","","4",""
"4679","curtain","lisud,mchanga,bulwawan,chubani","mchanga","v","4","html-keyboard-response","968","n","chubani","false","",""
"1047.800000011921","","","","","4","html-slider-response","969","","","","4",""
"2387","perfume","bino,sungura,ndogo,katuyoan","katuyoan","n","4","html-keyboard-response","970","n","katuyoan","true","",""
"885.5","","","","","4","html-slider-response","971","","","","4",""
"2520","key","miaka,goma,ahos,chombo","chombo","n","4","html-keyboard-response","972","n","chombo","true","",""
"921.3000000119209","","","","","4","html-slider-response","973","","","","4",""
"3013","olive","bata,siagi,jiwe,welder","jiwe","j","4","html-keyboard-response","974","j","jiwe","true","",""
"1010","","","","","4","html-slider-response","975","","","","5",""
"1664","rose","singizi,paghalad,mwanake,amani","paghalad","v","4","html-keyboard-response","976","v","paghalad","true","",""
"1121","","","","","4","html-slider-response","977","","","","5",""
"4042","bridge","sahani,daima,ngono,panya","sahani","f","4","html-keyboard-response","978","f","sahani","true","",""
"1044.5","","","","","4","html-slider-response","979","","","","5",""
"2570","hill","kushoto,matumbo,kukimba,sweta","matumbo","v","4","html-keyboard-response","980","n","sweta","false","",""
"877.3999999761581","","","","","4","html-slider-response","981","","","","5",""
"2503","letter","kifua,filimbi,chuma,uhuru","kifua","f","4","html-keyboard-response","982","v","filimbi","false","",""
"1619.8999999761581","","","","","4","html-slider-response","983","","","","4",""
"2838","sock","ndoora,kimysa,mamba,mtirka","mamba","j","4","html-keyboard-response","984","j","mamba","true","",""
"951.1000000238419","","","","","4","html-slider-response","985","","","","2",""
"2425","fork","baboy,mgonjwa,paghago,gorisi","mgonjwa","v","4","html-keyboard-response","986","j","paghago","false","",""
"1309.300000011921","","","","","4","html-slider-response","987","","","","5",""
"3793","box","kuacha,rafiki,kitande,adui","adui","n","4","html-keyboard-response","988","n","adui","true","",""
"1604","","","","","4","html-slider-response","989","","","","4",""
"1850","gift","pagtawag,baba,nyange,baso","pagtawag","f","4","html-keyboard-response","990","f","pagtawag","true","",""
"901.6000000238419","","","","","4","html-slider-response","991","","","","5",""
"3552","bucket","baga,ijayo,kiatu,init","kiatu","j","4","html-keyboard-response","992","j","kiatu","true","",""
"1379.800000011921","","","","","4","html-slider-response","993","","","","5",""
"3187","shop","samaki,nopya,kerida,ndezu","samaki","f","4","html-keyboard-response","994","v","nopya","false","",""
"836.6999999880791","","","","","4","html-slider-response","995","","","","4",""
"1891","puppet","mazishi,napulo,lamok,godoro","mazishi","f","4","html-keyboard-response","996","v","napulo","false","",""
"866.2999999523163","","","","","4","html-slider-response","997","","","","2",""
"3107","nose","gubat,kopa,sehemu,kidole","sehemu","j","4","html-keyboard-response","998","n","kidole","false","",""
"818.3000000119209","","","","","4","html-slider-response","999","","","","4",""
"4001","music","mraba,baiski,mageho,tumbo","baiski","v","4","html-keyboard-response","1000","n","tumbo","false","",""
"861.6000000238419","","","","","4","html-slider-response","1001","","","","4",""
"2312","dog","lubi,washia,bahari,kalamu","bahari","j","4","html-keyboard-response","1002","j","bahari","true","",""
"1024.199999988079","","","","","4","html-slider-response","1003","","","","5",""
"4106","eel","msumari,ishara,kunywa,kabuang","msumari","f","4","html-keyboard-response","1004","f","msumari","true","",""
"875.5999999642372","","","","","4","html-slider-response","1005","","","","4",""
"3394","number","shule,kengele,choori,mundamo","mundamo","n","4","html-keyboard-response","1006","n","mundamo","true","",""
"1235.300000011921","","","","","4","html-slider-response","1007","","","","5",""
"1707","tomato","chupi,chupa,mvua,takatak","mvua","j","4","html-keyboard-response","1008","v","chupa","false","",""
"899.5","","","","","4","html-slider-response","1009","","","","2",""
"3097","coffin","barua,tubag,kioo,hulma","kioo","j","4","html-keyboard-response","1010","j","kioo","true","",""
"1115.300000011921","","","","","4","html-slider-response","1011","","","","5",""
"2607","knee","mvuke,duka,kubale,bili","duka","v","4","html-keyboard-response","1012","v","duka","true","",""
"1041.6000000238419","","","","","4","html-slider-response","1013","","","","5",""
"1551","woman","bandari,bituin,pagtabon,kovuli","pagtabon","j","4","html-keyboard-response","1014","j","pagtabon","true","",""
"1054.6000000238419","","","","","4","html-slider-response","1015","","","","5",""
"2721","stone","ulimwengu,wingi,mkasi,asili","wingi","v","4","html-keyboard-response","1016","v","wingi","true","",""
"1629.199999988079","","","","","4","html-slider-response","1017","","","","5",""
"2481","bread","kaili,dizeli,dari,bugas","dari","j","4","html-keyboard-response","1018","n","bugas","false","",""
"885.6000000238419","","","","","4","html-slider-response","1019","","","","5",""
"1700","triangle","kihozi,bentaha,kasadpan,liog","kasadpan","j","4","html-keyboard-response","1020","v","bentaha","false","",""
"2340.199999988079","","","","","4","html-slider-response","1021","","","","2",""
"4666","scissors","tanuri,duga,mtawa,suga","tanuri","f","4","html-keyboard-response","1022","j","mtawa","false","",""
"1172.300000011921","","","","","4","html-slider-response","1023","","","","2",""
"3673","giraffe","mahitabo,daraja,jumatu,hangyo","mahitabo","f","4","html-keyboard-response","1024","f","mahitabo","true","",""
"943.8000000119209","","","","","4","html-slider-response","1025","","","","5",""
"2905","flower","tamasha,lobo,bega,usiku","bega","j","4","html-keyboard-response","1026","n","usiku","false","",""
"821.3000000119209","","","","","4","html-slider-response","1027","","","","2",""
"1779","candle","gabi,geza,farasi,kupanda","geza","v","4","html-keyboard-response","1028","n","kupanda","false","",""
"832.8000000119209","","","","","4","html-slider-response","1029","","","","2",""
"4150","mother","kahawa,mbuzi,jokofu,babaye","babaye","n","4","html-keyboard-response","1030","j","jokofu","false","",""
"1045.2000000476837","","","","","4","html-slider-response","1031","","","","4",""
"2398","towel","tembo,funzi,pito,pagpalit","pagpalit","n","4","html-keyboard-response","1032","n","pagpalit","true","",""
"1373.4000000357628","","","","","4","html-slider-response","1033","","","","2",""
"1934","elephant","petye,pagduol,suka,kito","kito","n","4","html-keyboard-response","1034","v","pagduol","false","",""
"1746.1000000238419","","","","","4","html-slider-response","1035","","","","5",""
"3535","shelf","pamahaw,bungtod,kadaot,awit","pamahaw","f","4","html-keyboard-response","1036","n","awit","false","",""
"1084.1000000238419","","","","","4","html-slider-response","1037","","","","4",""
"2713","mosquito","martilyo,isda,taras,gutom","martilyo","f","4","html-keyboard-response","1038","f","martilyo","true","",""
"1159.7999999523163","","","","","4","html-slider-response","1039","","","","5",""
"3335","column","pundok,dila,pala,ufagio","ufagio","n","4","html-keyboard-response","1040","n","ufagio","true","",""
"1513","","","","","4","html-slider-response","1041","","","","4",""
"2962","pants","pintal,chuki,hari,haki","haki","n","4","html-keyboard-response","1042","n","haki","true","",""
"1132.199999988079","","","","","4","html-slider-response","1043","","","","5",""
"2776","list","wingu,alizeti,kuzama,kaso","wingu","f","4","html-keyboard-response","1044","f","wingu","true","",""
"1097.1000000238419","","","","","4","html-slider-response","1045","","","","4",""
"2170","bank","kudhibi,tualya,ofisi,silingan","silingan","n","4","html-keyboard-response","1046","n","silingan","true","",""
"985.9000000357628","","","","","4","html-slider-response","1047","","","","4",""
"3152","clock","kartasi,abang,osha,mbwa","mbwa","n","4","html-keyboard-response","1048","v","abang","false","",""
"1838.2999999523163","","","","","4","html-slider-response","1049","","","","4",""
"6646","ceiling","maua,kugita,kawaida,rayna","maua","f","4","html-keyboard-response","1050","f","maua","true","",""
"1383.800000011921","","","","","4","html-slider-response","1051","","","","2",""
"2228","train","itik,dakika,sayari,mungu","sayari","j","4","html-keyboard-response","1052","j","sayari","true","",""
"1186.6000000238419","","","","","4","html-slider-response","1053","","","","2",""
"4034","magazine","kiti,gundi,mchawi,bahandi","kiti","f","4","html-keyboard-response","1054","f","kiti","true","",""
"1188.8999999761581","","","","","4","html-slider-response","1055","","","","5",""
"2809","office","leso,hazini,yatima,kuna","leso","f","4","html-keyboard-response","1056","f","leso","true","",""
"1015.3999999761581","","","","","4","html-slider-response","1057","","","","5",""
"3540","wheel","punda,tawo,baadaye,bafuni","bafuni","n","4","html-keyboard-response","1058","n","bafuni","true","",""
"1116.300000011921","","","","","4","html-slider-response","1059","","","","5",""
"3544","spoon","betri,nzuri,pagsulod,ngazi","pagsulod","j","4","html-keyboard-response","1060","j","pagsulod","true","",""
"971.6000000238419","","","","","4","html-slider-response","1061","","","","5",""
"2845","hammer","mekno,kitovu,napakyas,layag","napakyas","j","4","html-keyboard-response","1062","v","kitovu","false","",""
"989.6000000238419","","","","","4","html-slider-response","1063","","","","1",""
"2352","cigar","ndugu,kuta,mlango,adhabu","adhabu","n","4","html-keyboard-response","1064","n","adhabu","true","",""
"1003.5","","","","","4","html-slider-response","1065","","","","1",""
"2783","shoe","nyeusi,hatua,uyoga,kama","uyoga","j","4","html-keyboard-response","1066","v","hatua","false","",""
"1045.2999999523163","","","","","4","html-slider-response","1067","","","","4",""
"6072","list","alizeti,wingu,kuzama,kaso","wingu","v","5","html-keyboard-response","1069","v","wingu","true","",""
"2021.800000011921","","","","","5","html-slider-response","1070","","","","5",""
"3267","number","shule,kengele,mundamo,choori","mundamo","j","5","html-keyboard-response","1071","j","mundamo","true","",""
"872.5999999642372","","","","","5","html-slider-response","1072","","","","5",""
"2241","apple","ukame,estante,kisu,edad","kisu","j","5","html-keyboard-response","1073","j","kisu","true","",""
"949.5","","","","","5","html-slider-response","1074","","","","5",""
"3108","knee","mvuke,kubale,duka,bili","duka","j","5","html-keyboard-response","1075","j","duka","true","",""
"907","","","","","5","html-slider-response","1076","","","","5",""
"2297","tooth","kijiko,kabalaka,uadui,pahiyum","kabalaka","v","5","html-keyboard-response","1077","v","kabalaka","true","",""
"990.5999999642372","","","","","5","html-slider-response","1078","","","","1",""
"1468","berry","abogado,nogozi,kinywa,kofia","kofia","n","5","html-keyboard-response","1079","n","kofia","true","",""
"1096.1000000238419","","","","","5","html-slider-response","1080","","","","5",""
"1772","bridge","daima,sahani,ngono,panya","sahani","v","5","html-keyboard-response","1081","v","sahani","true","",""
"1664.800000011921","","","","","5","html-slider-response","1082","","","","2",""
"1472","perfume","bino,sungura,ndogo,katuyoan","katuyoan","n","5","html-keyboard-response","1083","n","katuyoan","true","",""
"1016.6999999880791","","","","","5","html-slider-response","1084","","","","5",""
"3065","ladder","mashua,pangalan,mwanga,kamba","pangalan","v","5","html-keyboard-response","1085","v","pangalan","true","",""
"1703.699999988079","","","","","5","html-slider-response","1086","","","","4",""
"1413","pants","haki,pintal,chuki,hari","haki","f","5","html-keyboard-response","1087","n","hari","false","",""
"1000.3999999761581","","","","","5","html-slider-response","1088","","","","5",""
"1990","salmon","mzungu,seri,sensilyo,baharia","sensilyo","j","5","html-keyboard-response","1089","j","sensilyo","true","",""
"1201.300000011921","","","","","5","html-slider-response","1090","","","","5",""
"1817","coffin","barua,tubag,kioo,hulma","kioo","j","5","html-keyboard-response","1091","j","kioo","true","",""
"1055.699999988079","","","","","5","html-slider-response","1092","","","","5",""
"3334","park","tambok,pwani,bunifu,ihalas","bunifu","j","5","html-keyboard-response","1093","j","bunifu","true","",""
"1641.8999999761581","","","","","5","html-slider-response","1094","","","","5",""
"2916","giraffe","daraja,jumatu,mahitabo,hangyo","mahitabo","j","5","html-keyboard-response","1095","j","mahitabo","true","",""
"1957.5","","","","","5","html-slider-response","1096","","","","5",""
"3281","mirror","rangi,sulagma,kanding,furaha","sulagma","v","5","html-keyboard-response","1097","j","kanding","false","",""
"1188.8999999761581","","","","","5","html-slider-response","1098","","","","5",""
"2545","ceiling","kugita,kawaida,rayna,maua","maua","n","5","html-keyboard-response","1099","j","rayna","false","",""
"979.3999999761581","","","","","5","html-slider-response","1100","","","","5",""
"1875","marker","mapafu,maji,salita,atay","maji","v","5","html-keyboard-response","1101","n","atay","false","",""
"1291.8999999761581","","","","","5","html-slider-response","1102","","","","2",""
"2404","sock","ndoora,kimysa,mtirka,mamba","mamba","n","5","html-keyboard-response","1103","v","kimysa","false","",""
"976.5999999642372","","","","","5","html-slider-response","1104","","","","2",""
"2772","cop","bustani,mechezo,jikoni,bakus","mechezo","v","5","html-keyboard-response","1105","n","bakus","false","",""
"1284.0999999642372","","","","","5","html-slider-response","1106","","","","4",""
"2526","gift","baba,nyange,baso,pagtawag","pagtawag","n","5","html-keyboard-response","1107","n","pagtawag","true","",""
"1002.6000000238419","","","","","5","html-slider-response","1108","","","","5",""
"2986","notebook","kemia,msitu,kila,mdudu","kemia","f","5","html-keyboard-response","1109","v","msitu","false","",""
"1088","","","","","5","html-slider-response","1110","","","","5",""
"2715","bank","kudhibi,tualya,silingan,ofisi","silingan","j","5","html-keyboard-response","1111","n","ofisi","false","",""
"2425","","","","","5","html-slider-response","1112","","","","4",""
"4342","letter","filimbi,chuma,uhuru,kifua","kifua","n","5","html-keyboard-response","1113","n","kifua","true","",""
"2440.699999988079","","","","","5","html-slider-response","1114","","","","4",""
"5884","candle","gabi,geza,farasi,kupanda","geza","v","5","html-keyboard-response","1115","n","kupanda","false","",""
"1063.0999999642372","","","","","5","html-slider-response","1116","","","","4",""
"4133","bread","kaili,dari,dizeli,bugas","dari","v","5","html-keyboard-response","1117","n","bugas","false","",""
"1845.6000000238419","","","","","5","html-slider-response","1118","","","","4",""
"1754","snake","jansa,karon,pagtukod,mvringo","pagtukod","j","5","html-keyboard-response","1119","j","pagtukod","true","",""
"1143.699999988079","","","","","5","html-slider-response","1120","","","","5",""
"2574","rose","singizi,paghalad,mwanake,amani","paghalad","v","5","html-keyboard-response","1121","v","paghalad","true","",""
"1767.7000000476837","","","","","5","html-slider-response","1122","","","","5",""
"3519","hill","kushoto,kukimba,sweta,matumbo","matumbo","n","5","html-keyboard-response","1123","n","matumbo","true","",""
"2237","","","","","5","html-slider-response","1124","","","","5",""
"1899","train","itik,sayari,dakika,mungu","sayari","v","5","html-keyboard-response","1125","v","sayari","true","",""
"1173.5999999642372","","","","","5","html-slider-response","1126","","","","4",""
"2347","shop","nopya,samaki,kerida,ndezu","samaki","v","5","html-keyboard-response","1127","v","samaki","true","",""
"1229.9000000357628","","","","","5","html-slider-response","1128","","","","4",""
"3290","nose","gubat,sehemu,kopa,kidole","sehemu","v","5","html-keyboard-response","1129","n","kidole","false","",""
"1683.800000011921","","","","","5","html-slider-response","1130","","","","4",""
"2551","boat","agalon,hamsi,pombe,kitanda","agalon","f","5","html-keyboard-response","1131","f","agalon","true","",""
"980.1000000238419","","","","","5","html-slider-response","1132","","","","4",""
"2671","body","nyundu,jibini,tindashan,kununa","tindashan","j","5","html-keyboard-response","1133","j","tindashan","true","",""
"1043","","","","","5","html-slider-response","1134","","","","5",""
"2682","bed","kalipay,mapintas,haraka,starehe","mapintas","v","5","html-keyboard-response","1135","j","haraka","false","",""
"1419.9000000357628","","","","","5","html-slider-response","1136","","","","4",""
"5289","squirrel","mahugaw,ukweli,kichwa,hofu","hofu","n","5","html-keyboard-response","1137","n","hofu","true","",""
"1456.5999999642372","","","","","5","html-slider-response","1138","","","","5",""
"4624","window","nanga,kujenga,kweli,umaga","kweli","j","5","html-keyboard-response","1139","n","umaga","false","",""
"1375.5999999642372","","","","","5","html-slider-response","1140","","","","2",""
"2680","bonfire","mwezi,mfuko,kusanya,goti","goti","n","5","html-keyboard-response","1141","v","mfuko","false","",""
"1578.800000011921","","","","","5","html-slider-response","1142","","","","4",""
"3024","fish","bala,baho,buli,imani","buli","j","5","html-keyboard-response","1143","j","buli","true","",""
"1213.8999999761581","","","","","5","html-slider-response","1144","","","","4",""
"1694","cat","neyemba,paghukom,baki,akili","paghukom","v","5","html-keyboard-response","1145","v","paghukom","true","",""
"976.3000000119209","","","","","5","html-slider-response","1146","","","","5",""
"2704","spider","bunyag,mkboa,kamwe,atop","kamwe","j","5","html-keyboard-response","1147","n","atop","false","",""
"1097.6000000238419","","","","","5","html-slider-response","1148","","","","4",""
"3575","eel","ishara,msumari,kunywa,kabuang","msumari","v","5","html-keyboard-response","1149","v","msumari","true","",""
"964.5","","","","","5","html-slider-response","1150","","","","5",""
"1656","woman","bandari,bituin,kovuli,pagtabon","pagtabon","n","5","html-keyboard-response","1151","n","pagtabon","true","",""
"998.5","","","","","5","html-slider-response","1152","","","","5",""
"1443","magazine","gundi,mchawi,kiti,bahandi","kiti","j","5","html-keyboard-response","1153","j","kiti","true","",""
"952.1999999880791","","","","","5","html-slider-response","1154","","","","5",""
"3602","pudding","abug,aibu,mpishi,iring","aibu","v","5","html-keyboard-response","1155","f","abug","false","",""
"966.5","","","","","5","html-slider-response","1156","","","","5",""
"1999","lamp","daub,bilaska,afya,mbolea","afya","j","5","html-keyboard-response","1157","v","bilaska","false","",""
"928.8999999761581","","","","","5","html-slider-response","1158","","","","1",""
"4452","cave","ganti,maisha,nyundo,kesho","kesho","n","5","html-keyboard-response","1159","v","maisha","false","",""
"1073.4000000357628","","","","","5","html-slider-response","1160","","","","4",""
"1707","shoulder","kelele,ndaniya,guruwe,mkuu","mkuu","n","5","html-keyboard-response","1161","j","guruwe","false","",""
"838.3999999761581","","","","","5","html-slider-response","1162","","","","1",""
"2570","stone","wingi,ulimwengu,mkasi,asili","wingi","f","5","html-keyboard-response","1163","f","wingi","true","",""
"1044.4000000357628","","","","","5","html-slider-response","1164","","","","5",""
"3220","column","pundok,dila,ufagio,pala","ufagio","j","5","html-keyboard-response","1165","f","pundok","false","",""
"1098.5","","","","","5","html-slider-response","1166","","","","5",""
"3938","page","wakala,ishiri,skina,wimbo","wimbo","n","5","html-keyboard-response","1167","n","wimbo","true","",""
"1003.1000000238419","","","","","5","html-slider-response","1168","","","","1",""
"2425","shoe","nyeusi,hatua,kama,uyoga","uyoga","n","5","html-keyboard-response","1169","n","uyoga","true","",""
"1008.4000000357628","","","","","5","html-slider-response","1170","","","","4",""
"6900","clock","kartasi,abang,osha,mbwa","mbwa","n","5","html-keyboard-response","1171","v","abang","false","",""
"1053.4000000357628","","","","","5","html-slider-response","1172","","","","4",""
"2441","towel","tembo,pagpalit,funzi,pito","pagpalit","v","5","html-keyboard-response","1173","v","pagpalit","true","",""
"1676.4000000357628","","","","","5","html-slider-response","1174","","","","4",""
"1636","tomato","mvua,chupi,chupa,takatak","mvua","f","5","html-keyboard-response","1175","j","chupa","false","",""
"1512.9000000357628","","","","","5","html-slider-response","1176","","","","1",""
"3355","bucket","kiatu,baga,ijayo,init","kiatu","f","5","html-keyboard-response","1177","n","init","false","",""
"961.8999999761581","","","","","5","html-slider-response","1178","","","","4",""
"1897","finger","simu,sufuria,lima,moyo","moyo","n","5","html-keyboard-response","1179","n","moyo","true","",""
"1024.1000000238419","","","","","5","html-slider-response","1180","","","","5",""
"3639","mother","kahawa,mbuzi,babaye,jokofu","babaye","j","5","html-keyboard-response","1181","n","jokofu","false","",""
"1070.1000000238419","","","","","5","html-slider-response","1182","","","","5",""
"1511","human","bado,kikapu,punguza,tinapay","tinapay","n","5","html-keyboard-response","1183","n","tinapay","true","",""
"2150.900000035763","","","","","5","html-slider-response","1184","","","","5",""
"2963","sun","bendi,basi,luha,uongo","basi","v","5","html-keyboard-response","1185","v","basi","true","",""
"1211.9000000357628","","","","","5","html-slider-response","1186","","","","5",""
"3321","fork","mgonjwa,baboy,paghago,gorisi","mgonjwa","f","5","html-keyboard-response","1187","j","paghago","false","",""
"1063.5999999642372","","","","","5","html-slider-response","1188","","","","5",""
"2060","donkey","bloke,lalake,elfu,rombus","elfu","j","5","html-keyboard-response","1189","n","rombus","false","",""
"1101","","","","","5","html-slider-response","1190","","","","5",""
"2890","wolf","kaburi,lugha,ndizi,mchuzi","lugha","v","5","html-keyboard-response","1191","f","kaburi","false","",""
"1125.199999988079","","","","","5","html-slider-response","1192","","","","4",""
"2301","cigar","ndugu,kuta,adhabu,mlango","adhabu","j","5","html-keyboard-response","1193","v","kuta","false","",""
"1047.6000000238419","","","","","5","html-slider-response","1194","","","","1",""
"1640","olive","bata,jiwe,siagi,welder","jiwe","v","5","html-keyboard-response","1195","v","jiwe","true","",""
"1104.7000000476837","","","","","5","html-slider-response","1196","","","","5",""
"5384","key","miaka,chombo,goma,ahos","chombo","v","5","html-keyboard-response","1197","f","miaka","false","",""
"1016.6999999880791","","","","","5","html-slider-response","1198","","","","4",""
"2008","door","surali,tena,soko,nyota","surali","f","5","html-keyboard-response","1199","j","soko","false","",""
"1217.199999988079","","","","","5","html-slider-response","1200","","","","4",""
"3771","wheel","punda,bafuni,tawo,baadaye","bafuni","v","5","html-keyboard-response","1201","v","bafuni","true","",""
"2528.899999976158","","","","","5","html-slider-response","1202","","","","5",""
"1987","basket","kumbuka,utepe,kumba,hasira","kumba","j","5","html-keyboard-response","1203","n","hasira","false","",""
"1636.8999999761581","","","","","5","html-slider-response","1204","","","","4",""
"1476","elephant","petye,pagduol,kito,suka","kito","j","5","html-keyboard-response","1205","v","pagduol","false","",""
"971.5","","","","","5","html-slider-response","1206","","","","5",""
"1639","office","hazini,leso,yatima,kuna","leso","v","5","html-keyboard-response","1207","n","kuna","false","",""
"2052.099999964237","","","","","5","html-slider-response","1208","","","","4",""
"2084","music","mraba,mageho,baiski,tumbo","baiski","j","5","html-keyboard-response","1209","n","tumbo","false","",""
"1200.8999999761581","","","","","5","html-slider-response","1210","","","","4",""
"2961","tissue","lamigas,ugomvi,kisiwa,katika","ugomvi","v","5","html-keyboard-response","1211","n","katika","false","",""
"1007.5999999642372","","","","","5","html-slider-response","1212","","","","2",""
"3271","curtain","lisud,mchanga,bulwawan,chubani","mchanga","v","5","html-keyboard-response","1213","v","mchanga","true","",""
"1143","","","","","5","html-slider-response","1214","","","","4",""
"3108","flag","ndege,mkate,kawa,trekta","trekta","n","5","html-keyboard-response","1215","j","kawa","false","",""
"1023.8999999761581","","","","","5","html-slider-response","1216","","","","4",""
"1819","dog","lubi,washia,bahari,kalamu","bahari","j","5","html-keyboard-response","1217","j","bahari","true","",""
"1171.6000000238419","","","","","5","html-slider-response","1218","","","","5",""
"4251","cup","dagat,shimoni,matumai,jeraha","matumai","j","5","html-keyboard-response","1219","j","matumai","true","",""
"2206.899999976158","","","","","5","html-slider-response","1220","","","","4",""
"1598","sheet","juuya,bililhon,watu,kamantis","bililhon","v","5","html-keyboard-response","1221","v","bililhon","true","",""
"1490.5","","","","","5","html-slider-response","1222","","","","5",""
"3715","spoon","pagsulod,betri,nzuri,ngazi","pagsulod","f","5","html-keyboard-response","1223","f","pagsulod","true","",""
"1110.2000000476837","","","","","5","html-slider-response","1224","","","","5",""
"3234","flower","tamasha,bega,lobo,usiku","bega","v","5","html-keyboard-response","1225","j","lobo","false","",""
"1085.699999988079","","","","","5","html-slider-response","1226","","","","2",""
"2855","picture","silya,chaki,kubwa,asin","kubwa","j","5","html-keyboard-response","1227","n","asin","false","",""
"1123.699999988079","","","","","5","html-slider-response","1228","","","","5",""
"1849","puppet","napulo,lamok,godoro,mazishi","mazishi","n","5","html-keyboard-response","1229","v","lamok","false","",""
"1086.3999999761581","","","","","5","html-slider-response","1230","","","","1",""
"4228","banana","kasamok,hagdan,kazi,twai","kazi","j","5","html-keyboard-response","1231","j","kazi","true","",""
"1060.199999988079","","","","","5","html-slider-response","1232","","","","4",""
"2521","book","kuhesa,mali,picha,mara","mali","v","5","html-keyboard-response","1233","v","mali","true","",""
"1091.5","","","","","5","html-slider-response","1234","","","","5",""
"1677","triangle","kihozi,bentaha,liog,kasadpan","kasadpan","n","5","html-keyboard-response","1235","v","bentaha","false","",""
"1795.9000000357628","","","","","5","html-slider-response","1236","","","","2",""
"1747","poster","nchi,fedha,kasuko,madungog","madungog","n","5","html-keyboard-response","1237","n","madungog","true","",""
"2433.900000035763","","","","","5","html-slider-response","1238","","","","5",""
"3320","box","kuacha,rafiki,kitande,adui","adui","n","5","html-keyboard-response","1239","v","rafiki","false","",""
"1266.800000011921","","","","","5","html-slider-response","1240","","","","4",""
"2945","mosquito","isda,taras,martilyo,gutom","martilyo","j","5","html-keyboard-response","1241","j","martilyo","true","",""
"1659","","","","","5","html-slider-response","1242","","","","2",""
"3882","shelf","bungtod,kadaot,awit,pamahaw","pamahaw","n","5","html-keyboard-response","1243","j","awit","false","",""
"1336.0999999642372","","","","","5","html-slider-response","1244","","","","4",""
"5040","scissors","duga,tanuri,mtawa,suga","tanuri","v","5","html-keyboard-response","1245","v","tanuri","true","",""
"1085.8999999761581","","","","","5","html-slider-response","1246","","","","4",""
"2251","hammer","mekno,kitovu,layag,napakyas","napakyas","n","5","html-keyboard-response","1247","v","kitovu","false","",""
"1785.6000000238419","","","","","5","html-slider-response","1248","","","","1",""
