"rt","en_word","options","swa_word","correct_answer","phase","trial_type","trial_index","input_answer","input_word","accuracy","certainty","amt_choices"
"5558","bonfire","mwezi,mfuko,kusanya,goti","goti","n","2","html-keyboard-response","106","v","mfuko","false","",""
"3160.5999999046326","","","","","2","html-slider-response","107","","","","3",""
"3354","flower","tamasha,lobo,usiku,bega","bega","n","2","html-keyboard-response","108","j","usiku","false","",""
"1813.6000000238419","","","","","2","html-slider-response","109","","","","2",""
"3750","column","ufagio,pundok,dila,pala","ufagio","f","2","html-keyboard-response","110","f","ufagio","true","",""
"2949.2999999523163","","","","","2","html-slider-response","111","","","","4",""
"2367","music","mraba,mageho,tumbo,baiski","baiski","n","2","html-keyboard-response","112","v","mageho","false","",""
"2809","","","","","2","html-slider-response","113","","","","3",""
"5601","spider","bunyag,mkboa,atop,kamwe","kamwe","n","2","html-keyboard-response","114","n","kamwe","true","",""
"2664.5999999046326","","","","","2","html-slider-response","115","","","","1",""
"3383","fork","baboy,mgonjwa,paghago,gorisi","mgonjwa","v","2","html-keyboard-response","116","j","paghago","false","",""
"2144.600000023842","","","","","2","html-slider-response","117","","","","2",""
"2166","mosquito","isda,martilyo,taras,gutom","martilyo","v","2","html-keyboard-response","118","v","martilyo","true","",""
"3095.600000023842","","","","","2","html-slider-response","119","","","","5",""
"3013","banana","kasamok,kazi,hagdan,twai","kazi","v","2","html-keyboard-response","120","j","hagdan","false","",""
"2451.9000000953674","","","","","2","html-slider-response","121","","","","3",""
"3095","cup","dagat,shimoni,jeraha,matumai","matumai","n","2","html-keyboard-response","122","n","matumai","true","",""
"2157.1999999284744","","","","","2","html-slider-response","123","","","","2",""
"4746","shop","nopya,samaki,kerida,ndezu","samaki","v","2","html-keyboard-response","124","n","ndezu","false","",""
"2035.2000000476837","","","","","2","html-slider-response","125","","","","2",""
"3107","elephant","kito,petye,pagduol,suka","kito","f","2","html-keyboard-response","126","j","pagduol","false","",""
"2081.600000023842","","","","","2","html-slider-response","127","","","","4",""
"5737","bucket","baga,ijayo,kiatu,init","kiatu","j","2","html-keyboard-response","128","v","ijayo","false","",""
"1710.2000000476837","","","","","2","html-slider-response","129","","","","2",""
"3941","book","kuhesa,mali,picha,mara","mali","v","2","html-keyboard-response","130","j","picha","false","",""
"1887.5999999046326","","","","","2","html-slider-response","131","","","","2",""
"2459","mirror","rangi,sulagma,kanding,furaha","sulagma","v","2","html-keyboard-response","132","n","furaha","false","",""
"2350.8000000715256","","","","","2","html-slider-response","133","","","","3",""
"4030","office","leso,hazini,yatima,kuna","leso","f","2","html-keyboard-response","134","j","yatima","false","",""
"2250.2999999523163","","","","","2","html-slider-response","135","","","","2",""
"2451","body","nyundu,jibini,tindashan,kununa","tindashan","j","2","html-keyboard-response","136","v","jibini","false","",""
"1824.8999999761581","","","","","2","html-slider-response","137","","","","2",""
"3441","perfume","bino,katuyoan,sungura,ndogo","katuyoan","v","2","html-keyboard-response","138","f","bino","false","",""
"2534.8000000715256","","","","","2","html-slider-response","139","","","","1",""
"3483","olive","bata,jiwe,siagi,welder","jiwe","v","2","html-keyboard-response","140","v","jiwe","true","",""
"1845.2000000476837","","","","","2","html-slider-response","141","","","","2",""
"3259","magazine","gundi,mchawi,bahandi,kiti","kiti","n","2","html-keyboard-response","142","j","bahandi","false","",""
"2607.7999999523163","","","","","2","html-slider-response","143","","","","3",""
"2837","bread","kaili,dizeli,dari,bugas","dari","j","2","html-keyboard-response","144","j","dari","true","",""
"2249.7000000476837","","","","","2","html-slider-response","145","","","","4",""
"2109","cave","ganti,maisha,nyundo,kesho","kesho","n","2","html-keyboard-response","146","n","kesho","true","",""
"1858.3999999761581","","","","","2","html-slider-response","147","","","","2",""
"5085","ladder","pangalan,mashua,mwanga,kamba","pangalan","f","2","html-keyboard-response","148","j","mwanga","false","",""
"1729.6000000238419","","","","","2","html-slider-response","149","","","","2",""
"2797","human","bado,kikapu,tinapay,punguza","tinapay","j","2","html-keyboard-response","150","v","kikapu","false","",""
"2035","","","","","2","html-slider-response","151","","","","2",""
"2336","clock","mbwa,kartasi,abang,osha","mbwa","f","2","html-keyboard-response","152","n","osha","false","",""
"2334","","","","","2","html-slider-response","153","","","","3",""
"2548","shelf","pamahaw,bungtod,kadaot,awit","pamahaw","f","2","html-keyboard-response","154","v","bungtod","false","",""
"2218.7999999523163","","","","","2","html-slider-response","155","","","","2",""
"4666","salmon","sensilyo,mzungu,seri,baharia","sensilyo","f","2","html-keyboard-response","156","f","sensilyo","true","",""
"2036.8000000715256","","","","","2","html-slider-response","157","","","","2",""
"2910","coffin","barua,tubag,hulma,kioo","kioo","n","2","html-keyboard-response","158","n","kioo","true","",""
"1921.5","","","","","2","html-slider-response","159","","","","3",""
"3380","notebook","kemia,msitu,kila,mdudu","kemia","f","2","html-keyboard-response","160","f","kemia","true","",""
"1807.1000000238419","","","","","2","html-slider-response","161","","","","2",""
"2846","shoulder","mkuu,kelele,ndaniya,guruwe","mkuu","f","2","html-keyboard-response","162","j","ndaniya","false","",""
"2118.5","","","","","2","html-slider-response","163","","","","3",""
"3214","park","tambok,pwani,bunifu,ihalas","bunifu","j","2","html-keyboard-response","164","v","pwani","false","",""
"1920.6999999284744","","","","","2","html-slider-response","165","","","","2",""
"3203","number","shule,kengele,mundamo,choori","mundamo","j","2","html-keyboard-response","166","v","kengele","false","",""
"2127.7999999523163","","","","","2","html-slider-response","167","","","","3",""
"3517","apple","ukame,kisu,estante,edad","kisu","v","2","html-keyboard-response","168","v","kisu","true","",""
"2303.4000000953674","","","","","2","html-slider-response","169","","","","3",""
"3645","letter","filimbi,kifua,chuma,uhuru","kifua","v","2","html-keyboard-response","170","f","filimbi","false","",""
"2202.7000000476837","","","","","2","html-slider-response","171","","","","2",""
"4875","eel","msumari,ishara,kunywa,kabuang","msumari","f","2","html-keyboard-response","172","j","kunywa","false","",""
"1782.2000000476837","","","","","2","html-slider-response","173","","","","4",""
"2192","cop","bustani,jikoni,mechezo,bakus","mechezo","j","2","html-keyboard-response","174","j","mechezo","true","",""
"1747.8000000715256","","","","","2","html-slider-response","175","","","","4",""
"2617","wolf","kaburi,ndizi,mchuzi,lugha","lugha","n","2","html-keyboard-response","176","n","lugha","true","",""
"2230","","","","","2","html-slider-response","177","","","","5",""
"1977","squirrel","mahugaw,ukweli,kichwa,hofu","hofu","n","2","html-keyboard-response","178","j","kichwa","false","",""
"1717.3999999761581","","","","","2","html-slider-response","179","","","","4",""
"2713","nose","gubat,kopa,kidole,sehemu","sehemu","n","2","html-keyboard-response","180","n","sehemu","true","",""
"3652.7999999523163","","","","","2","html-slider-response","181","","","","3",""
"2733","sock","ndoora,mamba,kimysa,mtirka","mamba","v","2","html-keyboard-response","182","f","ndoora","false","",""
"2320.7000000476837","","","","","2","html-slider-response","183","","","","1",""
"2496","bank","kudhibi,tualya,silingan,ofisi","silingan","j","2","html-keyboard-response","184","j","silingan","true","",""
"1759.1000000238419","","","","","2","html-slider-response","185","","","","2",""
"3352","donkey","bloke,lalake,rombus,elfu","elfu","n","2","html-keyboard-response","186","v","lalake","false","",""
"1894.6999999284744","","","","","2","html-slider-response","187","","","","2",""
"2265","poster","nchi,madungog,fedha,kasuko","madungog","v","2","html-keyboard-response","188","n","kasuko","false","",""
"2191.399999976158","","","","","2","html-slider-response","189","","","","3",""
"3067","puppet","napulo,lamok,godoro,mazishi","mazishi","n","2","html-keyboard-response","190","f","napulo","false","",""
"1959.7000000476837","","","","","2","html-slider-response","191","","","","2",""
"3169","hill","kushoto,matumbo,kukimba,sweta","matumbo","v","2","html-keyboard-response","192","v","matumbo","true","",""
"1833","","","","","2","html-slider-response","193","","","","2",""
"2316","tooth","kabalaka,kijiko,uadui,pahiyum","kabalaka","f","2","html-keyboard-response","194","n","pahiyum","false","",""
"1745","","","","","2","html-slider-response","195","","","","2",""
"3193","woman","bandari,pagtabon,bituin,kovuli","pagtabon","v","2","html-keyboard-response","196","f","bandari","false","",""
"2169.7999999523163","","","","","2","html-slider-response","197","","","","3",""
"2760","wheel","punda,bafuni,tawo,baadaye","bafuni","v","2","html-keyboard-response","198","v","bafuni","true","",""
"3389.3000000715256","","","","","2","html-slider-response","199","","","","3",""
"3539","mother","kahawa,babaye,mbuzi,jokofu","babaye","v","2","html-keyboard-response","200","v","babaye","true","",""
"2139.6999999284744","","","","","2","html-slider-response","201","","","","5",""
"3909","bed","mapintas,kalipay,haraka,starehe","mapintas","f","2","html-keyboard-response","202","v","kalipay","false","",""
"1754.9000000953674","","","","","2","html-slider-response","203","","","","2",""
"2485","key","chombo,miaka,goma,ahos","chombo","f","2","html-keyboard-response","204","n","ahos","false","",""
"2685.8000000715256","","","","","2","html-slider-response","205","","","","3",""
"2207","page","wakala,wimbo,ishiri,skina","wimbo","v","2","html-keyboard-response","206","n","skina","false","",""
"2189.7000000476837","","","","","2","html-slider-response","207","","","","2",""
"3236","pants","haki,pintal,chuki,hari","haki","f","2","html-keyboard-response","208","v","pintal","false","",""
"2089.600000023842","","","","","2","html-slider-response","209","","","","2",""
"4519","sun","bendi,basi,luha,uongo","basi","v","2","html-keyboard-response","210","f","bendi","false","",""
"1758.2000000476837","","","","","2","html-slider-response","211","","","","2",""
"3217","finger","simu,sufuria,moyo,lima","moyo","j","2","html-keyboard-response","212","f","simu","false","",""
"1908.1000000238419","","","","","2","html-slider-response","213","","","","2",""
"2201","shoe","nyeusi,hatua,kama,uyoga","uyoga","n","2","html-keyboard-response","214","j","kama","false","",""
"2072.5","","","","","2","html-slider-response","215","","","","2",""
"2979","giraffe","daraja,mahitabo,jumatu,hangyo","mahitabo","v","2","html-keyboard-response","216","n","hangyo","false","",""
"1853.1000000238419","","","","","2","html-slider-response","217","","","","3",""
"2974","dog","bahari,lubi,washia,kalamu","bahari","f","2","html-keyboard-response","218","v","lubi","false","",""
"2316.7000000476837","","","","","2","html-slider-response","219","","","","4",""
"3469","box","kuacha,rafiki,adui,kitande","adui","j","2","html-keyboard-response","220","f","kuacha","false","",""
"2346","","","","","2","html-slider-response","221","","","","3",""
"1718","scissors","duga,tanuri,mtawa,suga","tanuri","v","2","html-keyboard-response","222","n","suga","false","",""
"1999.5999999046326","","","","","2","html-slider-response","223","","","","2",""
"2279","cat","neyemba,baki,paghukom,akili","paghukom","j","2","html-keyboard-response","224","v","baki","false","",""
"3278.9000000953674","","","","","2","html-slider-response","225","","","","3",""
"2160","basket","kumbuka,utepe,kumba,hasira","kumba","j","2","html-keyboard-response","226","n","hasira","false","",""
"2893.7999999523163","","","","","2","html-slider-response","227","","","","3",""
"2607","snake","jansa,karon,pagtukod,mvringo","pagtukod","j","2","html-keyboard-response","228","j","pagtukod","true","",""
"1718","","","","","2","html-slider-response","229","","","","4",""
"3057","gift","baba,nyange,pagtawag,baso","pagtawag","j","2","html-keyboard-response","230","v","nyange","false","",""
"2238.5","","","","","2","html-slider-response","231","","","","3",""
"2788","train","itik,dakika,sayari,mungu","sayari","j","2","html-keyboard-response","232","j","sayari","true","",""
"2814.399999976158","","","","","2","html-slider-response","233","","","","2",""
"2547","pudding","aibu,abug,mpishi,iring","aibu","f","2","html-keyboard-response","234","j","mpishi","false","",""
"3255.600000023842","","","","","2","html-slider-response","235","","","","1",""
"2007","tomato","mvua,chupi,chupa,takatak","mvua","f","2","html-keyboard-response","236","n","takatak","false","",""
"1863.8999999761581","","","","","2","html-slider-response","237","","","","2",""
"3072","stone","ulimwengu,wingi,mkasi,asili","wingi","v","2","html-keyboard-response","238","n","asili","false","",""
"2026.7999999523163","","","","","2","html-slider-response","239","","","","2",""
"2993","hammer","napakyas,mekno,kitovu,layag","napakyas","f","2","html-keyboard-response","240","f","napakyas","true","",""
"2192.7999999523163","","","","","2","html-slider-response","241","","","","2",""
"1666","knee","mvuke,kubale,bili,duka","duka","n","2","html-keyboard-response","242","j","bili","false","",""
"2397.399999976158","","","","","2","html-slider-response","243","","","","3",""
"1749","ceiling","kugita,kawaida,rayna,maua","maua","n","2","html-keyboard-response","244","v","kawaida","false","",""
"2138.399999976158","","","","","2","html-slider-response","245","","","","3",""
"2435","spoon","betri,nzuri,ngazi,pagsulod","pagsulod","n","2","html-keyboard-response","246","v","nzuri","false","",""
"2925.600000023842","","","","","2","html-slider-response","247","","","","3",""
"1710","marker","mapafu,maji,salita,atay","maji","v","2","html-keyboard-response","248","f","mapafu","false","",""
"2195.4000000953674","","","","","2","html-slider-response","249","","","","3",""
"3295","candle","geza,gabi,farasi,kupanda","geza","f","2","html-keyboard-response","250","n","kupanda","false","",""
"2314.7999999523163","","","","","2","html-slider-response","251","","","","3",""
"1866","tissue","lamigas,kisiwa,katika,ugomvi","ugomvi","n","2","html-keyboard-response","252","n","ugomvi","true","",""
"2569.3000000715256","","","","","2","html-slider-response","253","","","","3",""
"1897","bridge","daima,ngono,panya,sahani","sahani","n","2","html-keyboard-response","254","f","daima","false","",""
"2890","","","","","2","html-slider-response","255","","","","2",""
"2631","berry","abogado,kofia,nogozi,kinywa","kofia","v","2","html-keyboard-response","256","v","kofia","true","",""
"1799","","","","","2","html-slider-response","257","","","","4",""
"2419","triangle","kihozi,bentaha,liog,kasadpan","kasadpan","n","2","html-keyboard-response","258","n","kasadpan","true","",""
"2479.5","","","","","2","html-slider-response","259","","","","1",""
"2784","door","tena,surali,soko,nyota","surali","v","2","html-keyboard-response","260","j","soko","false","",""
"2343","","","","","2","html-slider-response","261","","","","1",""
"3580","fish","bala,buli,baho,imani","buli","v","2","html-keyboard-response","262","f","bala","false","",""
"3459.7000000476837","","","","","2","html-slider-response","263","","","","3",""
"2492","curtain","lisud,mchanga,bulwawan,chubani","mchanga","v","2","html-keyboard-response","264","n","chubani","false","",""
"2332.399999976158","","","","","2","html-slider-response","265","","","","2",""
"2045","flag","ndege,mkate,trekta,kawa","trekta","j","2","html-keyboard-response","266","n","kawa","false","",""
"2391.399999976158","","","","","2","html-slider-response","267","","","","2",""
"2658","boat","hamsi,pombe,agalon,kitanda","agalon","j","2","html-keyboard-response","268","j","agalon","true","",""
"1870.3000000715256","","","","","2","html-slider-response","269","","","","1",""
"3453","rose","singizi,paghalad,mwanake,amani","paghalad","v","2","html-keyboard-response","270","f","singizi","false","",""
"1984.7000000476837","","","","","2","html-slider-response","271","","","","1",""
"2755","lamp","daub,bilaska,afya,mbolea","afya","j","2","html-keyboard-response","272","j","afya","true","",""
"1561.2000000476837","","","","","2","html-slider-response","273","","","","2",""
"2709","cigar","adhabu,ndugu,kuta,mlango","adhabu","f","2","html-keyboard-response","274","f","adhabu","true","",""
"2793.2000000476837","","","","","2","html-slider-response","275","","","","3",""
"1438","list","alizeti,kuzama,wingu,kaso","wingu","j","2","html-keyboard-response","276","n","kaso","false","",""
"1727","","","","","2","html-slider-response","277","","","","2",""
"1682","sheet","juuya,watu,bililhon,kamantis","bililhon","j","2","html-keyboard-response","278","v","watu","false","",""
"2286.2999999523163","","","","","2","html-slider-response","279","","","","2",""
"1925","picture","silya,kubwa,chaki,asin","kubwa","v","2","html-keyboard-response","280","j","chaki","false","",""
"2116.2000000476837","","","","","2","html-slider-response","281","","","","2",""
"1858","towel","tembo,funzi,pito,pagpalit","pagpalit","n","2","html-keyboard-response","282","n","pagpalit","true","",""
"2920.2000000476837","","","","","2","html-slider-response","283","","","","3",""
"2092","window","nanga,kweli,kujenga,umaga","kweli","v","2","html-keyboard-response","284","j","kujenga","false","",""
"2221.1999999284744","","","","","2","html-slider-response","285","","","","2",""
"3174","box","kuacha,rafiki,kitande,adui","adui","n","3","html-keyboard-response","293","n","adui","true","","4"
"2003.6000000238419","","","","","3","html-slider-response","294","","","","2",""
"1783","","","","","3","html-keyboard-response","295","","","","",""
"3898","pants","pintal,haki,chuki,hari","haki","v","3","html-keyboard-response","296","f","pintal","false","","4"
"1804.3000000715256","","","","","3","html-slider-response","297","","","","2",""
"2929","","","","","3","html-keyboard-response","298","","","","",""
"2916","cup","dagat,shimoni,matumai,jeraha","matumai","j","3","html-keyboard-response","299","j","matumai","true","","4"
"1857.2000000476837","","","","","3","html-slider-response","300","","","","2",""
"2137","","","","","3","html-keyboard-response","301","","","","",""
"2605","triangle","kihozi,bentaha,kasadpan,liog","kasadpan","j","3","html-keyboard-response","302","v","bentaha","false","","4"
"1811.5","","","","","3","html-slider-response","303","","","","2",""
"1889","","","","","3","html-keyboard-response","304","","","","",""
"2273","curtain","lisud,bulwawan,mchanga,chubani","mchanga","j","3","html-keyboard-response","305","v","bulwawan","false","","4"
"1615.1999999284744","","","","","3","html-slider-response","306","","","","2",""
"2350","","","","","3","html-keyboard-response","307","","","","",""
"2590","clock","kartasi,abang,osha,mbwa","mbwa","n","3","html-keyboard-response","308","j","osha","false","","4"
"1823.8999999761581","","","","","3","html-slider-response","309","","","","2",""
"2356","","","","","3","html-keyboard-response","310","","","","",""
"2578","mirror","rangi,sulagma,kanding,furaha","sulagma","v","3","html-keyboard-response","311","v","sulagma","true","","4"
"2342.5","","","","","3","html-slider-response","312","","","","4",""
"1481","","","","","3","html-keyboard-response","313","","","","",""
"3434","coffin","kioo,barua,tubag,hulma","kioo","f","3","html-keyboard-response","314","f","kioo","true","","1"
"2198.899999976158","","","","","3","html-slider-response","315","","","","5",""
"832","","","","","3","html-keyboard-response","316","","","","",""
"2811","magazine","gundi,kiti,mchawi,bahandi","kiti","v","3","html-keyboard-response","317","n","bahandi","false","","4"
"1749.7000000476837","","","","","3","html-slider-response","318","","","","4",""
"1331","","","","","3","html-keyboard-response","319","","","","",""
"1864","column","pundok,dila,pala,ufagio","ufagio","n","3","html-keyboard-response","320","n","ufagio","true","","1"
"2465.899999976158","","","","","3","html-slider-response","321","","","","5",""
"835","","","","","3","html-keyboard-response","322","","","","",""
"3710","number","shule,kengele,mundamo,choori","mundamo","j","3","html-keyboard-response","323","j","mundamo","true","","4"
"1400.7999999523163","","","","","3","html-slider-response","324","","","","4",""
"844","","","","","3","html-keyboard-response","325","","","","",""
"2250","rose","singizi,mwanake,paghalad,amani","paghalad","j","3","html-keyboard-response","326","n","amani","false","","4"
"2826.2000000476837","","","","","3","html-slider-response","327","","","","2",""
"1716","","","","","3","html-keyboard-response","328","","","","",""
"1847","eel","ishara,kunywa,msumari,kabuang","msumari","j","3","html-keyboard-response","329","j","msumari","true","","4"
"1785.8999999761581","","","","","3","html-slider-response","330","","","","4",""
"1656","","","","","3","html-keyboard-response","331","","","","",""
"2574","gift","baba,pagtawag,nyange,baso","pagtawag","v","3","html-keyboard-response","332","n","baso","false","","4"
"1636.2000000476837","","","","","3","html-slider-response","333","","","","2",""
"1569","","","","","3","html-keyboard-response","334","","","","",""
"1532","apple","ukame,estante,kisu,edad","kisu","j","3","html-keyboard-response","335","j","kisu","true","","1"
"2312.8000000715256","","","","","3","html-slider-response","336","","","","5",""
"835","","","","","3","html-keyboard-response","337","","","","",""
"2283","wheel","bafuni,punda,tawo,baadaye","bafuni","f","3","html-keyboard-response","338","f","bafuni","true","","1"
"1821.6000000238419","","","","","3","html-slider-response","339","","","","5",""
"506","","","","","3","html-keyboard-response","340","","","","",""
"3038","knee","duka,mvuke,kubale,bili","duka","f","3","html-keyboard-response","341","v","mvuke","false","","4"
"1973.3000000715256","","","","","3","html-slider-response","342","","","","2",""
"720","","","","","3","html-keyboard-response","343","","","","",""
"1566","basket","kumbuka,utepe,hasira,kumba","kumba","n","3","html-keyboard-response","344","n","kumba","true","","1"
"1934.3999999761581","","","","","3","html-slider-response","345","","","","5",""
"691","","","","","3","html-keyboard-response","346","","","","",""
"3023","park","tambok,bunifu,pwani,ihalas","bunifu","v","3","html-keyboard-response","347","j","pwani","false","","4"
"4041","","","","","3","html-slider-response","348","","","","4",""
"2626","","","","","3","html-keyboard-response","349","","","","",""
"2559","finger","simu,sufuria,lima,moyo","moyo","n","3","html-keyboard-response","350","f","simu","false","","4"
"2184.7999999523163","","","","","3","html-slider-response","351","","","","3",""
"1628","","","","","3","html-keyboard-response","352","","","","",""
"2737","boat","hamsi,pombe,agalon,kitanda","agalon","j","3","html-keyboard-response","353","n","kitanda","false","","4"
"2344.8000000715256","","","","","3","html-slider-response","354","","","","3",""
"583","","","","","3","html-keyboard-response","355","","","","",""
"3041","hill","matumbo,kushoto,kukimba,sweta","matumbo","f","3","html-keyboard-response","356","j","kukimba","false","","4"
"1766.1000000238419","","","","","3","html-slider-response","357","","","","2",""
"1176","","","","","3","html-keyboard-response","358","","","","",""
"3545","train","itik,dakika,sayari,mungu","sayari","j","3","html-keyboard-response","359","n","mungu","false","","4"
"3619.7000000476837","","","","","3","html-slider-response","360","","","","4",""
"671","","","","","3","html-keyboard-response","361","","","","",""
"2293","wolf","lugha,kaburi,ndizi,mchuzi","lugha","f","3","html-keyboard-response","362","f","lugha","true","","4"
"1930.3999999761581","","","","","3","html-slider-response","363","","","","5",""
"632","","","","","3","html-keyboard-response","364","","","","",""
"3385","snake","pagtukod,jansa,karon,mvringo","pagtukod","f","3","html-keyboard-response","365","f","pagtukod","true","","4"
"1974.3999999761581","","","","","3","html-slider-response","366","","","","2",""
"1844","","","","","3","html-keyboard-response","367","","","","",""
"2860","tooth","kijiko,uadui,kabalaka,pahiyum","kabalaka","j","3","html-keyboard-response","368","v","uadui","false","","4"
"3614.3000000715256","","","","","3","html-slider-response","369","","","","2",""
"1208","","","","","3","html-keyboard-response","370","","","","",""
"2570","notebook","kemia,msitu,kila,mdudu","kemia","f","3","html-keyboard-response","371","v","msitu","false","","4"
"1578.8000000715256","","","","","3","html-slider-response","372","","","","4",""
"705","","","","","3","html-keyboard-response","373","","","","",""
"2294","flag","ndege,mkate,trekta,kawa","trekta","j","3","html-keyboard-response","374","n","kawa","false","","4"
"1989.1000000238419","","","","","3","html-slider-response","375","","","","4",""
"577","","","","","3","html-keyboard-response","376","","","","",""
"2666","squirrel","mahugaw,ukweli,kichwa,hofu","hofu","n","3","html-keyboard-response","377","j","kichwa","false","","4"
"2152.3000000715256","","","","","3","html-slider-response","378","","","","4",""
"562","","","","","3","html-keyboard-response","379","","","","",""
"2064","door","surali,tena,soko,nyota","surali","f","3","html-keyboard-response","380","v","tena","false","","4"
"1602","","","","","3","html-slider-response","381","","","","2",""
"542","","","","","3","html-keyboard-response","382","","","","",""
"4500","salmon","sensilyo,mzungu,seri,baharia","sensilyo","f","3","html-keyboard-response","383","f","sensilyo","true","","4"
"1488.3999999761581","","","","","3","html-slider-response","384","","","","4",""
"758","","","","","3","html-keyboard-response","385","","","","",""
"2608","shoulder","kelele,ndaniya,mkuu,guruwe","mkuu","j","3","html-keyboard-response","386","v","ndaniya","false","","4"
"3424.2000000476837","","","","","3","html-slider-response","387","","","","3",""
"443","","","","","3","html-keyboard-response","388","","","","",""
"2019","lamp","daub,bilaska,mbolea,afya","afya","n","3","html-keyboard-response","389","n","afya","true","","4"
"2442.8000000715256","","","","","3","html-slider-response","390","","","","3",""
"895","","","","","3","html-keyboard-response","391","","","","",""
"1986","shelf","bungtod,pamahaw,kadaot,awit","pamahaw","v","3","html-keyboard-response","392","v","pamahaw","true","","1"
"2292","","","","","3","html-slider-response","393","","","","5",""
"785","","","","","3","html-keyboard-response","394","","","","",""
"3136","human","bado,tinapay,kikapu,punguza","tinapay","v","3","html-keyboard-response","395","n","punguza","false","","4"
"2745.600000023842","","","","","3","html-slider-response","396","","","","3",""
"1590","","","","","3","html-keyboard-response","397","","","","",""
"3638","towel","tembo,funzi,pagpalit,pito","pagpalit","j","3","html-keyboard-response","398","f","tembo","false","","4"
"2351.600000023842","","","","","3","html-slider-response","399","","","","2",""
"654","","","","","3","html-keyboard-response","400","","","","",""
"1851","cat","neyemba,paghukom,baki,akili","paghukom","v","3","html-keyboard-response","401","j","baki","false","","4"
"1629.5999999046326","","","","","3","html-slider-response","402","","","","4",""
"874","","","","","3","html-keyboard-response","403","","","","",""
"3714","spider","bunyag,mkboa,kamwe,atop","kamwe","j","3","html-keyboard-response","404","f","bunyag","false","","4"
"3334.100000023842","","","","","3","html-slider-response","405","","","","4",""
"602","","","","","3","html-keyboard-response","406","","","","",""
"1800","window","nanga,kweli,kujenga,umaga","kweli","v","3","html-keyboard-response","407","n","umaga","false","","4"
"2314.7999999523163","","","","","3","html-slider-response","408","","","","2",""
"756","","","","","3","html-keyboard-response","409","","","","",""
"2127","woman","bandari,bituin,pagtabon,kovuli","pagtabon","j","3","html-keyboard-response","410","j","pagtabon","true","","1"
"1891.1000000238419","","","","","3","html-slider-response","411","","","","5",""
"699","","","","","3","html-keyboard-response","412","","","","",""
"3099","giraffe","mahitabo,daraja,jumatu,hangyo","mahitabo","f","3","html-keyboard-response","413","n","hangyo","false","","4"
"1928.1000000238419","","","","","3","html-slider-response","414","","","","3",""
"743","","","","","3","html-keyboard-response","415","","","","",""
"3631","elephant","petye,pagduol,suka,kito","kito","n","3","html-keyboard-response","416","v","pagduol","false","","4"
"2164.600000023842","","","","","3","html-slider-response","417","","","","3",""
"1148","","","","","3","html-keyboard-response","418","","","","",""
"3055","cave","ganti,kesho,maisha,nyundo","kesho","v","3","html-keyboard-response","419","f","ganti","false","","4"
"2186.2000000476837","","","","","3","html-slider-response","420","","","","2",""
"638","","","","","3","html-keyboard-response","421","","","","",""
"2729","bread","kaili,dizeli,dari,bugas","dari","j","3","html-keyboard-response","422","j","dari","true","","4"
"2282.899999976158","","","","","3","html-slider-response","423","","","","5",""
"681","","","","","3","html-keyboard-response","424","","","","",""
"2498","stone","ulimwengu,mkasi,wingi,asili","wingi","j","3","html-keyboard-response","425","v","mkasi","false","","4"
"2019","","","","","3","html-slider-response","426","","","","3",""
"521","","","","","3","html-keyboard-response","427","","","","",""
"2443","donkey","bloke,lalake,elfu,rombus","elfu","j","3","html-keyboard-response","428","v","lalake","false","","4"
"2907.399999976158","","","","","3","html-slider-response","429","","","","3",""
"841","","","","","3","html-keyboard-response","430","","","","",""
"2142","bridge","daima,ngono,panya,sahani","sahani","n","3","html-keyboard-response","431","j","panya","false","","4"
"1798.3999999761581","","","","","3","html-slider-response","432","","","","3",""
"700","","","","","3","html-keyboard-response","433","","","","",""
"6704","bonfire","goti,mwezi,mfuko,kusanya","goti","f","3","html-keyboard-response","434","j","mfuko","false","","4"
"1893.7000000476837","","","","","3","html-slider-response","435","","","","4",""
"1143","","","","","3","html-keyboard-response","436","","","","",""
"3843","book","mali,kuhesa,picha,mara","mali","f","3","html-keyboard-response","437","f","mali","true","","4"
"1645.1000000238419","","","","","3","html-slider-response","438","","","","4",""
"620","","","","","3","html-keyboard-response","439","","","","",""
"2540","fish","buli,bala,baho,imani","buli","f","3","html-keyboard-response","440","j","baho","false","","4"
"1817.2000000476837","","","","","3","html-slider-response","441","","","","3",""
"862","","","","","3","html-keyboard-response","442","","","","",""
"1804","spoon","betri,nzuri,pagsulod,ngazi","pagsulod","j","3","html-keyboard-response","443","n","ngazi","false","","4"
"2151.8000000715256","","","","","3","html-slider-response","444","","","","4",""
"605","","","","","3","html-keyboard-response","445","","","","",""
"3718","scissors","duga,tanuri,mtawa,suga","tanuri","v","3","html-keyboard-response","446","j","mtawa","false","","4"
"2547.5","","","","","3","html-slider-response","447","","","","3",""
"624","","","","","3","html-keyboard-response","448","","","","",""
"1992","page","wakala,wimbo,ishiri,skina","wimbo","v","3","html-keyboard-response","449","n","skina","false","","4"
"2628.600000023842","","","","","3","html-slider-response","450","","","","3",""
"910","","","","","3","html-keyboard-response","451","","","","",""
"2198","nose","sehemu,gubat,kopa,kidole","sehemu","f","3","html-keyboard-response","452","f","sehemu","true","","1"
"2152.3000000715256","","","","","3","html-slider-response","453","","","","5",""
"637","","","","","3","html-keyboard-response","454","","","","",""
"2298","ceiling","kugita,kawaida,rayna,maua","maua","n","3","html-keyboard-response","455","v","kawaida","false","","4"
"2660.8000000715256","","","","","3","html-slider-response","456","","","","3",""
"461","","","","","3","html-keyboard-response","457","","","","",""
"2451","bucket","baga,ijayo,kiatu,init","kiatu","j","3","html-keyboard-response","458","v","ijayo","false","","4"
"1712.8999999761581","","","","","3","html-slider-response","459","","","","3",""
"882","","","","","3","html-keyboard-response","460","","","","",""
"1652","berry","abogado,nogozi,kofia,kinywa","kofia","j","3","html-keyboard-response","461","j","kofia","true","","1"
"1977.1000000238419","","","","","3","html-slider-response","462","","","","5",""
"892","","","","","3","html-keyboard-response","463","","","","",""
"1963","mother","kahawa,babaye,mbuzi,jokofu","babaye","v","3","html-keyboard-response","464","v","babaye","true","","1"
"2188.9000000953674","","","","","3","html-slider-response","465","","","","5",""
"797","","","","","3","html-keyboard-response","466","","","","",""
"2880","mosquito","isda,martilyo,taras,gutom","martilyo","v","3","html-keyboard-response","467","v","martilyo","true","","4"
"2397.600000023842","","","","","3","html-slider-response","468","","","","4",""
"930","","","","","3","html-keyboard-response","469","","","","",""
"5309","perfume","bino,sungura,katuyoan,ndogo","katuyoan","j","3","html-keyboard-response","470","v","sungura","false","","4"
"2208.8000000715256","","","","","3","html-slider-response","471","","","","2",""
"562","","","","","3","html-keyboard-response","472","","","","",""
"3901","sheet","juuya,bililhon,watu,kamantis","bililhon","v","3","html-keyboard-response","473","f","juuya","false","","4"
"1867","","","","","3","html-slider-response","474","","","","2",""
"995","","","","","3","html-keyboard-response","475","","","","",""
"2507","puppet","napulo,lamok,godoro,mazishi","mazishi","n","3","html-keyboard-response","476","n","mazishi","true","","1"
"1919.7999999523163","","","","","3","html-slider-response","477","","","","5",""
"752","","","","","3","html-keyboard-response","478","","","","",""
"2611","poster","madungog,nchi,fedha,kasuko","madungog","f","3","html-keyboard-response","479","v","nchi","false","","4"
"1731.1999999284744","","","","","3","html-slider-response","480","","","","2",""
"1583","","","","","3","html-keyboard-response","481","","","","",""
"3134","music","mraba,baiski,mageho,tumbo","baiski","v","3","html-keyboard-response","482","j","mageho","false","","4"
"1706.5","","","","","3","html-slider-response","483","","","","2",""
"586","","","","","3","html-keyboard-response","484","","","","",""
"3554","key","miaka,chombo,goma,ahos","chombo","v","3","html-keyboard-response","485","v","chombo","true","","4"
"2119.5","","","","","3","html-slider-response","486","","","","2",""
"809","","","","","3","html-keyboard-response","487","","","","",""
"3829","sock","ndoora,kimysa,mtirka,mamba","mamba","n","3","html-keyboard-response","488","j","mtirka","false","","4"
"2538.600000023842","","","","","3","html-slider-response","489","","","","2",""
"1119","","","","","3","html-keyboard-response","490","","","","",""
"4388","marker","mapafu,salita,maji,atay","maji","j","3","html-keyboard-response","491","j","maji","true","","4"
"1633.3999999761581","","","","","3","html-slider-response","492","","","","2",""
"667","","","","","3","html-keyboard-response","493","","","","",""
"3479","office","hazini,yatima,kuna,leso","leso","n","3","html-keyboard-response","494","f","hazini","false","","4"
"3938.7999999523163","","","","","3","html-slider-response","495","","","","4",""
"926","","","","","3","html-keyboard-response","496","","","","",""
"3317","shoe","uyoga,nyeusi,hatua,kama","uyoga","f","3","html-keyboard-response","497","f","uyoga","true","","4"
"1878.2999999523163","","","","","3","html-slider-response","498","","","","2",""
"1318","","","","","3","html-keyboard-response","499","","","","",""
"2287","cop","bustani,jikoni,bakus,mechezo","mechezo","n","3","html-keyboard-response","500","n","mechezo","true","","4"
"2395.7000000476837","","","","","3","html-slider-response","501","","","","5",""
"682","","","","","3","html-keyboard-response","502","","","","",""
"2795","bank","kudhibi,tualya,ofisi,silingan","silingan","n","3","html-keyboard-response","503","j","ofisi","false","","4"
"1691.5","","","","","3","html-slider-response","504","","","","4",""
"782","","","","","3","html-keyboard-response","505","","","","",""
"1739","letter","filimbi,chuma,uhuru,kifua","kifua","n","3","html-keyboard-response","506","n","kifua","true","","1"
"1927.7000000476837","","","","","3","html-slider-response","507","","","","5",""
"686","","","","","3","html-keyboard-response","508","","","","",""
"1916","dog","lubi,bahari,washia,kalamu","bahari","v","3","html-keyboard-response","509","v","bahari","true","","1"
"2503.5","","","","","3","html-slider-response","510","","","","5",""
"588","","","","","3","html-keyboard-response","511","","","","",""
"2848","shop","nopya,kerida,ndezu,samaki","samaki","n","3","html-keyboard-response","512","j","ndezu","false","","4"
"1573.7999999523163","","","","","3","html-slider-response","513","","","","2",""
"519","","","","","3","html-keyboard-response","514","","","","",""
"2912","flower","tamasha,bega,lobo,usiku","bega","v","3","html-keyboard-response","515","v","bega","true","","4"
"1918.8999999761581","","","","","3","html-slider-response","516","","","","4",""
"698","","","","","3","html-keyboard-response","517","","","","",""
"2772","cigar","ndugu,kuta,mlango,adhabu","adhabu","n","3","html-keyboard-response","518","n","adhabu","true","","1"
"2019.2000000476837","","","","","3","html-slider-response","519","","","","5",""
"1242","","","","","3","html-keyboard-response","520","","","","",""
"3516","hammer","mekno,kitovu,napakyas,layag","napakyas","j","3","html-keyboard-response","521","f","mekno","false","","4"
"2039.2999999523163","","","","","3","html-slider-response","522","","","","2",""
"633","","","","","3","html-keyboard-response","523","","","","",""
"4124","fork","baboy,paghago,mgonjwa,gorisi","mgonjwa","j","3","html-keyboard-response","524","v","paghago","false","","4"
"2736.7000000476837","","","","","3","html-slider-response","525","","","","2",""
"698","","","","","3","html-keyboard-response","526","","","","",""
"1283","sun","bendi,basi,luha,uongo","basi","v","3","html-keyboard-response","527","v","basi","true","","1"
"2407.3000000715256","","","","","3","html-slider-response","528","","","","5",""
"681","","","","","3","html-keyboard-response","529","","","","",""
"4133","ladder","pangalan,mashua,mwanga,kamba","pangalan","f","3","html-keyboard-response","530","f","pangalan","true","","4"
"3643.3000000715256","","","","","3","html-slider-response","531","","","","4",""
"1162","","","","","3","html-keyboard-response","532","","","","",""
"1312","banana","kasamok,hagdan,twai,kazi","kazi","n","3","html-keyboard-response","533","n","kazi","true","","1"
"2149.2999999523163","","","","","3","html-slider-response","534","","","","5",""
"505","","","","","3","html-keyboard-response","535","","","","",""
"2591","pudding","abug,mpishi,aibu,iring","aibu","j","3","html-keyboard-response","536","v","mpishi","false","","4"
"1802.5","","","","","3","html-slider-response","537","","","","2",""
"548","","","","","3","html-keyboard-response","538","","","","",""
"3606","body","nyundu,jibini,tindashan,kununa","tindashan","j","3","html-keyboard-response","539","j","tindashan","true","","4"
"2076.5","","","","","3","html-slider-response","540","","","","4",""
"674","","","","","3","html-keyboard-response","541","","","","",""
"3453","bed","mapintas,kalipay,haraka,starehe","mapintas","f","3","html-keyboard-response","542","v","kalipay","false","","4"
"2298.899999976158","","","","","3","html-slider-response","543","","","","4",""
"981","","","","","3","html-keyboard-response","544","","","","",""
"2711","tissue","lamigas,kisiwa,ugomvi,katika","ugomvi","j","3","html-keyboard-response","545","v","kisiwa","false","","4"
"2709.899999976158","","","","","3","html-slider-response","546","","","","2",""
"640","","","","","3","html-keyboard-response","547","","","","",""
"3597","candle","geza,gabi,farasi,kupanda","geza","f","3","html-keyboard-response","548","n","kupanda","false","","4"
"2645.6999999284744","","","","","3","html-slider-response","549","","","","3",""
"731","","","","","3","html-keyboard-response","550","","","","",""
"1791","tomato","chupi,mvua,chupa,takatak","mvua","v","3","html-keyboard-response","551","v","mvua","true","","1"
"1846.8000000715256","","","","","3","html-slider-response","552","","","","5",""
"636","","","","","3","html-keyboard-response","553","","","","",""
"2820","list","alizeti,wingu,kuzama,kaso","wingu","v","3","html-keyboard-response","554","n","kaso","false","","4"
"2369.600000023842","","","","","3","html-slider-response","555","","","","3",""
"711","","","","","3","html-keyboard-response","556","","","","",""
"3070","olive","bata,jiwe,siagi,welder","jiwe","v","3","html-keyboard-response","557","v","jiwe","true","","4"
"2099.2999999523163","","","","","3","html-slider-response","558","","","","2",""
"880","","","","","3","html-keyboard-response","559","","","","",""
"1833","picture","silya,chaki,kubwa,asin","kubwa","j","3","html-keyboard-response","560","j","kubwa","true","","1"
"2307.5","","","","","3","html-slider-response","561","","","","5",""
"648","","","","","3","html-keyboard-response","562","","","","",""
"2414","page","wakala,ishiri,wimbo,skina","wimbo","j","4","html-keyboard-response","888","n","skina","false","",""
"3112.4000000953674","","","","","4","html-slider-response","889","","","","2",""
"4261","sheet","bililhon,juuya,watu,kamantis","bililhon","f","4","html-keyboard-response","890","j","watu","false","",""
"1637.3999999761581","","","","","4","html-slider-response","891","","","","2",""
"3604","ladder","mashua,mwanga,kamba,pangalan","pangalan","n","4","html-keyboard-response","892","v","mwanga","false","",""
"1491.1000000238419","","","","","4","html-slider-response","893","","","","2",""
"3065","door","tena,surali,soko,nyota","surali","v","4","html-keyboard-response","894","f","tena","false","",""
"1845.7999999523163","","","","","4","html-slider-response","895","","","","4",""
"4692","spider","bunyag,mkboa,atop,kamwe","kamwe","n","4","html-keyboard-response","896","f","bunyag","false","",""
"2447.3000000715256","","","","","4","html-slider-response","897","","","","3",""
"2878","picture","kubwa,silya,chaki,asin","kubwa","f","4","html-keyboard-response","898","v","silya","false","",""
"1527.4000000953674","","","","","4","html-slider-response","899","","","","4",""
"3075","boat","hamsi,agalon,pombe,kitanda","agalon","v","4","html-keyboard-response","900","v","agalon","true","",""
"3219.5","","","","","4","html-slider-response","901","","","","3",""
"2571","donkey","bloke,lalake,rombus,elfu","elfu","n","4","html-keyboard-response","902","n","elfu","true","",""
"2423.3000000715256","","","","","4","html-slider-response","903","","","","5",""
"3763","book","kuhesa,picha,mara,mali","mali","n","4","html-keyboard-response","904","n","mali","true","",""
"2143.7000000476837","","","","","4","html-slider-response","905","","","","4",""
"2830","cup","dagat,shimoni,matumai,jeraha","matumai","j","4","html-keyboard-response","906","f","dagat","false","",""
"1780.8999999761581","","","","","4","html-slider-response","907","","","","2",""
"3276","sun","bendi,luha,basi,uongo","basi","j","4","html-keyboard-response","908","j","basi","true","",""
"2195.2999999523163","","","","","4","html-slider-response","909","","","","3",""
"2218","pudding","abug,aibu,mpishi,iring","aibu","v","4","html-keyboard-response","910","j","mpishi","false","",""
"2209.600000023842","","","","","4","html-slider-response","911","","","","3",""
"2510","human","tinapay,bado,kikapu,punguza","tinapay","f","4","html-keyboard-response","912","n","punguza","false","",""
"3572.7999999523163","","","","","4","html-slider-response","913","","","","3",""
"2920","squirrel","mahugaw,hofu,ukweli,kichwa","hofu","v","4","html-keyboard-response","914","n","kichwa","false","",""
"1591.4000000953674","","","","","4","html-slider-response","915","","","","4",""
"2595","park","tambok,pwani,ihalas,bunifu","bunifu","n","4","html-keyboard-response","916","v","pwani","false","",""
"1559.4000000953674","","","","","4","html-slider-response","917","","","","2",""
"3437","poster","nchi,madungog,fedha,kasuko","madungog","v","4","html-keyboard-response","918","n","kasuko","false","",""
"1612","","","","","4","html-slider-response","919","","","","2",""
"1943","wolf","kaburi,ndizi,lugha,mchuzi","lugha","j","4","html-keyboard-response","920","j","lugha","true","",""
"1875.1999999284744","","","","","4","html-slider-response","921","","","","5",""
"3994","cat","neyemba,baki,akili,paghukom","paghukom","n","4","html-keyboard-response","922","n","paghukom","true","",""
"2244.100000023842","","","","","4","html-slider-response","923","","","","4",""
"3560","fish","buli,bala,baho,imani","buli","f","4","html-keyboard-response","924","f","buli","true","",""
"2288.7000000476837","","","","","4","html-slider-response","925","","","","4",""
"2283","tooth","kabalaka,kijiko,uadui,pahiyum","kabalaka","f","4","html-keyboard-response","926","n","pahiyum","false","",""
"1946","","","","","4","html-slider-response","927","","","","3",""
"3154","cave","ganti,kesho,maisha,nyundo","kesho","v","4","html-keyboard-response","928","v","kesho","true","",""
"1564.9000000953674","","","","","4","html-slider-response","929","","","","2",""
"3006","lamp","daub,bilaska,mbolea,afya","afya","n","4","html-keyboard-response","930","v","bilaska","false","",""
"2642.600000023842","","","","","4","html-slider-response","931","","","","2",""
"2759","banana","kasamok,hagdan,twai,kazi","kazi","n","4","html-keyboard-response","932","j","twai","false","",""
"2073.7000000476837","","","","","4","html-slider-response","933","","","","2",""
"3408","bonfire","mwezi,mfuko,kusanya,goti","goti","n","4","html-keyboard-response","934","j","kusanya","false","",""
"2559.5999999046326","","","","","4","html-slider-response","935","","","","3",""
"1808","cop","bustani,jikoni,mechezo,bakus","mechezo","j","4","html-keyboard-response","936","j","mechezo","true","",""
"1900.3999999761581","","","","","4","html-slider-response","937","","","","5",""
"2571","marker","mapafu,salita,atay,maji","maji","n","4","html-keyboard-response","938","n","maji","true","",""
"1503.1000000238419","","","","","4","html-slider-response","939","","","","4",""
"2793","window","nanga,kweli,kujenga,umaga","kweli","v","4","html-keyboard-response","940","n","umaga","false","",""
"2208.600000023842","","","","","4","html-slider-response","941","","","","2",""
"3712","body","nyundu,tindashan,jibini,kununa","tindashan","v","4","html-keyboard-response","942","j","jibini","false","",""
"2035","","","","","4","html-slider-response","943","","","","2",""
"2191","apple","ukame,estante,kisu,edad","kisu","j","4","html-keyboard-response","944","j","kisu","true","",""
"2667.600000023842","","","","","4","html-slider-response","945","","","","5",""
"2570","salmon","mzungu,seri,sensilyo,baharia","sensilyo","j","4","html-keyboard-response","946","j","sensilyo","true","",""
"2035.3999999761581","","","","","4","html-slider-response","947","","","","2",""
"3600","bed","mapintas,kalipay,haraka,starehe","mapintas","f","4","html-keyboard-response","948","f","mapintas","true","",""
"2144.2000000476837","","","","","4","html-slider-response","949","","","","3",""
"2435","berry","abogado,kofia,nogozi,kinywa","kofia","v","4","html-keyboard-response","950","v","kofia","true","",""
"2395.3000000715256","","","","","4","html-slider-response","951","","","","3",""
"2006","mirror","rangi,kanding,sulagma,furaha","sulagma","j","4","html-keyboard-response","952","n","furaha","false","",""
"1553.8999999761581","","","","","4","html-slider-response","953","","","","2",""
"3077","flag","ndege,trekta,mkate,kawa","trekta","v","4","html-keyboard-response","954","f","ndege","false","",""
"1655","","","","","4","html-slider-response","955","","","","2",""
"2143","shoulder","mkuu,kelele,ndaniya,guruwe","mkuu","f","4","html-keyboard-response","956","j","ndaniya","false","",""
"1534.7999999523163","","","","","4","html-slider-response","957","","","","2",""
"2635","tissue","ugomvi,lamigas,kisiwa,katika","ugomvi","f","4","html-keyboard-response","958","n","katika","false","",""
"1553.3999999761581","","","","","4","html-slider-response","959","","","","2",""
"2965","notebook","msitu,kemia,kila,mdudu","kemia","v","4","html-keyboard-response","960","n","mdudu","false","",""
"1984","","","","","4","html-slider-response","961","","","","3",""
"3921","snake","jansa,karon,pagtukod,mvringo","pagtukod","j","4","html-keyboard-response","962","j","pagtukod","true","",""
"1779.1999999284744","","","","","4","html-slider-response","963","","","","4",""
"2496","finger","moyo,simu,sufuria,lima","moyo","f","4","html-keyboard-response","964","v","simu","false","",""
"1905.6000000238419","","","","","4","html-slider-response","965","","","","2",""
"1832","basket","kumba,kumbuka,utepe,hasira","kumba","f","4","html-keyboard-response","966","n","hasira","false","",""
"1555.5999999046326","","","","","4","html-slider-response","967","","","","2",""
"2207","curtain","lisud,bulwawan,mchanga,chubani","mchanga","j","4","html-keyboard-response","968","j","mchanga","true","",""
"2226.7999999523163","","","","","4","html-slider-response","969","","","","3",""
"2731","perfume","bino,sungura,katuyoan,ndogo","katuyoan","j","4","html-keyboard-response","970","n","ndogo","false","",""
"2761.899999976158","","","","","4","html-slider-response","971","","","","3",""
"2049","key","chombo,miaka,goma,ahos","chombo","f","4","html-keyboard-response","972","j","goma","false","",""
"2626.600000023842","","","","","4","html-slider-response","973","","","","3",""
"2575","olive","bata,siagi,jiwe,welder","jiwe","j","4","html-keyboard-response","974","j","jiwe","true","",""
"2597.7999999523163","","","","","4","html-slider-response","975","","","","5",""
"2677","rose","singizi,mwanake,paghalad,amani","paghalad","j","4","html-keyboard-response","976","n","amani","false","",""
"1952.6999999284744","","","","","4","html-slider-response","977","","","","4",""
"3217","bridge","daima,sahani,ngono,panya","sahani","v","4","html-keyboard-response","978","f","daima","false","",""
"1900.3999999761581","","","","","4","html-slider-response","979","","","","3",""
"2798","hill","kushoto,kukimba,matumbo,sweta","matumbo","j","4","html-keyboard-response","980","j","matumbo","true","",""
"2277.7999999523163","","","","","4","html-slider-response","981","","","","3",""
"1857","letter","kifua,filimbi,chuma,uhuru","kifua","f","4","html-keyboard-response","982","j","chuma","false","",""
"2068.100000023842","","","","","4","html-slider-response","983","","","","3",""
"1826","sock","ndoora,kimysa,mamba,mtirka","mamba","j","4","html-keyboard-response","984","n","mtirka","false","",""
"1863.5","","","","","4","html-slider-response","985","","","","1",""
"3061","fork","baboy,paghago,gorisi,mgonjwa","mgonjwa","n","4","html-keyboard-response","986","v","paghago","false","",""
"2620.5","","","","","4","html-slider-response","987","","","","3",""
"3317","box","kuacha,rafiki,adui,kitande","adui","j","4","html-keyboard-response","988","j","adui","true","",""
"2127.9000000953674","","","","","4","html-slider-response","989","","","","2",""
"2425","gift","pagtawag,baba,nyange,baso","pagtawag","f","4","html-keyboard-response","990","n","baso","false","",""
"2642.2000000476837","","","","","4","html-slider-response","991","","","","3",""
"1535","bucket","baga,ijayo,kiatu,init","kiatu","j","4","html-keyboard-response","992","n","init","false","",""
"2491.1999999284744","","","","","4","html-slider-response","993","","","","2",""
"2141","shop","nopya,kerida,ndezu,samaki","samaki","n","4","html-keyboard-response","994","j","ndezu","false","",""
"1975.6000000238419","","","","","4","html-slider-response","995","","","","2",""
"2024","puppet","napulo,mazishi,lamok,godoro","mazishi","v","4","html-keyboard-response","996","v","mazishi","true","",""
"1590.2999999523163","","","","","4","html-slider-response","997","","","","2",""
"1735","nose","gubat,kopa,sehemu,kidole","sehemu","j","4","html-keyboard-response","998","n","kidole","false","",""
"1645.1000000238419","","","","","4","html-slider-response","999","","","","2",""
"2579","music","mraba,mageho,tumbo,baiski","baiski","n","4","html-keyboard-response","1000","v","mageho","false","",""
"1432.6999999284744","","","","","4","html-slider-response","1001","","","","2",""
"3491","dog","lubi,washia,bahari,kalamu","bahari","j","4","html-keyboard-response","1002","f","lubi","false","",""
"1872.0999999046326","","","","","4","html-slider-response","1003","","","","4",""
"3993","eel","ishara,kunywa,msumari,kabuang","msumari","j","4","html-keyboard-response","1004","j","msumari","true","",""
"2395.399999976158","","","","","4","html-slider-response","1005","","","","4",""
"2204","number","shule,kengele,choori,mundamo","mundamo","n","4","html-keyboard-response","1006","n","mundamo","true","",""
"2440.399999976158","","","","","4","html-slider-response","1007","","","","2",""
"2499","tomato","chupi,mvua,chupa,takatak","mvua","v","4","html-keyboard-response","1008","v","mvua","true","",""
"2426.399999976158","","","","","4","html-slider-response","1009","","","","2",""
"3052","coffin","barua,tubag,kioo,hulma","kioo","j","4","html-keyboard-response","1010","j","kioo","true","",""
"1609.3999999761581","","","","","4","html-slider-response","1011","","","","4",""
"1949","knee","mvuke,duka,kubale,bili","duka","v","4","html-keyboard-response","1012","n","bili","false","",""
"2119.2999999523163","","","","","4","html-slider-response","1013","","","","2",""
"5740","woman","bandari,pagtabon,bituin,kovuli","pagtabon","v","4","html-keyboard-response","1014","v","pagtabon","true","",""
"2336.5999999046326","","","","","4","html-slider-response","1015","","","","3",""
"1847","stone","ulimwengu,wingi,mkasi,asili","wingi","v","4","html-keyboard-response","1016","j","mkasi","false","",""
"1642.7999999523163","","","","","4","html-slider-response","1017","","","","2",""
"1699","bread","kaili,dizeli,dari,bugas","dari","j","4","html-keyboard-response","1018","j","dari","true","",""
"1788.3999999761581","","","","","4","html-slider-response","1019","","","","5",""
"2128","triangle","kihozi,kasadpan,bentaha,liog","kasadpan","v","4","html-keyboard-response","1020","v","kasadpan","true","",""
"1499","","","","","4","html-slider-response","1021","","","","4",""
"3150","scissors","tanuri,duga,mtawa,suga","tanuri","f","4","html-keyboard-response","1022","f","tanuri","true","",""
"2728.600000023842","","","","","4","html-slider-response","1023","","","","3",""
"2658","giraffe","daraja,jumatu,hangyo,mahitabo","mahitabo","n","4","html-keyboard-response","1024","n","mahitabo","true","",""
"2537","","","","","4","html-slider-response","1025","","","","2",""
"2221","flower","tamasha,bega,lobo,usiku","bega","v","4","html-keyboard-response","1026","n","usiku","false","",""
"1848.9000000953674","","","","","4","html-slider-response","1027","","","","2",""
"2559","candle","gabi,geza,farasi,kupanda","geza","v","4","html-keyboard-response","1028","v","geza","true","",""
"2046.8999999761581","","","","","4","html-slider-response","1029","","","","2",""
"3330","mother","babaye,kahawa,mbuzi,jokofu","babaye","f","4","html-keyboard-response","1030","f","babaye","true","",""
"1660.7000000476837","","","","","4","html-slider-response","1031","","","","5",""
"11866","towel","tembo,funzi,pagpalit,pito","pagpalit","j","4","html-keyboard-response","1032","n","pito","false","",""
"1900","","","","","4","html-slider-response","1033","","","","2",""
"2339","elephant","petye,pagduol,suka,kito","kito","n","4","html-keyboard-response","1034","v","pagduol","false","",""
"2618.7999999523163","","","","","4","html-slider-response","1035","","","","3",""
"3825","shelf","bungtod,kadaot,pamahaw,awit","pamahaw","j","4","html-keyboard-response","1036","n","awit","false","",""
"1877.7000000476837","","","","","4","html-slider-response","1037","","","","2",""
"1656","mosquito","isda,taras,gutom,martilyo","martilyo","n","4","html-keyboard-response","1038","n","martilyo","true","",""
"1905.8999999761581","","","","","4","html-slider-response","1039","","","","4",""
"2182","column","pundok,dila,ufagio,pala","ufagio","j","4","html-keyboard-response","1040","j","ufagio","true","",""
"1469.5","","","","","4","html-slider-response","1041","","","","4",""
"5213","pants","pintal,chuki,haki,hari","haki","j","4","html-keyboard-response","1042","j","haki","true","",""
"2739.600000023842","","","","","4","html-slider-response","1043","","","","5",""
"2868","list","wingu,alizeti,kuzama,kaso","wingu","f","4","html-keyboard-response","1044","f","wingu","true","",""
"2105.6999999284744","","","","","4","html-slider-response","1045","","","","3",""
"1883","bank","kudhibi,tualya,ofisi,silingan","silingan","n","4","html-keyboard-response","1046","v","tualya","false","",""
"1816.1999999284744","","","","","4","html-slider-response","1047","","","","2",""
"2085","clock","kartasi,abang,osha,mbwa","mbwa","n","4","html-keyboard-response","1048","f","kartasi","false","",""
"2703.399999976158","","","","","4","html-slider-response","1049","","","","3",""
"2078","ceiling","kugita,maua,kawaida,rayna","maua","v","4","html-keyboard-response","1050","j","kawaida","false","",""
"4056.2000000476837","","","","","4","html-slider-response","1051","","","","3",""
"2078","train","itik,sayari,dakika,mungu","sayari","v","4","html-keyboard-response","1052","f","itik","false","",""
"2182.7000000476837","","","","","4","html-slider-response","1053","","","","1",""
"2259","magazine","kiti,gundi,mchawi,bahandi","kiti","f","4","html-keyboard-response","1054","j","mchawi","false","",""
"2040.6000000238419","","","","","4","html-slider-response","1055","","","","2",""
"2896","office","leso,hazini,yatima,kuna","leso","f","4","html-keyboard-response","1056","v","hazini","false","",""
"1931.3999999761581","","","","","4","html-slider-response","1057","","","","2",""
"1738","wheel","punda,tawo,baadaye,bafuni","bafuni","n","4","html-keyboard-response","1058","n","bafuni","true","",""
"2151.2000000476837","","","","","4","html-slider-response","1059","","","","2",""
"3225","spoon","pagsulod,betri,nzuri,ngazi","pagsulod","f","4","html-keyboard-response","1060","j","nzuri","false","",""
"2093.5","","","","","4","html-slider-response","1061","","","","3",""
"1682","hammer","mekno,kitovu,layag,napakyas","napakyas","n","4","html-keyboard-response","1062","n","napakyas","true","",""
"1814.7999999523163","","","","","4","html-slider-response","1063","","","","2",""
"2438","cigar","ndugu,kuta,adhabu,mlango","adhabu","j","4","html-keyboard-response","1064","n","mlango","false","",""
"2273.2000000476837","","","","","4","html-slider-response","1065","","","","2",""
"1816","shoe","nyeusi,uyoga,hatua,kama","uyoga","v","4","html-keyboard-response","1066","j","hatua","false","",""
"2431.100000023842","","","","","4","html-slider-response","1067","","","","3",""
"2711","list","wingu,alizeti,kuzama,kaso","wingu","f","5","html-keyboard-response","1069","n","kaso","false","",""
"2820.9000000953674","","","","","5","html-slider-response","1070","","","","2",""
"2300","number","mundamo,shule,kengele,choori","mundamo","f","5","html-keyboard-response","1071","j","kengele","false","",""
"2200.6999999284744","","","","","5","html-slider-response","1072","","","","3",""
"2264","apple","ukame,estante,edad,kisu","kisu","n","5","html-keyboard-response","1073","n","kisu","true","",""
"1688.3999999761581","","","","","5","html-slider-response","1074","","","","4",""
"2422","knee","mvuke,kubale,bili,duka","duka","n","5","html-keyboard-response","1075","v","kubale","false","",""
"2143.5","","","","","5","html-slider-response","1076","","","","3",""
"1862","tooth","kijiko,uadui,kabalaka,pahiyum","kabalaka","j","5","html-keyboard-response","1077","n","pahiyum","false","",""
"1515.1000000238419","","","","","5","html-slider-response","1078","","","","2",""
"2086","berry","kofia,abogado,nogozi,kinywa","kofia","f","5","html-keyboard-response","1079","f","kofia","true","",""
"1962.1000000238419","","","","","5","html-slider-response","1080","","","","4",""
"1919","bridge","daima,sahani,ngono,panya","sahani","v","5","html-keyboard-response","1081","j","ngono","false","",""
"1860.5","","","","","5","html-slider-response","1082","","","","2",""
"3253","perfume","bino,katuyoan,sungura,ndogo","katuyoan","v","5","html-keyboard-response","1083","j","sungura","false","",""
"1665.2000000476837","","","","","5","html-slider-response","1084","","","","2",""
"1784","ladder","mashua,pangalan,mwanga,kamba","pangalan","v","5","html-keyboard-response","1085","n","kamba","false","",""
"1694.5","","","","","5","html-slider-response","1086","","","","2",""
"5114","pants","haki,pintal,chuki,hari","haki","f","5","html-keyboard-response","1087","f","haki","true","",""
"2040.8999999761581","","","","","5","html-slider-response","1088","","","","5",""
"2610","salmon","sensilyo,mzungu,seri,baharia","sensilyo","f","5","html-keyboard-response","1089","f","sensilyo","true","",""
"1847.6999999284744","","","","","5","html-slider-response","1090","","","","4",""
"1839","coffin","barua,tubag,kioo,hulma","kioo","j","5","html-keyboard-response","1091","j","kioo","true","",""
"1917.5","","","","","5","html-slider-response","1092","","","","3",""
"3052","park","tambok,pwani,ihalas,bunifu","bunifu","n","5","html-keyboard-response","1093","v","pwani","false","",""
"1705.3999999761581","","","","","5","html-slider-response","1094","","","","2",""
"2372","giraffe","daraja,jumatu,mahitabo,hangyo","mahitabo","j","5","html-keyboard-response","1095","n","hangyo","false","",""
"1921.2999999523163","","","","","5","html-slider-response","1096","","","","3",""
"2596","mirror","rangi,kanding,sulagma,furaha","sulagma","j","5","html-keyboard-response","1097","j","sulagma","true","",""
"1950.5","","","","","5","html-slider-response","1098","","","","2",""
"1787","ceiling","kugita,kawaida,rayna,maua","maua","n","5","html-keyboard-response","1099","v","kawaida","false","",""
"3398.2999999523163","","","","","5","html-slider-response","1100","","","","3",""
"4560","marker","maji,mapafu,salita,atay","maji","f","5","html-keyboard-response","1101","v","mapafu","false","",""
"2028.2000000476837","","","","","5","html-slider-response","1102","","","","2",""
"2460","sock","ndoora,kimysa,mtirka,mamba","mamba","n","5","html-keyboard-response","1103","j","mtirka","false","",""
"2519.899999976158","","","","","5","html-slider-response","1104","","","","1",""
"1698","cop","bustani,jikoni,mechezo,bakus","mechezo","j","5","html-keyboard-response","1105","j","mechezo","true","",""
"1984.8999999761581","","","","","5","html-slider-response","1106","","","","5",""
"4146","gift","pagtawag,baba,nyange,baso","pagtawag","f","5","html-keyboard-response","1107","n","baso","false","",""
"2211.399999976158","","","","","5","html-slider-response","1108","","","","2",""
"3822","notebook","kemia,msitu,kila,mdudu","kemia","f","5","html-keyboard-response","1109","v","msitu","false","",""
"1487.1000000238419","","","","","5","html-slider-response","1110","","","","2",""
"3143","bank","kudhibi,tualya,silingan,ofisi","silingan","j","5","html-keyboard-response","1111","f","kudhibi","false","",""
"1826.8999999761581","","","","","5","html-slider-response","1112","","","","2",""
"2470","letter","filimbi,kifua,chuma,uhuru","kifua","v","5","html-keyboard-response","1113","v","kifua","true","",""
"1859.2999999523163","","","","","5","html-slider-response","1114","","","","3",""
"3601","candle","geza,gabi,farasi,kupanda","geza","f","5","html-keyboard-response","1115","f","geza","true","",""
"2080.6999999284744","","","","","5","html-slider-response","1116","","","","3",""
"1895","bread","kaili,dizeli,dari,bugas","dari","j","5","html-keyboard-response","1117","j","dari","true","",""
"1803.5","","","","","5","html-slider-response","1118","","","","5",""
"2874","snake","jansa,karon,mvringo,pagtukod","pagtukod","n","5","html-keyboard-response","1119","n","pagtukod","true","",""
"2287.100000023842","","","","","5","html-slider-response","1120","","","","3",""
"2367","rose","singizi,paghalad,mwanake,amani","paghalad","v","5","html-keyboard-response","1121","n","amani","false","",""
"1677.5999999046326","","","","","5","html-slider-response","1122","","","","2",""
"2993","hill","kushoto,kukimba,matumbo,sweta","matumbo","j","5","html-keyboard-response","1123","f","kushoto","false","",""
"1746.2999999523163","","","","","5","html-slider-response","1124","","","","2",""
"2223","train","sayari,itik,dakika,mungu","sayari","f","5","html-keyboard-response","1125","v","itik","false","",""
"1595.8999999761581","","","","","5","html-slider-response","1126","","","","2",""
"2131","shop","samaki,nopya,kerida,ndezu","samaki","f","5","html-keyboard-response","1127","j","kerida","false","",""
"1766.8000000715256","","","","","5","html-slider-response","1128","","","","3",""
"2927","nose","gubat,kopa,sehemu,kidole","sehemu","j","5","html-keyboard-response","1129","n","kidole","false","",""
"1913.7000000476837","","","","","5","html-slider-response","1130","","","","2",""
"2293","boat","agalon,hamsi,pombe,kitanda","agalon","f","5","html-keyboard-response","1131","n","kitanda","false","",""
"3708","","","","","5","html-slider-response","1132","","","","2",""
"2239","body","nyundu,jibini,tindashan,kununa","tindashan","j","5","html-keyboard-response","1133","j","tindashan","true","",""
"1929.6999999284744","","","","","5","html-slider-response","1134","","","","3",""
"2503","bed","kalipay,haraka,mapintas,starehe","mapintas","j","5","html-keyboard-response","1135","f","kalipay","false","",""
"1645.3999999761581","","","","","5","html-slider-response","1136","","","","2",""
"1873","squirrel","mahugaw,hofu,ukweli,kichwa","hofu","v","5","html-keyboard-response","1137","n","kichwa","false","",""
"1702.3999999761581","","","","","5","html-slider-response","1138","","","","4",""
"2123","window","nanga,kujenga,umaga,kweli","kweli","n","5","html-keyboard-response","1139","v","kujenga","false","",""
"1648.6000000238419","","","","","5","html-slider-response","1140","","","","2",""
"4819","bonfire","mwezi,mfuko,goti,kusanya","goti","j","5","html-keyboard-response","1141","v","mfuko","false","",""
"2565.2999999523163","","","","","5","html-slider-response","1142","","","","3",""
"2966","fish","bala,baho,buli,imani","buli","j","5","html-keyboard-response","1143","j","buli","true","",""
"1912.5","","","","","5","html-slider-response","1144","","","","2",""
"4436","cat","paghukom,neyemba,baki,akili","paghukom","f","5","html-keyboard-response","1145","f","paghukom","true","",""
"1620.6999999284744","","","","","5","html-slider-response","1146","","","","4",""
"2944","spider","bunyag,kamwe,mkboa,atop","kamwe","v","5","html-keyboard-response","1147","f","bunyag","false","",""
"1885.5","","","","","5","html-slider-response","1148","","","","3",""
"2973","eel","ishara,kunywa,msumari,kabuang","msumari","j","5","html-keyboard-response","1149","j","msumari","true","",""
"2144.2000000476837","","","","","5","html-slider-response","1150","","","","4",""
"2893","woman","bandari,pagtabon,bituin,kovuli","pagtabon","v","5","html-keyboard-response","1151","v","pagtabon","true","",""
"2632.1999999284744","","","","","5","html-slider-response","1152","","","","3",""
"1919","magazine","kiti,gundi,mchawi,bahandi","kiti","f","5","html-keyboard-response","1153","j","mchawi","false","",""
"2459.100000023842","","","","","5","html-slider-response","1154","","","","3",""
"2985","pudding","abug,aibu,mpishi,iring","aibu","v","5","html-keyboard-response","1155","j","mpishi","false","",""
"2010.2000000476837","","","","","5","html-slider-response","1156","","","","3",""
"2345","lamp","daub,bilaska,afya,mbolea","afya","j","5","html-keyboard-response","1157","j","afya","true","",""
"2306.7000000476837","","","","","5","html-slider-response","1158","","","","3",""
"1777","cave","ganti,kesho,maisha,nyundo","kesho","v","5","html-keyboard-response","1159","v","kesho","true","",""
"2285.2000000476837","","","","","5","html-slider-response","1160","","","","2",""
"3208","shoulder","mkuu,kelele,ndaniya,guruwe","mkuu","f","5","html-keyboard-response","1161","j","ndaniya","false","",""
"1564","","","","","5","html-slider-response","1162","","","","2",""
"2096","stone","ulimwengu,mkasi,asili,wingi","wingi","n","5","html-keyboard-response","1163","n","wingi","true","",""
"1636.8999999761581","","","","","5","html-slider-response","1164","","","","2",""
"1397","column","ufagio,pundok,dila,pala","ufagio","f","5","html-keyboard-response","1165","f","ufagio","true","",""
"3795.100000023842","","","","","5","html-slider-response","1166","","","","5",""
"1897","page","wakala,ishiri,skina,wimbo","wimbo","n","5","html-keyboard-response","1167","j","skina","false","",""
"2109.399999976158","","","","","5","html-slider-response","1168","","","","4",""
"2163","shoe","nyeusi,hatua,kama,uyoga","uyoga","n","5","html-keyboard-response","1169","n","uyoga","true","",""
"2193.399999976158","","","","","5","html-slider-response","1170","","","","3",""
"2190","clock","mbwa,kartasi,abang,osha","mbwa","f","5","html-keyboard-response","1171","v","kartasi","false","",""
"2817.100000023842","","","","","5","html-slider-response","1172","","","","3",""
"2602","towel","pagpalit,tembo,funzi,pito","pagpalit","f","5","html-keyboard-response","1173","v","tembo","false","",""
"1719.8999999761581","","","","","5","html-slider-response","1174","","","","2",""
"2826","tomato","mvua,chupi,chupa,takatak","mvua","f","5","html-keyboard-response","1175","j","chupa","false","",""
"1926.3999999761581","","","","","5","html-slider-response","1176","","","","3",""
"1739","bucket","baga,ijayo,kiatu,init","kiatu","j","5","html-keyboard-response","1177","j","kiatu","true","",""
"2445.2999999523163","","","","","5","html-slider-response","1178","","","","2",""
"3029","finger","simu,sufuria,lima,moyo","moyo","n","5","html-keyboard-response","1179","f","simu","false","",""
"2844.6999999284744","","","","","5","html-slider-response","1180","","","","3",""
"1651","mother","kahawa,mbuzi,babaye,jokofu","babaye","j","5","html-keyboard-response","1181","j","babaye","true","",""
"2136.899999976158","","","","","5","html-slider-response","1182","","","","5",""
"3755","human","bado,tinapay,kikapu,punguza","tinapay","v","5","html-keyboard-response","1183","v","tinapay","true","",""
"2569","","","","","5","html-slider-response","1184","","","","3",""
"2907","sun","bendi,luha,basi,uongo","basi","j","5","html-keyboard-response","1185","j","basi","true","",""
"1494.2000000476837","","","","","5","html-slider-response","1186","","","","2",""
"2675","fork","baboy,paghago,mgonjwa,gorisi","mgonjwa","j","5","html-keyboard-response","1187","n","gorisi","false","",""
"1934.2999999523163","","","","","5","html-slider-response","1188","","","","2",""
"3405","donkey","bloke,elfu,lalake,rombus","elfu","v","5","html-keyboard-response","1189","v","elfu","true","",""
"1774","","","","","5","html-slider-response","1190","","","","5",""
"1718","wolf","kaburi,ndizi,lugha,mchuzi","lugha","j","5","html-keyboard-response","1191","j","lugha","true","",""
"1738.3999999761581","","","","","5","html-slider-response","1192","","","","5",""
"2511","cigar","ndugu,kuta,mlango,adhabu","adhabu","n","5","html-keyboard-response","1193","j","mlango","false","",""
"2127.5","","","","","5","html-slider-response","1194","","","","3",""
"2256","olive","bata,siagi,welder,jiwe","jiwe","n","5","html-keyboard-response","1195","n","jiwe","true","",""
"2615.399999976158","","","","","5","html-slider-response","1196","","","","3",""
"2340","key","chombo,miaka,goma,ahos","chombo","f","5","html-keyboard-response","1197","v","miaka","false","",""
"1587","","","","","5","html-slider-response","1198","","","","2",""
"2366","door","tena,surali,soko,nyota","surali","v","5","html-keyboard-response","1199","n","nyota","false","",""
"2537.399999976158","","","","","5","html-slider-response","1200","","","","3",""
"2403","wheel","bafuni,punda,tawo,baadaye","bafuni","f","5","html-keyboard-response","1201","f","bafuni","true","",""
"1993.8000000715256","","","","","5","html-slider-response","1202","","","","3",""
"2585","basket","kumba,kumbuka,utepe,hasira","kumba","f","5","html-keyboard-response","1203","v","kumbuka","false","",""
"1524.1999999284744","","","","","5","html-slider-response","1204","","","","2",""
"1806","elephant","petye,pagduol,suka,kito","kito","n","5","html-keyboard-response","1205","v","pagduol","false","",""
"2198.5","","","","","5","html-slider-response","1206","","","","3",""
"2568","office","leso,hazini,yatima,kuna","leso","f","5","html-keyboard-response","1207","n","kuna","false","",""
"1371.5","","","","","5","html-slider-response","1208","","","","2",""
"2014","music","mraba,mageho,tumbo,baiski","baiski","n","5","html-keyboard-response","1209","v","mageho","false","",""
"1904.5","","","","","5","html-slider-response","1210","","","","2",""
"3054","tissue","lamigas,kisiwa,ugomvi,katika","ugomvi","j","5","html-keyboard-response","1211","v","kisiwa","false","",""
"1563.3999999761581","","","","","5","html-slider-response","1212","","","","2",""
"2945","curtain","mchanga,lisud,bulwawan,chubani","mchanga","f","5","html-keyboard-response","1213","f","mchanga","true","",""
"3189.8000000715256","","","","","5","html-slider-response","1214","","","","3",""
"2280","flag","ndege,trekta,mkate,kawa","trekta","v","5","html-keyboard-response","1215","n","kawa","false","",""
"1999.2000000476837","","","","","5","html-slider-response","1216","","","","2",""
"3491","dog","lubi,bahari,washia,kalamu","bahari","v","5","html-keyboard-response","1217","f","lubi","false","",""
"1703","","","","","5","html-slider-response","1218","","","","4",""
"1641","cup","matumai,dagat,shimoni,jeraha","matumai","f","5","html-keyboard-response","1219","n","jeraha","false","",""
"2546.3000000715256","","","","","5","html-slider-response","1220","","","","3",""
"2023","sheet","juuya,watu,bililhon,kamantis","bililhon","j","5","html-keyboard-response","1221","n","kamantis","false","",""
"1651.3000000715256","","","","","5","html-slider-response","1222","","","","2",""
"1958","spoon","pagsulod,betri,nzuri,ngazi","pagsulod","f","5","html-keyboard-response","1223","j","nzuri","false","",""
"1916.1000000238419","","","","","5","html-slider-response","1224","","","","2",""
"3923","flower","tamasha,bega,lobo,usiku","bega","v","5","html-keyboard-response","1225","n","usiku","false","",""
"1904.7000000476837","","","","","5","html-slider-response","1226","","","","2",""
"1908","picture","silya,kubwa,chaki,asin","kubwa","v","5","html-keyboard-response","1227","n","asin","false","",""
"1809.6000000238419","","","","","5","html-slider-response","1228","","","","2",""
"2102","puppet","napulo,mazishi,lamok,godoro","mazishi","v","5","html-keyboard-response","1229","v","mazishi","true","",""
"2819.899999976158","","","","","5","html-slider-response","1230","","","","3",""
"3006","banana","kasamok,hagdan,kazi,twai","kazi","j","5","html-keyboard-response","1231","v","hagdan","false","",""
"1988.6000000238419","","","","","5","html-slider-response","1232","","","","3",""
"1642","book","kuhesa,picha,mali,mara","mali","j","5","html-keyboard-response","1233","v","picha","false","",""
"2102.5","","","","","5","html-slider-response","1234","","","","3",""
"1658","triangle","kihozi,bentaha,liog,kasadpan","kasadpan","n","5","html-keyboard-response","1235","n","kasadpan","true","",""
"1666.3000000715256","","","","","5","html-slider-response","1236","","","","4",""
"1618","poster","madungog,nchi,fedha,kasuko","madungog","f","5","html-keyboard-response","1237","n","kasuko","false","",""
"2150.2999999523163","","","","","5","html-slider-response","1238","","","","3",""
"2451","box","kuacha,rafiki,kitande,adui","adui","n","5","html-keyboard-response","1239","n","adui","true","",""
"2573.100000023842","","","","","5","html-slider-response","1240","","","","2",""
"2132","mosquito","isda,taras,martilyo,gutom","martilyo","j","5","html-keyboard-response","1241","j","martilyo","true","",""
"1965","","","","","5","html-slider-response","1242","","","","5",""
"1769","shelf","bungtod,pamahaw,kadaot,awit","pamahaw","v","5","html-keyboard-response","1243","v","pamahaw","true","",""
"2158.2000000476837","","","","","5","html-slider-response","1244","","","","2",""
"3018","scissors","duga,mtawa,suga,tanuri","tanuri","n","5","html-keyboard-response","1245","v","mtawa","false","",""
"1872.5","","","","","5","html-slider-response","1246","","","","2",""
"2324","hammer","mekno,kitovu,napakyas,layag","napakyas","j","5","html-keyboard-response","1247","j","napakyas","true","",""
"1527","","","","","5","html-slider-response","1248","","","","2",""
