"rt","en_word","options","swa_word","correct_answer","phase","trial_type","trial_index","input_answer","input_word","accuracy","certainty","amt_choices"
"38473","bonfire","mwezi,mfuko,goti,kusanya","goti","j","2","html-keyboard-response","106","v","mfuko","false","",""
"3314","","","","","2","html-slider-response","107","","","","2",""
"46478","flower","tamasha,lobo,bega,usiku","bega","j","2","html-keyboard-response","108","v","lobo","false","",""
"6074","","","","","2","html-slider-response","109","","","","2",""
"88446","column","ufagio,pundok,dila,pala","ufagio","f","2","html-keyboard-response","110","f","ufagio","true","",""
"3500","","","","","2","html-slider-response","111","","","","2",""
"22661","music","mraba,mageho,tumbo,baiski","baiski","n","2","html-keyboard-response","112","f","mraba","false","",""
"4181","","","","","2","html-slider-response","113","","","","2",""
"74683","spider","bunyag,mkboa,atop,kamwe","kamwe","n","2","html-keyboard-response","114","j","atop","false","",""
"3938","","","","","2","html-slider-response","115","","","","2",""
"4031","fork","mgonjwa,baboy,paghago,gorisi","mgonjwa","f","2","html-keyboard-response","116","v","baboy","false","",""
"3187","","","","","2","html-slider-response","117","","","","2",""
"38838","mosquito","martilyo,isda,taras,gutom","martilyo","f","2","html-keyboard-response","118","f","martilyo","true","",""
"4164","","","","","2","html-slider-response","119","","","","2",""
"6990","banana","kasamok,hagdan,kazi,twai","kazi","j","2","html-keyboard-response","120","n","twai","false","",""
"6893","","","","","2","html-slider-response","121","","","","2",""
"3677","cup","dagat,matumai,shimoni,jeraha","matumai","v","2","html-keyboard-response","122","v","matumai","true","",""
"3403","","","","","2","html-slider-response","123","","","","2",""
"17302","shop","nopya,kerida,samaki,ndezu","samaki","j","2","html-keyboard-response","124","j","samaki","true","",""
"4172","","","","","2","html-slider-response","125","","","","2",""
"21502","elephant","kito,petye,pagduol,suka","kito","f","2","html-keyboard-response","126","f","kito","true","",""
"4246","","","","","2","html-slider-response","127","","","","2",""
"7339","bucket","baga,ijayo,init,kiatu","kiatu","n","2","html-keyboard-response","128","v","ijayo","false","",""
"13228","","","","","2","html-slider-response","129","","","","2",""
"329511","book","kuhesa,picha,mali,mara","mali","j","2","html-keyboard-response","130","n","mara","false","",""
"7092","","","","","2","html-slider-response","131","","","","4",""
"6277","mirror","rangi,kanding,sulagma,furaha","sulagma","j","2","html-keyboard-response","132","j","sulagma","true","",""
"3340","","","","","2","html-slider-response","133","","","","4",""
"6021","office","hazini,yatima,kuna,leso","leso","n","2","html-keyboard-response","134","n","leso","true","",""
"4174","","","","","2","html-slider-response","135","","","","4",""
"7443","body","nyundu,jibini,tindashan,kununa","tindashan","j","2","html-keyboard-response","136","j","tindashan","true","",""
"3368","","","","","2","html-slider-response","137","","","","4",""
"7002","perfume","katuyoan,bino,sungura,ndogo","katuyoan","f","2","html-keyboard-response","138","f","katuyoan","true","",""
"5630","","","","","2","html-slider-response","139","","","","4",""
"5282","olive","bata,siagi,welder,jiwe","jiwe","n","2","html-keyboard-response","140","n","jiwe","true","",""
"3862","","","","","2","html-slider-response","141","","","","4",""
"22874","magazine","gundi,mchawi,kiti,bahandi","kiti","j","2","html-keyboard-response","142","v","mchawi","false","",""
"5678","","","","","2","html-slider-response","143","","","","4",""
"6690","bread","dari,kaili,dizeli,bugas","dari","f","2","html-keyboard-response","144","v","kaili","false","",""
"2937","","","","","2","html-slider-response","145","","","","2",""
"4824","cave","kesho,ganti,maisha,nyundo","kesho","f","2","html-keyboard-response","146","f","kesho","true","",""
"4212","","","","","2","html-slider-response","147","","","","2",""
"4811","ladder","mashua,mwanga,kamba,pangalan","pangalan","n","2","html-keyboard-response","148","n","pangalan","true","",""
"9188","","","","","2","html-slider-response","149","","","","2",""
"4460","human","bado,kikapu,punguza,tinapay","tinapay","n","2","html-keyboard-response","150","j","punguza","false","",""
"3192","","","","","2","html-slider-response","151","","","","2",""
"8370","clock","kartasi,abang,mbwa,osha","mbwa","j","2","html-keyboard-response","152","j","mbwa","true","",""
"2769","","","","","2","html-slider-response","153","","","","2",""
"3304","shelf","bungtod,kadaot,pamahaw,awit","pamahaw","j","2","html-keyboard-response","154","j","pamahaw","true","",""
"5444","","","","","2","html-slider-response","155","","","","2",""
"31741","salmon","sensilyo,mzungu,seri,baharia","sensilyo","f","2","html-keyboard-response","156","f","sensilyo","true","",""
"4988","","","","","2","html-slider-response","157","","","","2",""
"6316","coffin","barua,tubag,hulma,kioo","kioo","n","2","html-keyboard-response","158","n","kioo","true","",""
"4438","","","","","2","html-slider-response","159","","","","4",""
"461986","notebook","kemia,msitu,kila,mdudu","kemia","f","2","html-keyboard-response","160","f","kemia","true","",""
"3373","","","","","2","html-slider-response","161","","","","2",""
"6134","shoulder","mkuu,kelele,ndaniya,guruwe","mkuu","f","2","html-keyboard-response","162","f","mkuu","true","",""
"3376","","","","","2","html-slider-response","163","","","","2",""
"6890","park","tambok,pwani,bunifu,ihalas","bunifu","j","2","html-keyboard-response","164","v","pwani","false","",""
"4025","","","","","2","html-slider-response","165","","","","2",""
"28376","number","mundamo,shule,kengele,choori","mundamo","f","2","html-keyboard-response","166","f","mundamo","true","",""
"3248","","","","","2","html-slider-response","167","","","","2",""
"4977","apple","ukame,estante,kisu,edad","kisu","j","2","html-keyboard-response","168","v","estante","false","",""
"7243","","","","","2","html-slider-response","169","","","","2",""
"6188","letter","filimbi,chuma,uhuru,kifua","kifua","n","2","html-keyboard-response","170","n","kifua","true","",""
"3268","","","","","2","html-slider-response","171","","","","2",""
"8508","eel","msumari,ishara,kunywa,kabuang","msumari","f","2","html-keyboard-response","172","n","kabuang","false","",""
"3623","","","","","2","html-slider-response","173","","","","2",""
"11537","cop","bustani,jikoni,mechezo,bakus","mechezo","j","2","html-keyboard-response","174","j","mechezo","true","",""
"6805","","","","","2","html-slider-response","175","","","","2",""
"4299","wolf","kaburi,ndizi,lugha,mchuzi","lugha","j","2","html-keyboard-response","176","v","ndizi","false","",""
"3202","","","","","2","html-slider-response","177","","","","2",""
"8974","squirrel","mahugaw,ukweli,hofu,kichwa","hofu","j","2","html-keyboard-response","178","f","mahugaw","false","",""
"25941","","","","","2","html-slider-response","179","","","","2",""
"35243","nose","gubat,sehemu,kopa,kidole","sehemu","v","2","html-keyboard-response","180","v","sehemu","true","",""
"9854","","","","","2","html-slider-response","181","","","","2",""
"23858","sock","mamba,ndoora,kimysa,mtirka","mamba","f","2","html-keyboard-response","182","n","mtirka","false","",""
"16808","","","","","2","html-slider-response","183","","","","2",""
"14408","bank","kudhibi,tualya,ofisi,silingan","silingan","n","2","html-keyboard-response","184","n","silingan","true","",""
"17397","","","","","2","html-slider-response","185","","","","3",""
"8251","donkey","elfu,bloke,lalake,rombus","elfu","f","2","html-keyboard-response","186","j","lalake","false","",""
"6141","","","","","2","html-slider-response","187","","","","2",""
"12716","poster","nchi,fedha,madungog,kasuko","madungog","j","2","html-keyboard-response","188","n","kasuko","false","",""
"4682","","","","","2","html-slider-response","189","","","","2",""
"24541","puppet","napulo,lamok,mazishi,godoro","mazishi","j","2","html-keyboard-response","190","f","napulo","false","",""
"5499","","","","","2","html-slider-response","191","","","","2",""
"6972","hill","kushoto,matumbo,kukimba,sweta","matumbo","v","2","html-keyboard-response","192","v","matumbo","true","",""
"15862","","","","","2","html-slider-response","193","","","","2",""
"13152","tooth","kijiko,kabalaka,uadui,pahiyum","kabalaka","v","2","html-keyboard-response","194","v","kabalaka","true","",""
"9835","","","","","2","html-slider-response","195","","","","4",""
"22731","woman","pagtabon,bandari,bituin,kovuli","pagtabon","f","2","html-keyboard-response","196","n","kovuli","false","",""
"6705","","","","","2","html-slider-response","197","","","","2",""
"15652","wheel","punda,tawo,bafuni,baadaye","bafuni","j","2","html-keyboard-response","198","n","baadaye","false","",""
"4434","","","","","2","html-slider-response","199","","","","2",""
"6614","mother","kahawa,babaye,mbuzi,jokofu","babaye","v","2","html-keyboard-response","200","v","babaye","true","",""
"4429","","","","","2","html-slider-response","201","","","","2",""
"7041","bed","kalipay,mapintas,haraka,starehe","mapintas","v","2","html-keyboard-response","202","v","mapintas","true","",""
"4882","","","","","2","html-slider-response","203","","","","2",""
"8903","key","miaka,goma,ahos,chombo","chombo","n","2","html-keyboard-response","204","j","ahos","false","",""
"6392","","","","","2","html-slider-response","205","","","","2",""
"25003","page","wakala,ishiri,skina,wimbo","wimbo","n","2","html-keyboard-response","206","v","ishiri","false","",""
"4376","","","","","2","html-slider-response","207","","","","2",""
"14833","pants","pintal,haki,chuki,hari","haki","v","2","html-keyboard-response","208","f","pintal","false","",""
"6029","","","","","2","html-slider-response","209","","","","2",""
"5380","sun","bendi,basi,luha,uongo","basi","v","2","html-keyboard-response","210","v","basi","true","",""
"5208","","","","","2","html-slider-response","211","","","","2",""
"7786","finger","simu,sufuria,lima,moyo","moyo","n","2","html-keyboard-response","212","n","moyo","true","",""
"5001","","","","","2","html-slider-response","213","","","","2",""
"7113","shoe","uyoga,nyeusi,hatua,kama","uyoga","f","2","html-keyboard-response","214","j","hatua","false","",""
"4343","","","","","2","html-slider-response","215","","","","2",""
"7218","giraffe","daraja,jumatu,hangyo,mahitabo","mahitabo","n","2","html-keyboard-response","216","v","jumatu","false","",""
"5289","","","","","2","html-slider-response","217","","","","2",""
"11599","dog","lubi,washia,bahari,kalamu","bahari","j","2","html-keyboard-response","218","j","bahari","true","",""
"5571","","","","","2","html-slider-response","219","","","","2",""
"6621","box","kuacha,rafiki,kitande,adui","adui","n","2","html-keyboard-response","220","n","adui","true","",""
"4976","","","","","2","html-slider-response","221","","","","2",""
"8359","scissors","duga,tanuri,mtawa,suga","tanuri","v","2","html-keyboard-response","222","n","suga","false","",""
"5757","","","","","2","html-slider-response","223","","","","2",""
"7267","cat","neyemba,paghukom,baki,akili","paghukom","v","2","html-keyboard-response","224","v","paghukom","true","",""
"5567","","","","","2","html-slider-response","225","","","","2",""
"24666","basket","kumba,kumbuka,utepe,hasira","kumba","f","2","html-keyboard-response","226","v","kumbuka","false","",""
"3186","","","","","2","html-slider-response","227","","","","2",""
"8271","snake","jansa,karon,mvringo,pagtukod","pagtukod","n","2","html-keyboard-response","228","n","pagtukod","true","",""
"184262","","","","","2","html-slider-response","229","","","","2",""
"14674","gift","pagtawag,baba,nyange,baso","pagtawag","f","2","html-keyboard-response","230","n","baso","false","",""
"63364","","","","","2","html-slider-response","231","","","","2",""
"12684","train","itik,sayari,dakika,mungu","sayari","v","2","html-keyboard-response","232","v","sayari","true","",""
"3041","","","","","2","html-slider-response","233","","","","2",""
"5855","pudding","abug,aibu,mpishi,iring","aibu","v","2","html-keyboard-response","234","f","abug","false","",""
"5766","","","","","2","html-slider-response","235","","","","2",""
"12643","tomato","chupi,chupa,takatak,mvua","mvua","n","2","html-keyboard-response","236","n","mvua","true","",""
"3162","","","","","2","html-slider-response","237","","","","2",""
"185104","stone","wingi,ulimwengu,mkasi,asili","wingi","f","2","html-keyboard-response","238","v","ulimwengu","false","",""
"4371","","","","","2","html-slider-response","239","","","","4",""
"5237","hammer","mekno,kitovu,layag,napakyas","napakyas","n","2","html-keyboard-response","240","n","napakyas","true","",""
"4266","","","","","2","html-slider-response","241","","","","5",""
"10590","knee","mvuke,duka,kubale,bili","duka","v","2","html-keyboard-response","242","f","mvuke","false","",""
"4889","","","","","2","html-slider-response","243","","","","2",""
"19152","ceiling","kugita,maua,kawaida,rayna","maua","v","2","html-keyboard-response","244","j","kawaida","false","",""
"4530","","","","","2","html-slider-response","245","","","","2",""
"4013","spoon","betri,nzuri,pagsulod,ngazi","pagsulod","j","2","html-keyboard-response","246","n","ngazi","false","",""
"3849","","","","","2","html-slider-response","247","","","","4",""
"43111","marker","mapafu,salita,atay,maji","maji","n","2","html-keyboard-response","248","v","salita","false","",""
"3390","","","","","2","html-slider-response","249","","","","2",""
"5666","candle","gabi,farasi,kupanda,geza","geza","n","2","html-keyboard-response","250","j","kupanda","false","",""
"2886","","","","","2","html-slider-response","251","","","","2",""
"7449","tissue","lamigas,ugomvi,kisiwa,katika","ugomvi","v","2","html-keyboard-response","252","v","ugomvi","true","",""
"50126","","","","","2","html-slider-response","253","","","","2",""
"5418","bridge","sahani,daima,ngono,panya","sahani","f","2","html-keyboard-response","254","f","sahani","true","",""
"3987","","","","","2","html-slider-response","255","","","","2",""
"9060","berry","abogado,nogozi,kinywa,kofia","kofia","n","2","html-keyboard-response","256","v","nogozi","false","",""
"3074","","","","","2","html-slider-response","257","","","","2",""
"9270","triangle","kihozi,bentaha,liog,kasadpan","kasadpan","n","2","html-keyboard-response","258","n","kasadpan","true","",""
"3745","","","","","2","html-slider-response","259","","","","2",""
"31207","door","tena,surali,soko,nyota","surali","v","2","html-keyboard-response","260","n","nyota","false","",""
"4313","","","","","2","html-slider-response","261","","","","2",""
"7145","fish","bala,baho,buli,imani","buli","j","2","html-keyboard-response","262","n","imani","false","",""
"4525","","","","","2","html-slider-response","263","","","","2",""
"49236","curtain","lisud,mchanga,bulwawan,chubani","mchanga","v","2","html-keyboard-response","264","n","chubani","false","",""
"3548","","","","","2","html-slider-response","265","","","","2",""
"7749","flag","ndege,mkate,trekta,kawa","trekta","j","2","html-keyboard-response","266","j","trekta","true","",""
"3350","","","","","2","html-slider-response","267","","","","2",""
"4317","boat","hamsi,pombe,agalon,kitanda","agalon","j","2","html-keyboard-response","268","v","pombe","false","",""
"3248","","","","","2","html-slider-response","269","","","","2",""
"8817","rose","singizi,paghalad,mwanake,amani","paghalad","v","2","html-keyboard-response","270","n","amani","false","",""
"4700","","","","","2","html-slider-response","271","","","","4",""
"7781","lamp","daub,bilaska,afya,mbolea","afya","j","2","html-keyboard-response","272","j","afya","true","",""
"4276","","","","","2","html-slider-response","273","","","","1",""
"4964","cigar","ndugu,adhabu,kuta,mlango","adhabu","v","2","html-keyboard-response","274","v","adhabu","true","",""
"8413","","","","","2","html-slider-response","275","","","","2",""
"6851","list","alizeti,kuzama,kaso,wingu","wingu","n","2","html-keyboard-response","276","v","kuzama","false","",""
"7388","","","","","2","html-slider-response","277","","","","2",""
"15924","sheet","juuya,bililhon,watu,kamantis","bililhon","v","2","html-keyboard-response","278","n","kamantis","false","",""
"6636","","","","","2","html-slider-response","279","","","","4",""
"2740","picture","silya,chaki,kubwa,asin","kubwa","j","2","html-keyboard-response","280","j","kubwa","true","",""
"4963","","","","","2","html-slider-response","281","","","","5",""
"10893","towel","tembo,pagpalit,funzi,pito","pagpalit","v","2","html-keyboard-response","282","v","pagpalit","true","",""
"5532","","","","","2","html-slider-response","283","","","","2",""
"10427","window","nanga,kujenga,kweli,umaga","kweli","j","2","html-keyboard-response","284","f","nanga","false","",""
"4417","","","","","2","html-slider-response","285","","","","2",""
"8954","box","kuacha,rafiki,adui,kitande","adui","j","3","html-keyboard-response","293","f","kuacha","false","","4"
"3474","","","","","3","html-slider-response","294","","","","2",""
"2841","","","","","3","html-keyboard-response","295","","","","",""
"10950","pants","pintal,chuki,haki,hari","haki","j","3","html-keyboard-response","296","n","hari","false","","4"
"4171","","","","","3","html-slider-response","297","","","","2",""
"3276","","","","","3","html-keyboard-response","298","","","","",""
"7408","cup","dagat,matumai,shimoni,jeraha","matumai","v","3","html-keyboard-response","299","v","matumai","true","","4"
"2742","","","","","3","html-slider-response","300","","","","2",""
"1789","","","","","3","html-keyboard-response","301","","","","",""
"3515","triangle","kihozi,bentaha,kasadpan,liog","kasadpan","j","3","html-keyboard-response","302","j","kasadpan","true","","4"
"3936","","","","","3","html-slider-response","303","","","","2",""
"1071","","","","","3","html-keyboard-response","304","","","","",""
"4602","curtain","mchanga,lisud,bulwawan,chubani","mchanga","f","3","html-keyboard-response","305","j","bulwawan","false","","4"
"3134","","","","","3","html-slider-response","306","","","","4",""
"2068","","","","","3","html-keyboard-response","307","","","","",""
"5207","clock","mbwa,kartasi,abang,osha","mbwa","f","3","html-keyboard-response","308","f","mbwa","true","","4"
"2957","","","","","3","html-slider-response","309","","","","2",""
"1248","","","","","3","html-keyboard-response","310","","","","",""
"7850","mirror","sulagma,rangi,kanding,furaha","sulagma","f","3","html-keyboard-response","311","j","kanding","false","","4"
"4664","","","","","3","html-slider-response","312","","","","2",""
"2144","","","","","3","html-keyboard-response","313","","","","",""
"4692","coffin","barua,tubag,hulma,kioo","kioo","n","3","html-keyboard-response","314","n","kioo","true","","1"
"3318","","","","","3","html-slider-response","315","","","","4",""
"1511","","","","","3","html-keyboard-response","316","","","","",""
"6836","magazine","kiti,gundi,mchawi,bahandi","kiti","f","3","html-keyboard-response","317","n","bahandi","false","","4"
"2926","","","","","3","html-slider-response","318","","","","4",""
"2011","","","","","3","html-keyboard-response","319","","","","",""
"5628","column","ufagio,pundok,dila,pala","ufagio","f","3","html-keyboard-response","320","f","ufagio","true","","1"
"3682","","","","","3","html-slider-response","321","","","","4",""
"1247","","","","","3","html-keyboard-response","322","","","","",""
"6056","number","shule,mundamo,kengele,choori","mundamo","v","3","html-keyboard-response","323","v","mundamo","true","","4"
"3993","","","","","3","html-slider-response","324","","","","4",""
"1200","","","","","3","html-keyboard-response","325","","","","",""
"6142","rose","singizi,mwanake,amani,paghalad","paghalad","n","3","html-keyboard-response","326","n","paghalad","true","","4"
"3612","","","","","3","html-slider-response","327","","","","2",""
"1100","","","","","3","html-keyboard-response","328","","","","",""
"6071","eel","ishara,kunywa,msumari,kabuang","msumari","j","3","html-keyboard-response","329","j","msumari","true","","4"
"4283","","","","","3","html-slider-response","330","","","","4",""
"1357","","","","","3","html-keyboard-response","331","","","","",""
"5477","gift","baba,nyange,baso,pagtawag","pagtawag","n","3","html-keyboard-response","332","n","pagtawag","true","","4"
"4325","","","","","3","html-slider-response","333","","","","2",""
"1311","","","","","3","html-keyboard-response","334","","","","",""
"3614","apple","ukame,estante,edad,kisu","kisu","n","3","html-keyboard-response","335","n","kisu","true","","1"
"3051","","","","","3","html-slider-response","336","","","","4",""
"1640","","","","","3","html-keyboard-response","337","","","","",""
"5191","wheel","punda,bafuni,tawo,baadaye","bafuni","v","3","html-keyboard-response","338","v","bafuni","true","","1"
"3371","","","","","3","html-slider-response","339","","","","4",""
"1582","","","","","3","html-keyboard-response","340","","","","",""
"10427","knee","mvuke,kubale,duka,bili","duka","j","3","html-keyboard-response","341","j","duka","true","","4"
"3488","","","","","3","html-slider-response","342","","","","2",""
"1121","","","","","3","html-keyboard-response","343","","","","",""
"4156","basket","kumba,kumbuka,utepe,hasira","kumba","f","3","html-keyboard-response","344","f","kumba","true","","1"
"2823","","","","","3","html-slider-response","345","","","","4",""
"1232","","","","","3","html-keyboard-response","346","","","","",""
"4630","park","bunifu,tambok,pwani,ihalas","bunifu","f","3","html-keyboard-response","347","v","tambok","false","","4"
"3493","","","","","3","html-slider-response","348","","","","4",""
"2273","","","","","3","html-keyboard-response","349","","","","",""
"6165","finger","moyo,simu,sufuria,lima","moyo","f","3","html-keyboard-response","350","v","simu","false","","4"
"3483","","","","","3","html-slider-response","351","","","","4",""
"2446","","","","","3","html-keyboard-response","352","","","","",""
"7680","boat","agalon,hamsi,pombe,kitanda","agalon","f","3","html-keyboard-response","353","n","kitanda","false","","4"
"2598","","","","","3","html-slider-response","354","","","","4",""
"1575","","","","","3","html-keyboard-response","355","","","","",""
"5406","hill","matumbo,kushoto,kukimba,sweta","matumbo","f","3","html-keyboard-response","356","f","matumbo","true","","4"
"5134","","","","","3","html-slider-response","357","","","","4",""
"1441","","","","","3","html-keyboard-response","358","","","","",""
"40440","train","itik,dakika,sayari,mungu","sayari","j","3","html-keyboard-response","359","j","sayari","true","","4"
"3664","","","","","3","html-slider-response","360","","","","4",""
"2825","","","","","3","html-keyboard-response","361","","","","",""
"6341","wolf","kaburi,ndizi,mchuzi,lugha","lugha","n","3","html-keyboard-response","362","f","kaburi","false","","4"
"2686","","","","","3","html-slider-response","363","","","","4",""
"1522","","","","","3","html-keyboard-response","364","","","","",""
"3270","snake","jansa,karon,mvringo,pagtukod","pagtukod","n","3","html-keyboard-response","365","n","pagtukod","true","","4"
"3259","","","","","3","html-slider-response","366","","","","4",""
"1173","","","","","3","html-keyboard-response","367","","","","",""
"3557","tooth","kijiko,kabalaka,uadui,pahiyum","kabalaka","v","3","html-keyboard-response","368","v","kabalaka","true","","4"
"2597","","","","","3","html-slider-response","369","","","","4",""
"1322","","","","","3","html-keyboard-response","370","","","","",""
"4861","notebook","msitu,kemia,kila,mdudu","kemia","v","3","html-keyboard-response","371","j","kila","false","","4"
"2744","","","","","3","html-slider-response","372","","","","4",""
"1168","","","","","3","html-keyboard-response","373","","","","",""
"8941","flag","trekta,ndege,mkate,kawa","trekta","f","3","html-keyboard-response","374","n","kawa","false","","4"
"3852","","","","","3","html-slider-response","375","","","","4",""
"1683","","","","","3","html-keyboard-response","376","","","","",""
"3333","squirrel","mahugaw,ukweli,hofu,kichwa","hofu","j","3","html-keyboard-response","377","f","mahugaw","false","","4"
"3541","","","","","3","html-slider-response","378","","","","4",""
"1274","","","","","3","html-keyboard-response","379","","","","",""
"3549","door","surali,tena,soko,nyota","surali","f","3","html-keyboard-response","380","n","nyota","false","","4"
"2651","","","","","3","html-slider-response","381","","","","4",""
"1285","","","","","3","html-keyboard-response","382","","","","",""
"4853","salmon","sensilyo,mzungu,seri,baharia","sensilyo","f","3","html-keyboard-response","383","f","sensilyo","true","","4"
"2766","","","","","3","html-slider-response","384","","","","4",""
"1010","","","","","3","html-keyboard-response","385","","","","",""
"5166","shoulder","kelele,ndaniya,guruwe,mkuu","mkuu","n","3","html-keyboard-response","386","j","guruwe","false","","4"
"3281","","","","","3","html-slider-response","387","","","","2",""
"2079","","","","","3","html-keyboard-response","388","","","","",""
"4230","lamp","daub,afya,bilaska,mbolea","afya","v","3","html-keyboard-response","389","v","afya","true","","4"
"5675","","","","","3","html-slider-response","390","","","","4",""
"1046","","","","","3","html-keyboard-response","391","","","","",""
"2782","shelf","pamahaw,bungtod,kadaot,awit","pamahaw","f","3","html-keyboard-response","392","f","pamahaw","true","","1"
"2623","","","","","3","html-slider-response","393","","","","4",""
"1265","","","","","3","html-keyboard-response","394","","","","",""
"5566","human","tinapay,bado,kikapu,punguza","tinapay","f","3","html-keyboard-response","395","f","tinapay","true","","4"
"2371","","","","","3","html-slider-response","396","","","","4",""
"1070","","","","","3","html-keyboard-response","397","","","","",""
"11358","towel","tembo,funzi,pito,pagpalit","pagpalit","n","3","html-keyboard-response","398","n","pagpalit","true","","4"
"2713","","","","","3","html-slider-response","399","","","","4",""
"1097","","","","","3","html-keyboard-response","400","","","","",""
"3421","cat","neyemba,baki,akili,paghukom","paghukom","n","3","html-keyboard-response","401","n","paghukom","true","","4"
"2482","","","","","3","html-slider-response","402","","","","4",""
"864","","","","","3","html-keyboard-response","403","","","","",""
"8046","spider","bunyag,mkboa,atop,kamwe","kamwe","n","3","html-keyboard-response","404","f","bunyag","false","","4"
"4417","","","","","3","html-slider-response","405","","","","4",""
"1560","","","","","3","html-keyboard-response","406","","","","",""
"6167","window","nanga,kujenga,kweli,umaga","kweli","j","3","html-keyboard-response","407","v","kujenga","false","","4"
"2629","","","","","3","html-slider-response","408","","","","4",""
"1267","","","","","3","html-keyboard-response","409","","","","",""
"3198","woman","bandari,bituin,kovuli,pagtabon","pagtabon","n","3","html-keyboard-response","410","n","pagtabon","true","","1"
"3491","","","","","3","html-slider-response","411","","","","4",""
"1325","","","","","3","html-keyboard-response","412","","","","",""
"3622","giraffe","daraja,mahitabo,jumatu,hangyo","mahitabo","v","3","html-keyboard-response","413","v","mahitabo","true","","4"
"2447","","","","","3","html-slider-response","414","","","","4",""
"1153","","","","","3","html-keyboard-response","415","","","","",""
"4325","elephant","petye,pagduol,suka,kito","kito","n","3","html-keyboard-response","416","n","kito","true","","4"
"2859","","","","","3","html-slider-response","417","","","","4",""
"893","","","","","3","html-keyboard-response","418","","","","",""
"158894","cave","ganti,maisha,kesho,nyundo","kesho","j","3","html-keyboard-response","419","j","kesho","true","","4"
"2996","","","","","3","html-slider-response","420","","","","4",""
"955","","","","","3","html-keyboard-response","421","","","","",""
"3382","bread","dari,kaili,dizeli,bugas","dari","f","3","html-keyboard-response","422","v","kaili","false","","4"
"2663","","","","","3","html-slider-response","423","","","","4",""
"1065","","","","","3","html-keyboard-response","424","","","","",""
"5901","stone","ulimwengu,wingi,mkasi,asili","wingi","v","3","html-keyboard-response","425","v","wingi","true","","4"
"2530","","","","","3","html-slider-response","426","","","","4",""
"1158","","","","","3","html-keyboard-response","427","","","","",""
"7429","donkey","bloke,lalake,elfu,rombus","elfu","j","3","html-keyboard-response","428","j","elfu","true","","4"
"3021","","","","","3","html-slider-response","429","","","","4",""
"1131","","","","","3","html-keyboard-response","430","","","","",""
"9613","bridge","sahani,daima,ngono,panya","sahani","f","3","html-keyboard-response","431","f","sahani","true","","4"
"2784","","","","","3","html-slider-response","432","","","","4",""
"1081","","","","","3","html-keyboard-response","433","","","","",""
"7756","bonfire","mwezi,mfuko,goti,kusanya","goti","j","3","html-keyboard-response","434","f","mwezi","false","","4"
"2283","","","","","3","html-slider-response","435","","","","4",""
"1397","","","","","3","html-keyboard-response","436","","","","",""
"4974","book","kuhesa,picha,mali,mara","mali","j","3","html-keyboard-response","437","f","kuhesa","false","","4"
"2544","","","","","3","html-slider-response","438","","","","4",""
"1351","","","","","3","html-keyboard-response","439","","","","",""
"144349","fish","bala,buli,baho,imani","buli","v","3","html-keyboard-response","440","v","buli","true","","4"
"13666","","","","","3","html-slider-response","441","","","","2",""
"8500","","","","","3","html-keyboard-response","442","","","","",""
"43093","spoon","pagsulod,betri,nzuri,ngazi","pagsulod","f","3","html-keyboard-response","443","f","pagsulod","true","","4"
"3916","","","","","3","html-slider-response","444","","","","2",""
"48491","","","","","3","html-keyboard-response","445","","","","",""
"4228","scissors","tanuri,duga,mtawa,suga","tanuri","f","3","html-keyboard-response","446","j","mtawa","false","","4"
"5360","","","","","3","html-slider-response","447","","","","2",""
"1503","","","","","3","html-keyboard-response","448","","","","",""
"4645","page","wakala,ishiri,skina,wimbo","wimbo","n","3","html-keyboard-response","449","f","wakala","false","","4"
"4913","","","","","3","html-slider-response","450","","","","2",""
"1312","","","","","3","html-keyboard-response","451","","","","",""
"2982","nose","gubat,sehemu,kopa,kidole","sehemu","v","3","html-keyboard-response","452","v","sehemu","true","","1"
"5544","","","","","3","html-slider-response","453","","","","4",""
"1209","","","","","3","html-keyboard-response","454","","","","",""
"4382","ceiling","kugita,maua,kawaida,rayna","maua","v","3","html-keyboard-response","455","j","kawaida","false","","4"
"4398","","","","","3","html-slider-response","456","","","","4",""
"1074","","","","","3","html-keyboard-response","457","","","","",""
"4470","bucket","baga,kiatu,ijayo,init","kiatu","v","3","html-keyboard-response","458","v","kiatu","true","","4"
"5513","","","","","3","html-slider-response","459","","","","4",""
"1240","","","","","3","html-keyboard-response","460","","","","",""
"4478","berry","kofia,abogado,nogozi,kinywa","kofia","f","3","html-keyboard-response","461","f","kofia","true","","1"
"4058","","","","","3","html-slider-response","462","","","","4",""
"1200","","","","","3","html-keyboard-response","463","","","","",""
"2637","mother","kahawa,mbuzi,jokofu,babaye","babaye","n","3","html-keyboard-response","464","n","babaye","true","","1"
"6595","","","","","3","html-slider-response","465","","","","5",""
"1398","","","","","3","html-keyboard-response","466","","","","",""
"30773","mosquito","martilyo,isda,taras,gutom","martilyo","f","3","html-keyboard-response","467","f","martilyo","true","","4"
"5962","","","","","3","html-slider-response","468","","","","4",""
"1198","","","","","3","html-keyboard-response","469","","","","",""
"4094","perfume","bino,katuyoan,sungura,ndogo","katuyoan","v","3","html-keyboard-response","470","v","katuyoan","true","","4"
"4524","","","","","3","html-slider-response","471","","","","4",""
"1588","","","","","3","html-keyboard-response","472","","","","",""
"3751","sheet","bililhon,juuya,watu,kamantis","bililhon","f","3","html-keyboard-response","473","f","bililhon","true","","4"
"4805","","","","","3","html-slider-response","474","","","","4",""
"1195","","","","","3","html-keyboard-response","475","","","","",""
"2478","puppet","napulo,lamok,godoro,mazishi","mazishi","n","3","html-keyboard-response","476","n","mazishi","true","","1"
"5549","","","","","3","html-slider-response","477","","","","4",""
"3300","","","","","3","html-keyboard-response","478","","","","",""
"122244","poster","nchi,fedha,madungog,kasuko","madungog","j","3","html-keyboard-response","479","n","kasuko","false","","4"
"4740","","","","","3","html-slider-response","480","","","","4",""
"1412","","","","","3","html-keyboard-response","481","","","","",""
"4958","music","mraba,baiski,mageho,tumbo","baiski","v","3","html-keyboard-response","482","j","mageho","false","","4"
"3709","","","","","3","html-slider-response","483","","","","4",""
"51996","","","","","3","html-keyboard-response","484","","","","",""
"4821","key","miaka,chombo,goma,ahos","chombo","v","3","html-keyboard-response","485","j","goma","false","","4"
"4793","","","","","3","html-slider-response","486","","","","4",""
"1174","","","","","3","html-keyboard-response","487","","","","",""
"4293","sock","ndoora,kimysa,mamba,mtirka","mamba","j","3","html-keyboard-response","488","j","mamba","true","","4"
"2580","","","","","3","html-slider-response","489","","","","4",""
"1204","","","","","3","html-keyboard-response","490","","","","",""
"4909","marker","mapafu,maji,salita,atay","maji","v","3","html-keyboard-response","491","f","mapafu","false","","4"
"2889","","","","","3","html-slider-response","492","","","","4",""
"1334","","","","","3","html-keyboard-response","493","","","","",""
"2436","office","hazini,leso,yatima,kuna","leso","v","3","html-keyboard-response","494","v","leso","true","","4"
"2643","","","","","3","html-slider-response","495","","","","4",""
"871","","","","","3","html-keyboard-response","496","","","","",""
"3460","shoe","nyeusi,uyoga,hatua,kama","uyoga","v","3","html-keyboard-response","497","v","uyoga","true","","4"
"2663","","","","","3","html-slider-response","498","","","","4",""
"1111","","","","","3","html-keyboard-response","499","","","","",""
"3157","cop","mechezo,bustani,jikoni,bakus","mechezo","f","3","html-keyboard-response","500","f","mechezo","true","","4"
"2968","","","","","3","html-slider-response","501","","","","4",""
"839","","","","","3","html-keyboard-response","502","","","","",""
"5117","bank","silingan,kudhibi,tualya,ofisi","silingan","f","3","html-keyboard-response","503","v","kudhibi","false","","4"
"2420","","","","","3","html-slider-response","504","","","","4",""
"1004","","","","","3","html-keyboard-response","505","","","","",""
"2445","letter","filimbi,chuma,kifua,uhuru","kifua","j","3","html-keyboard-response","506","j","kifua","true","","1"
"4079","","","","","3","html-slider-response","507","","","","4",""
"1047","","","","","3","html-keyboard-response","508","","","","",""
"1806","dog","lubi,washia,kalamu,bahari","bahari","n","3","html-keyboard-response","509","n","bahari","true","","1"
"3912","","","","","3","html-slider-response","510","","","","4",""
"995","","","","","3","html-keyboard-response","511","","","","",""
"3995","shop","samaki,nopya,kerida,ndezu","samaki","f","3","html-keyboard-response","512","f","samaki","true","","4"
"3234","","","","","3","html-slider-response","513","","","","4",""
"1196","","","","","3","html-keyboard-response","514","","","","",""
"3774","flower","bega,tamasha,lobo,usiku","bega","f","3","html-keyboard-response","515","v","tamasha","false","","4"
"2444","","","","","3","html-slider-response","516","","","","4",""
"875","","","","","3","html-keyboard-response","517","","","","",""
"1606","cigar","ndugu,adhabu,kuta,mlango","adhabu","v","3","html-keyboard-response","518","v","adhabu","true","","1"
"3421","","","","","3","html-slider-response","519","","","","4",""
"985","","","","","3","html-keyboard-response","520","","","","",""
"1924","hammer","mekno,napakyas,kitovu,layag","napakyas","v","3","html-keyboard-response","521","v","napakyas","true","","4"
"2702","","","","","3","html-slider-response","522","","","","4",""
"946","","","","","3","html-keyboard-response","523","","","","",""
"4424","fork","mgonjwa,baboy,paghago,gorisi","mgonjwa","f","3","html-keyboard-response","524","f","mgonjwa","true","","4"
"3812","","","","","3","html-slider-response","525","","","","4",""
"892","","","","","3","html-keyboard-response","526","","","","",""
"1830","sun","bendi,basi,luha,uongo","basi","v","3","html-keyboard-response","527","v","basi","true","","1"
"3166","","","","","3","html-slider-response","528","","","","4",""
"694","","","","","3","html-keyboard-response","529","","","","",""
"5061","ladder","mashua,mwanga,pangalan,kamba","pangalan","j","3","html-keyboard-response","530","j","pangalan","true","","4"
"2794","","","","","3","html-slider-response","531","","","","4",""
"760","","","","","3","html-keyboard-response","532","","","","",""
"1685","banana","kasamok,hagdan,kazi,twai","kazi","j","3","html-keyboard-response","533","j","kazi","true","","1"
"2822","","","","","3","html-slider-response","534","","","","4",""
"788","","","","","3","html-keyboard-response","535","","","","",""
"4813","pudding","abug,mpishi,iring,aibu","aibu","n","3","html-keyboard-response","536","n","aibu","true","","4"
"2568","","","","","3","html-slider-response","537","","","","4",""
"794","","","","","3","html-keyboard-response","538","","","","",""
"4797","body","nyundu,jibini,kununa,tindashan","tindashan","n","3","html-keyboard-response","539","n","tindashan","true","","4"
"2346","","","","","3","html-slider-response","540","","","","4",""
"519","","","","","3","html-keyboard-response","541","","","","",""
"3389","bed","kalipay,haraka,starehe,mapintas","mapintas","n","3","html-keyboard-response","542","n","mapintas","true","","4"
"3382","","","","","3","html-slider-response","543","","","","4",""
"787","","","","","3","html-keyboard-response","544","","","","",""
"3654","tissue","lamigas,kisiwa,katika,ugomvi","ugomvi","n","3","html-keyboard-response","545","n","ugomvi","true","","4"
"2239","","","","","3","html-slider-response","546","","","","4",""
"787","","","","","3","html-keyboard-response","547","","","","",""
"2429","candle","gabi,farasi,geza,kupanda","geza","j","3","html-keyboard-response","548","n","kupanda","false","","4"
"2506","","","","","3","html-slider-response","549","","","","4",""
"967","","","","","3","html-keyboard-response","550","","","","",""
"2774","tomato","mvua,chupi,chupa,takatak","mvua","f","3","html-keyboard-response","551","f","mvua","true","","1"
"2604","","","","","3","html-slider-response","552","","","","4",""
"1109","","","","","3","html-keyboard-response","553","","","","",""
"3405","list","alizeti,wingu,kuzama,kaso","wingu","v","3","html-keyboard-response","554","v","wingu","true","","4"
"4471","","","","","3","html-slider-response","555","","","","4",""
"778","","","","","3","html-keyboard-response","556","","","","",""
"3294","olive","bata,siagi,welder,jiwe","jiwe","n","3","html-keyboard-response","557","n","jiwe","true","","4"
"2726","","","","","3","html-slider-response","558","","","","4",""
"692","","","","","3","html-keyboard-response","559","","","","",""
"1797","picture","kubwa,silya,chaki,asin","kubwa","f","3","html-keyboard-response","560","f","kubwa","true","","1"
"3756","","","","","3","html-slider-response","561","","","","4",""
"893","","","","","3","html-keyboard-response","562","","","","",""
"9049","page","wimbo,wakala,ishiri,skina","wimbo","f","4","html-keyboard-response","888","f","wimbo","true","",""
"4955","","","","","4","html-slider-response","889","","","","4",""
"32507","sheet","juuya,watu,bililhon,kamantis","bililhon","j","4","html-keyboard-response","890","j","bililhon","true","",""
"5252","","","","","4","html-slider-response","891","","","","4",""
"3076","ladder","mashua,mwanga,pangalan,kamba","pangalan","j","4","html-keyboard-response","892","j","pangalan","true","",""
"3750","","","","","4","html-slider-response","893","","","","4",""
"3993","door","tena,soko,surali,nyota","surali","j","4","html-keyboard-response","894","f","tena","false","",""
"2985","","","","","4","html-slider-response","895","","","","4",""
"361842","spider","kamwe,bunyag,mkboa,atop","kamwe","f","4","html-keyboard-response","896","v","bunyag","false","",""
"4071","","","","","4","html-slider-response","897","","","","4",""
"2186","picture","silya,kubwa,chaki,asin","kubwa","v","4","html-keyboard-response","898","v","kubwa","true","",""
"2498","","","","","4","html-slider-response","899","","","","4",""
"8210","boat","agalon,hamsi,pombe,kitanda","agalon","f","4","html-keyboard-response","900","f","agalon","true","",""
"3195","","","","","4","html-slider-response","901","","","","4",""
"12750","donkey","bloke,lalake,elfu,rombus","elfu","j","4","html-keyboard-response","902","j","elfu","true","",""
"3094","","","","","4","html-slider-response","903","","","","4",""
"5787","book","mali,kuhesa,picha,mara","mali","f","4","html-keyboard-response","904","f","mali","true","",""
"3030","","","","","4","html-slider-response","905","","","","4",""
"76859","cup","dagat,matumai,shimoni,jeraha","matumai","v","4","html-keyboard-response","906","v","matumai","true","",""
"3032","","","","","4","html-slider-response","907","","","","4",""
"4297","sun","bendi,luha,uongo,basi","basi","n","4","html-keyboard-response","908","v","luha","false","",""
"3186","","","","","4","html-slider-response","909","","","","4",""
"2150","pudding","abug,aibu,mpishi,iring","aibu","v","4","html-keyboard-response","910","v","aibu","true","",""
"3371","","","","","4","html-slider-response","911","","","","5",""
"2678","human","bado,kikapu,tinapay,punguza","tinapay","j","4","html-keyboard-response","912","j","tinapay","true","",""
"3012","","","","","4","html-slider-response","913","","","","4",""
"3934","squirrel","mahugaw,ukweli,hofu,kichwa","hofu","j","4","html-keyboard-response","914","j","hofu","true","",""
"3039","","","","","4","html-slider-response","915","","","","2",""
"3689","park","bunifu,tambok,pwani,ihalas","bunifu","f","4","html-keyboard-response","916","n","ihalas","false","",""
"3005","","","","","4","html-slider-response","917","","","","4",""
"2244","poster","nchi,fedha,kasuko,madungog","madungog","n","4","html-keyboard-response","918","n","madungog","true","",""
"3392","","","","","4","html-slider-response","919","","","","2",""
"2713","wolf","lugha,kaburi,ndizi,mchuzi","lugha","f","4","html-keyboard-response","920","v","kaburi","false","",""
"2926","","","","","4","html-slider-response","921","","","","4",""
"3762","cat","neyemba,baki,akili,paghukom","paghukom","n","4","html-keyboard-response","922","n","paghukom","true","",""
"4144","","","","","4","html-slider-response","923","","","","4",""
"5000","fish","buli,bala,baho,imani","buli","f","4","html-keyboard-response","924","f","buli","true","",""
"2736","","","","","4","html-slider-response","925","","","","2",""
"17304","tooth","kijiko,kabalaka,uadui,pahiyum","kabalaka","v","4","html-keyboard-response","926","v","kabalaka","true","",""
"4057","","","","","4","html-slider-response","927","","","","4",""
"4543","cave","ganti,maisha,kesho,nyundo","kesho","j","4","html-keyboard-response","928","j","kesho","true","",""
"4161","","","","","4","html-slider-response","929","","","","4",""
"4095","lamp","daub,bilaska,mbolea,afya","afya","n","4","html-keyboard-response","930","n","afya","true","",""
"6222","","","","","4","html-slider-response","931","","","","2",""
"12954","banana","kasamok,hagdan,twai,kazi","kazi","n","4","html-keyboard-response","932","n","kazi","true","",""
"3533","","","","","4","html-slider-response","933","","","","4",""
"5059","bonfire","mwezi,mfuko,kusanya,goti","goti","n","4","html-keyboard-response","934","f","mwezi","false","",""
"3177","","","","","4","html-slider-response","935","","","","2",""
"2071","cop","bustani,mechezo,jikoni,bakus","mechezo","v","4","html-keyboard-response","936","v","mechezo","true","",""
"3351","","","","","4","html-slider-response","937","","","","4",""
"5385","marker","mapafu,salita,atay,maji","maji","n","4","html-keyboard-response","938","j","atay","false","",""
"2435","","","","","4","html-slider-response","939","","","","2",""
"3893","window","nanga,kujenga,kweli,umaga","kweli","j","4","html-keyboard-response","940","j","kweli","true","",""
"3392","","","","","4","html-slider-response","941","","","","2",""
"2456","body","nyundu,tindashan,jibini,kununa","tindashan","v","4","html-keyboard-response","942","v","tindashan","true","",""
"2704","","","","","4","html-slider-response","943","","","","5",""
"3479","apple","ukame,estante,edad,kisu","kisu","n","4","html-keyboard-response","944","n","kisu","true","",""
"2583","","","","","4","html-slider-response","945","","","","4",""
"1769","salmon","mzungu,sensilyo,seri,baharia","sensilyo","v","4","html-keyboard-response","946","v","sensilyo","true","",""
"2876","","","","","4","html-slider-response","947","","","","5",""
"6883","bed","kalipay,haraka,starehe,mapintas","mapintas","n","4","html-keyboard-response","948","f","kalipay","false","",""
"2964","","","","","4","html-slider-response","949","","","","2",""
"5315","berry","abogado,nogozi,kofia,kinywa","kofia","j","4","html-keyboard-response","950","n","kinywa","false","",""
"2838","","","","","4","html-slider-response","951","","","","2",""
"7506","mirror","rangi,sulagma,kanding,furaha","sulagma","v","4","html-keyboard-response","952","v","sulagma","true","",""
"6890","","","","","4","html-slider-response","953","","","","2",""
"3140","flag","ndege,mkate,kawa,trekta","trekta","n","4","html-keyboard-response","954","j","kawa","false","",""
"3858","","","","","4","html-slider-response","955","","","","2",""
"4525","shoulder","kelele,ndaniya,guruwe,mkuu","mkuu","n","4","html-keyboard-response","956","j","guruwe","false","",""
"3017","","","","","4","html-slider-response","957","","","","2",""
"4502","tissue","lamigas,ugomvi,kisiwa,katika","ugomvi","v","4","html-keyboard-response","958","v","ugomvi","true","",""
"3316","","","","","4","html-slider-response","959","","","","2",""
"4106","notebook","msitu,kemia,kila,mdudu","kemia","v","4","html-keyboard-response","960","j","kila","false","",""
"2751","","","","","4","html-slider-response","961","","","","2",""
"3800","snake","jansa,pagtukod,karon,mvringo","pagtukod","v","4","html-keyboard-response","962","v","pagtukod","true","",""
"5589","","","","","4","html-slider-response","963","","","","2",""
"3554","finger","simu,sufuria,moyo,lima","moyo","j","4","html-keyboard-response","964","n","lima","false","",""
"2873","","","","","4","html-slider-response","965","","","","2",""
"5346","basket","kumbuka,utepe,hasira,kumba","kumba","n","4","html-keyboard-response","966","f","kumbuka","false","",""
"2943","","","","","4","html-slider-response","967","","","","2",""
"3530","curtain","lisud,mchanga,bulwawan,chubani","mchanga","v","4","html-keyboard-response","968","j","bulwawan","false","",""
"2735","","","","","4","html-slider-response","969","","","","4",""
"4443","perfume","katuyoan,bino,sungura,ndogo","katuyoan","f","4","html-keyboard-response","970","f","katuyoan","true","",""
"3637","","","","","4","html-slider-response","971","","","","2",""
"4733","key","chombo,miaka,goma,ahos","chombo","f","4","html-keyboard-response","972","f","chombo","true","",""
"3376","","","","","4","html-slider-response","973","","","","2",""
"2849","olive","jiwe,bata,siagi,welder","jiwe","f","4","html-keyboard-response","974","f","jiwe","true","",""
"2734","","","","","4","html-slider-response","975","","","","2",""
"5755","rose","paghalad,singizi,mwanake,amani","paghalad","f","4","html-keyboard-response","976","f","paghalad","true","",""
"3160","","","","","4","html-slider-response","977","","","","4",""
"2264","bridge","daima,sahani,ngono,panya","sahani","v","4","html-keyboard-response","978","v","sahani","true","",""
"2861","","","","","4","html-slider-response","979","","","","4",""
"5550","hill","matumbo,kushoto,kukimba,sweta","matumbo","f","4","html-keyboard-response","980","f","matumbo","true","",""
"3018","","","","","4","html-slider-response","981","","","","4",""
"3862","letter","filimbi,chuma,kifua,uhuru","kifua","j","4","html-keyboard-response","982","j","kifua","true","",""
"2621","","","","","4","html-slider-response","983","","","","4",""
"5076","sock","ndoora,kimysa,mamba,mtirka","mamba","j","4","html-keyboard-response","984","v","kimysa","false","",""
"2814","","","","","4","html-slider-response","985","","","","4",""
"5210","fork","mgonjwa,baboy,paghago,gorisi","mgonjwa","f","4","html-keyboard-response","986","j","paghago","false","",""
"2690","","","","","4","html-slider-response","987","","","","2",""
"5606","box","kuacha,rafiki,adui,kitande","adui","j","4","html-keyboard-response","988","j","adui","true","",""
"2949","","","","","4","html-slider-response","989","","","","2",""
"5412","gift","baba,nyange,baso,pagtawag","pagtawag","n","4","html-keyboard-response","990","n","pagtawag","true","",""
"2943","","","","","4","html-slider-response","991","","","","2",""
"5081","bucket","baga,ijayo,kiatu,init","kiatu","j","4","html-keyboard-response","992","j","kiatu","true","",""
"4718","","","","","4","html-slider-response","993","","","","2",""
"6114","shop","nopya,kerida,samaki,ndezu","samaki","j","4","html-keyboard-response","994","v","kerida","false","",""
"3699","","","","","4","html-slider-response","995","","","","2",""
"4741","puppet","napulo,lamok,mazishi,godoro","mazishi","j","4","html-keyboard-response","996","j","mazishi","true","",""
"2832","","","","","4","html-slider-response","997","","","","2",""
"8896","nose","gubat,kopa,sehemu,kidole","sehemu","j","4","html-keyboard-response","998","j","sehemu","true","",""
"3374","","","","","4","html-slider-response","999","","","","2",""
"4170","music","mraba,mageho,baiski,tumbo","baiski","j","4","html-keyboard-response","1000","n","tumbo","false","",""
"3726","","","","","4","html-slider-response","1001","","","","4",""
"2282","dog","lubi,bahari,washia,kalamu","bahari","v","4","html-keyboard-response","1002","v","bahari","true","",""
"3115","","","","","4","html-slider-response","1003","","","","5",""
"4164","eel","msumari,ishara,kunywa,kabuang","msumari","f","4","html-keyboard-response","1004","f","msumari","true","",""
"2844","","","","","4","html-slider-response","1005","","","","4",""
"2452","number","shule,kengele,choori,mundamo","mundamo","n","4","html-keyboard-response","1006","n","mundamo","true","",""
"3591","","","","","4","html-slider-response","1007","","","","4",""
"3521","tomato","chupi,chupa,takatak,mvua","mvua","n","4","html-keyboard-response","1008","n","mvua","true","",""
"3511","","","","","4","html-slider-response","1009","","","","5",""
"1896","coffin","barua,kioo,tubag,hulma","kioo","v","4","html-keyboard-response","1010","v","kioo","true","",""
"3134","","","","","4","html-slider-response","1011","","","","5",""
"4442","knee","mvuke,kubale,bili,duka","duka","n","4","html-keyboard-response","1012","n","duka","true","",""
"2804","","","","","4","html-slider-response","1013","","","","5",""
"6092","woman","bandari,bituin,kovuli,pagtabon","pagtabon","n","4","html-keyboard-response","1014","n","pagtabon","true","",""
"3117","","","","","4","html-slider-response","1015","","","","5",""
"7426","stone","ulimwengu,mkasi,asili,wingi","wingi","n","4","html-keyboard-response","1016","n","wingi","true","",""
"3471","","","","","4","html-slider-response","1017","","","","5",""
"2785","bread","kaili,dizeli,dari,bugas","dari","j","4","html-keyboard-response","1018","f","kaili","false","",""
"3411","","","","","4","html-slider-response","1019","","","","2",""
"129309","triangle","kihozi,bentaha,kasadpan,liog","kasadpan","j","4","html-keyboard-response","1020","v","bentaha","false","",""
"3241","","","","","4","html-slider-response","1021","","","","4",""
"3534","scissors","tanuri,duga,mtawa,suga","tanuri","f","4","html-keyboard-response","1022","v","duga","false","",""
"3490","","","","","4","html-slider-response","1023","","","","4",""
"3533","giraffe","daraja,jumatu,hangyo,mahitabo","mahitabo","n","4","html-keyboard-response","1024","v","jumatu","false","",""
"2747","","","","","4","html-slider-response","1025","","","","2",""
"121501","flower","tamasha,bega,lobo,usiku","bega","v","4","html-keyboard-response","1026","v","bega","true","",""
"5114","","","","","4","html-slider-response","1027","","","","2",""
"2860","candle","gabi,farasi,kupanda,geza","geza","n","4","html-keyboard-response","1028","v","farasi","false","",""
"2941","","","","","4","html-slider-response","1029","","","","4",""
"2356","mother","kahawa,mbuzi,babaye,jokofu","babaye","j","4","html-keyboard-response","1030","j","babaye","true","",""
"3070","","","","","4","html-slider-response","1031","","","","5",""
"2838","towel","tembo,pagpalit,funzi,pito","pagpalit","v","4","html-keyboard-response","1032","n","pito","false","",""
"2869","","","","","4","html-slider-response","1033","","","","4",""
"5054","elephant","kito,petye,pagduol,suka","kito","f","4","html-keyboard-response","1034","f","kito","true","",""
"3001","","","","","4","html-slider-response","1035","","","","4",""
"2695","shelf","bungtod,kadaot,pamahaw,awit","pamahaw","j","4","html-keyboard-response","1036","j","pamahaw","true","",""
"3158","","","","","4","html-slider-response","1037","","","","4",""
"4460","mosquito","isda,martilyo,taras,gutom","martilyo","v","4","html-keyboard-response","1038","v","martilyo","true","",""
"2995","","","","","4","html-slider-response","1039","","","","4",""
"4789","column","pundok,dila,pala,ufagio","ufagio","n","4","html-keyboard-response","1040","j","pala","false","",""
"2885","","","","","4","html-slider-response","1041","","","","4",""
"28676","pants","pintal,chuki,hari,haki","haki","n","4","html-keyboard-response","1042","n","haki","true","",""
"3748","","","","","4","html-slider-response","1043","","","","2",""
"3212","list","alizeti,kuzama,wingu,kaso","wingu","j","4","html-keyboard-response","1044","j","wingu","true","",""
"2594","","","","","4","html-slider-response","1045","","","","5",""
"5960","bank","silingan,kudhibi,tualya,ofisi","silingan","f","4","html-keyboard-response","1046","v","kudhibi","false","",""
"3425","","","","","4","html-slider-response","1047","","","","4",""
"1927","clock","kartasi,mbwa,abang,osha","mbwa","v","4","html-keyboard-response","1048","v","mbwa","true","",""
"3492","","","","","4","html-slider-response","1049","","","","4",""
"2149","ceiling","kugita,kawaida,rayna,maua","maua","n","4","html-keyboard-response","1050","v","kawaida","false","",""
"2603","","","","","4","html-slider-response","1051","","","","4",""
"4557","train","itik,dakika,mungu,sayari","sayari","n","4","html-keyboard-response","1052","v","dakika","false","",""
"3138","","","","","4","html-slider-response","1053","","","","4",""
"3230","magazine","gundi,kiti,mchawi,bahandi","kiti","v","4","html-keyboard-response","1054","v","kiti","true","",""
"3279","","","","","4","html-slider-response","1055","","","","4",""
"1842","office","hazini,yatima,kuna,leso","leso","n","4","html-keyboard-response","1056","n","leso","true","",""
"3131","","","","","4","html-slider-response","1057","","","","5",""
"3213","wheel","punda,tawo,baadaye,bafuni","bafuni","n","4","html-keyboard-response","1058","j","baadaye","false","",""
"3222","","","","","4","html-slider-response","1059","","","","4",""
"6875","spoon","betri,pagsulod,nzuri,ngazi","pagsulod","v","4","html-keyboard-response","1060","v","pagsulod","true","",""
"2705","","","","","4","html-slider-response","1061","","","","4",""
"2511","hammer","mekno,kitovu,napakyas,layag","napakyas","j","4","html-keyboard-response","1062","j","napakyas","true","",""
"3359","","","","","4","html-slider-response","1063","","","","5",""
"2712","cigar","ndugu,kuta,mlango,adhabu","adhabu","n","4","html-keyboard-response","1064","v","kuta","false","",""
"4156","","","","","4","html-slider-response","1065","","","","4",""
"4516","shoe","uyoga,nyeusi,hatua,kama","uyoga","f","4","html-keyboard-response","1066","v","nyeusi","false","",""
"3141","","","","","4","html-slider-response","1067","","","","4",""
"4496","list","alizeti,kuzama,kaso,wingu","wingu","n","5","html-keyboard-response","1069","n","wingu","true","",""
"3547","","","","","5","html-slider-response","1070","","","","4",""
"3195","number","shule,mundamo,kengele,choori","mundamo","v","5","html-keyboard-response","1071","v","mundamo","true","",""
"3139","","","","","5","html-slider-response","1072","","","","4",""
"3915","apple","ukame,estante,kisu,edad","kisu","j","5","html-keyboard-response","1073","j","kisu","true","",""
"2861","","","","","5","html-slider-response","1074","","","","4",""
"2891","knee","mvuke,kubale,bili,duka","duka","n","5","html-keyboard-response","1075","n","duka","true","",""
"3093","","","","","5","html-slider-response","1076","","","","4",""
"3492","tooth","kijiko,kabalaka,uadui,pahiyum","kabalaka","v","5","html-keyboard-response","1077","f","kijiko","false","",""
"3610","","","","","5","html-slider-response","1078","","","","4",""
"5116","berry","abogado,nogozi,kinywa,kofia","kofia","n","5","html-keyboard-response","1079","n","kofia","true","",""
"3765","","","","","5","html-slider-response","1080","","","","4",""
"7618","bridge","daima,ngono,panya,sahani","sahani","n","5","html-keyboard-response","1081","n","sahani","true","",""
"3612","","","","","5","html-slider-response","1082","","","","4",""
"14341","perfume","bino,sungura,katuyoan,ndogo","katuyoan","j","5","html-keyboard-response","1083","j","katuyoan","true","",""
"77345","","","","","5","html-slider-response","1084","","","","4",""
"2992","ladder","mashua,pangalan,mwanga,kamba","pangalan","v","5","html-keyboard-response","1085","v","pangalan","true","",""
"4735","","","","","5","html-slider-response","1086","","","","4",""
"2549","pants","pintal,haki,chuki,hari","haki","v","5","html-keyboard-response","1087","v","haki","true","",""
"2866","","","","","5","html-slider-response","1088","","","","4",""
"6879","salmon","mzungu,sensilyo,seri,baharia","sensilyo","v","5","html-keyboard-response","1089","v","sensilyo","true","",""
"3171","","","","","5","html-slider-response","1090","","","","4",""
"3768","coffin","barua,tubag,kioo,hulma","kioo","j","5","html-keyboard-response","1091","j","kioo","true","",""
"3143","","","","","5","html-slider-response","1092","","","","4",""
"8697","park","tambok,pwani,ihalas,bunifu","bunifu","n","5","html-keyboard-response","1093","v","pwani","false","",""
"3284","","","","","5","html-slider-response","1094","","","","4",""
"3365","giraffe","daraja,jumatu,hangyo,mahitabo","mahitabo","n","5","html-keyboard-response","1095","n","mahitabo","true","",""
"5814","","","","","5","html-slider-response","1096","","","","4",""
"31403","mirror","rangi,sulagma,kanding,furaha","sulagma","v","5","html-keyboard-response","1097","n","furaha","false","",""
"3874","","","","","5","html-slider-response","1098","","","","4",""
"4692","ceiling","maua,kugita,kawaida,rayna","maua","f","5","html-keyboard-response","1099","v","kugita","false","",""
"3242","","","","","5","html-slider-response","1100","","","","4",""
"2768","marker","mapafu,salita,maji,atay","maji","j","5","html-keyboard-response","1101","v","salita","false","",""
"3769","","","","","5","html-slider-response","1102","","","","2",""
"70687","sock","ndoora,kimysa,mamba,mtirka","mamba","j","5","html-keyboard-response","1103","v","kimysa","false","",""
"3157","","","","","5","html-slider-response","1104","","","","2",""
"2421","cop","bustani,jikoni,bakus,mechezo","mechezo","n","5","html-keyboard-response","1105","n","mechezo","true","",""
"3705","","","","","5","html-slider-response","1106","","","","4",""
"2335","gift","baba,nyange,pagtawag,baso","pagtawag","j","5","html-keyboard-response","1107","j","pagtawag","true","",""
"3461","","","","","5","html-slider-response","1108","","","","4",""
"5203","notebook","kemia,msitu,kila,mdudu","kemia","f","5","html-keyboard-response","1109","j","kila","false","",""
"3403","","","","","5","html-slider-response","1110","","","","2",""
"4118","bank","kudhibi,tualya,silingan,ofisi","silingan","j","5","html-keyboard-response","1111","v","tualya","false","",""
"3379","","","","","5","html-slider-response","1112","","","","2",""
"5309","letter","filimbi,kifua,chuma,uhuru","kifua","v","5","html-keyboard-response","1113","v","kifua","true","",""
"4516","","","","","5","html-slider-response","1114","","","","4",""
"4995","candle","geza,gabi,farasi,kupanda","geza","f","5","html-keyboard-response","1115","f","geza","true","",""
"3365","","","","","5","html-slider-response","1116","","","","4",""
"5427","bread","kaili,dari,dizeli,bugas","dari","v","5","html-keyboard-response","1117","v","dari","true","",""
"3388","","","","","5","html-slider-response","1118","","","","2",""
"2540","snake","jansa,pagtukod,karon,mvringo","pagtukod","v","5","html-keyboard-response","1119","v","pagtukod","true","",""
"3348","","","","","5","html-slider-response","1120","","","","2",""
"1724","rose","singizi,paghalad,mwanake,amani","paghalad","v","5","html-keyboard-response","1121","v","paghalad","true","",""
"2666","","","","","5","html-slider-response","1122","","","","4",""
"3463","hill","matumbo,kushoto,kukimba,sweta","matumbo","f","5","html-keyboard-response","1123","f","matumbo","true","",""
"2889","","","","","5","html-slider-response","1124","","","","4",""
"5407","train","itik,dakika,mungu,sayari","sayari","n","5","html-keyboard-response","1125","n","sayari","true","",""
"2787","","","","","5","html-slider-response","1126","","","","4",""
"4636","shop","nopya,samaki,kerida,ndezu","samaki","v","5","html-keyboard-response","1127","f","nopya","false","",""
"2451","","","","","5","html-slider-response","1128","","","","4",""
"10501","nose","gubat,kopa,kidole,sehemu","sehemu","n","5","html-keyboard-response","1129","f","gubat","false","",""
"5020","","","","","5","html-slider-response","1130","","","","2",""
"8096","boat","hamsi,pombe,agalon,kitanda","agalon","j","5","html-keyboard-response","1131","j","agalon","true","",""
"3950","","","","","5","html-slider-response","1132","","","","2",""
"3138","body","tindashan,nyundu,jibini,kununa","tindashan","f","5","html-keyboard-response","1133","f","tindashan","true","",""
"3377","","","","","5","html-slider-response","1134","","","","4",""
"3966","bed","kalipay,haraka,starehe,mapintas","mapintas","n","5","html-keyboard-response","1135","f","kalipay","false","",""
"6453","","","","","5","html-slider-response","1136","","","","2",""
"9634","squirrel","mahugaw,ukweli,kichwa,hofu","hofu","n","5","html-keyboard-response","1137","v","ukweli","false","",""
"3170","","","","","5","html-slider-response","1138","","","","4",""
"4254","window","nanga,kweli,kujenga,umaga","kweli","v","5","html-keyboard-response","1139","v","kweli","true","",""
"3061","","","","","5","html-slider-response","1140","","","","2",""
"3081","bonfire","goti,mwezi,mfuko,kusanya","goti","f","5","html-keyboard-response","1141","v","mwezi","false","",""
"2883","","","","","5","html-slider-response","1142","","","","2",""
"5332","fish","buli,bala,baho,imani","buli","f","5","html-keyboard-response","1143","v","bala","false","",""
"2704","","","","","5","html-slider-response","1144","","","","2",""
"3863","cat","paghukom,neyemba,baki,akili","paghukom","f","5","html-keyboard-response","1145","f","paghukom","true","",""
"3202","","","","","5","html-slider-response","1146","","","","2",""
"10750","spider","kamwe,bunyag,mkboa,atop","kamwe","f","5","html-keyboard-response","1147","f","kamwe","true","",""
"3241","","","","","5","html-slider-response","1148","","","","2",""
"2998","eel","ishara,kunywa,kabuang,msumari","msumari","n","5","html-keyboard-response","1149","n","msumari","true","",""
"2522","","","","","5","html-slider-response","1150","","","","2",""
"9909","woman","bandari,bituin,pagtabon,kovuli","pagtabon","j","5","html-keyboard-response","1151","j","pagtabon","true","",""
"3385","","","","","5","html-slider-response","1152","","","","4",""
"2839","magazine","gundi,mchawi,bahandi,kiti","kiti","n","5","html-keyboard-response","1153","n","kiti","true","",""
"2861","","","","","5","html-slider-response","1154","","","","4",""
"3398","pudding","abug,mpishi,aibu,iring","aibu","j","5","html-keyboard-response","1155","j","aibu","true","",""
"3246","","","","","5","html-slider-response","1156","","","","4",""
"4635","lamp","daub,bilaska,mbolea,afya","afya","n","5","html-keyboard-response","1157","n","afya","true","",""
"3860","","","","","5","html-slider-response","1158","","","","4",""
"8220","cave","ganti,maisha,nyundo,kesho","kesho","n","5","html-keyboard-response","1159","f","ganti","false","",""
"4465","","","","","5","html-slider-response","1160","","","","4",""
"4568","shoulder","kelele,ndaniya,mkuu,guruwe","mkuu","j","5","html-keyboard-response","1161","n","guruwe","false","",""
"4082","","","","","5","html-slider-response","1162","","","","4",""
"2645","stone","ulimwengu,mkasi,asili,wingi","wingi","n","5","html-keyboard-response","1163","n","wingi","true","",""
"3632","","","","","5","html-slider-response","1164","","","","4",""
"3160","column","ufagio,pundok,dila,pala","ufagio","f","5","html-keyboard-response","1165","v","pundok","false","",""
"3757","","","","","5","html-slider-response","1166","","","","4",""
"3692","page","wakala,ishiri,wimbo,skina","wimbo","j","5","html-keyboard-response","1167","f","wakala","false","",""
"3587","","","","","5","html-slider-response","1168","","","","4",""
"8158","shoe","nyeusi,uyoga,hatua,kama","uyoga","v","5","html-keyboard-response","1169","v","uyoga","true","",""
"3127","","","","","5","html-slider-response","1170","","","","4",""
"2680","clock","kartasi,mbwa,abang,osha","mbwa","v","5","html-keyboard-response","1171","v","mbwa","true","",""
"2860","","","","","5","html-slider-response","1172","","","","4",""
"3300","towel","tembo,pagpalit,funzi,pito","pagpalit","v","5","html-keyboard-response","1173","n","pito","false","",""
"3112","","","","","5","html-slider-response","1174","","","","4",""
"3680","tomato","chupi,mvua,chupa,takatak","mvua","v","5","html-keyboard-response","1175","v","mvua","true","",""
"3204","","","","","5","html-slider-response","1176","","","","4",""
"4996","bucket","baga,ijayo,kiatu,init","kiatu","j","5","html-keyboard-response","1177","j","kiatu","true","",""
"3118","","","","","5","html-slider-response","1178","","","","4",""
"4587","finger","simu,moyo,sufuria,lima","moyo","v","5","html-keyboard-response","1179","f","simu","false","",""
"3113","","","","","5","html-slider-response","1180","","","","4",""
"2112","mother","kahawa,mbuzi,jokofu,babaye","babaye","n","5","html-keyboard-response","1181","n","babaye","true","",""
"3130","","","","","5","html-slider-response","1182","","","","5",""
"2622","human","bado,tinapay,kikapu,punguza","tinapay","v","5","html-keyboard-response","1183","v","tinapay","true","",""
"3055","","","","","5","html-slider-response","1184","","","","4",""
"4066","sun","bendi,luha,basi,uongo","basi","j","5","html-keyboard-response","1185","v","luha","false","",""
"3464","","","","","5","html-slider-response","1186","","","","4",""
"5744","fork","mgonjwa,baboy,paghago,gorisi","mgonjwa","f","5","html-keyboard-response","1187","j","paghago","false","",""
"3693","","","","","5","html-slider-response","1188","","","","4",""
"4387","donkey","bloke,lalake,rombus,elfu","elfu","n","5","html-keyboard-response","1189","n","elfu","true","",""
"4315","","","","","5","html-slider-response","1190","","","","4",""
"3525","wolf","kaburi,ndizi,lugha,mchuzi","lugha","j","5","html-keyboard-response","1191","f","kaburi","false","",""
"2889","","","","","5","html-slider-response","1192","","","","4",""
"4039","cigar","ndugu,kuta,mlango,adhabu","adhabu","n","5","html-keyboard-response","1193","f","ndugu","false","",""
"3041","","","","","5","html-slider-response","1194","","","","4",""
"2214","olive","bata,siagi,jiwe,welder","jiwe","j","5","html-keyboard-response","1195","j","jiwe","true","",""
"3712","","","","","5","html-slider-response","1196","","","","4",""
"6033","key","miaka,chombo,goma,ahos","chombo","v","5","html-keyboard-response","1197","j","goma","false","",""
"2964","","","","","5","html-slider-response","1198","","","","4",""
"5587","door","tena,soko,surali,nyota","surali","j","5","html-keyboard-response","1199","v","soko","false","",""
"3921","","","","","5","html-slider-response","1200","","","","4",""
"4950","wheel","punda,tawo,bafuni,baadaye","bafuni","j","5","html-keyboard-response","1201","n","baadaye","false","",""
"3111","","","","","5","html-slider-response","1202","","","","4",""
"5729","basket","kumbuka,utepe,kumba,hasira","kumba","j","5","html-keyboard-response","1203","j","kumba","true","",""
"3557","","","","","5","html-slider-response","1204","","","","4",""
"2499","elephant","petye,pagduol,kito,suka","kito","j","5","html-keyboard-response","1205","j","kito","true","",""
"3865","","","","","5","html-slider-response","1206","","","","4",""
"2159","office","leso,hazini,yatima,kuna","leso","f","5","html-keyboard-response","1207","f","leso","true","",""
"3063","","","","","5","html-slider-response","1208","","","","4",""
"3506","music","baiski,mraba,mageho,tumbo","baiski","f","5","html-keyboard-response","1209","n","tumbo","false","",""
"5279","","","","","5","html-slider-response","1210","","","","4",""
"4894","tissue","ugomvi,lamigas,kisiwa,katika","ugomvi","f","5","html-keyboard-response","1211","f","ugomvi","true","",""
"5879","","","","","5","html-slider-response","1212","","","","2",""
"3568","curtain","lisud,bulwawan,chubani,mchanga","mchanga","n","5","html-keyboard-response","1213","j","chubani","false","",""
"3365","","","","","5","html-slider-response","1214","","","","4",""
"4169","flag","ndege,mkate,kawa,trekta","trekta","n","5","html-keyboard-response","1215","j","kawa","false","",""
"3694","","","","","5","html-slider-response","1216","","","","4",""
"3281","dog","lubi,washia,bahari,kalamu","bahari","j","5","html-keyboard-response","1217","j","bahari","true","",""
"6985","","","","","5","html-slider-response","1218","","","","4",""
"3918","cup","dagat,shimoni,jeraha,matumai","matumai","n","5","html-keyboard-response","1219","n","matumai","true","",""
"3164","","","","","5","html-slider-response","1220","","","","4",""
"2076","sheet","juuya,watu,bililhon,kamantis","bililhon","j","5","html-keyboard-response","1221","j","bililhon","true","",""
"3099","","","","","5","html-slider-response","1222","","","","4",""
"3366","spoon","pagsulod,betri,nzuri,ngazi","pagsulod","f","5","html-keyboard-response","1223","f","pagsulod","true","",""
"3476","","","","","5","html-slider-response","1224","","","","4",""
"4221","flower","tamasha,lobo,usiku,bega","bega","n","5","html-keyboard-response","1225","n","bega","true","",""
"3091","","","","","5","html-slider-response","1226","","","","2",""
"2445","picture","silya,chaki,kubwa,asin","kubwa","j","5","html-keyboard-response","1227","j","kubwa","true","",""
"3775","","","","","5","html-slider-response","1228","","","","4",""
"3793","puppet","napulo,lamok,godoro,mazishi","mazishi","n","5","html-keyboard-response","1229","f","napulo","false","",""
"4148","","","","","5","html-slider-response","1230","","","","2",""
"3116","banana","kasamok,hagdan,kazi,twai","kazi","j","5","html-keyboard-response","1231","j","kazi","true","",""
"3378","","","","","5","html-slider-response","1232","","","","1",""
"5200","book","kuhesa,picha,mali,mara","mali","j","5","html-keyboard-response","1233","j","mali","true","",""
"3866","","","","","5","html-slider-response","1234","","","","4",""
"2285","triangle","kihozi,bentaha,liog,kasadpan","kasadpan","n","5","html-keyboard-response","1235","n","kasadpan","true","",""
"2813","","","","","5","html-slider-response","1236","","","","4",""
"3941","poster","madungog,nchi,fedha,kasuko","madungog","f","5","html-keyboard-response","1237","f","madungog","true","",""
"5349","","","","","5","html-slider-response","1238","","","","4",""
"9019","box","adui,kuacha,rafiki,kitande","adui","f","5","html-keyboard-response","1239","v","kuacha","false","",""
"4934","","","","","5","html-slider-response","1240","","","","2",""
"2579","mosquito","isda,taras,gutom,martilyo","martilyo","n","5","html-keyboard-response","1241","n","martilyo","true","",""
"7336","","","","","5","html-slider-response","1242","","","","2",""
"2016","shelf","bungtod,pamahaw,kadaot,awit","pamahaw","v","5","html-keyboard-response","1243","v","pamahaw","true","",""
"3255","","","","","5","html-slider-response","1244","","","","4",""
"2481","scissors","duga,mtawa,suga,tanuri","tanuri","n","5","html-keyboard-response","1245","v","mtawa","false","",""
"4745","","","","","5","html-slider-response","1246","","","","2",""
"2199","hammer","napakyas,mekno,kitovu,layag","napakyas","f","5","html-keyboard-response","1247","f","napakyas","true","",""
"2955","","","","","5","html-slider-response","1248","","","","4",""
