"rt","en_word","options","swa_word","correct_answer","phase","trial_type","trial_index","input_answer","input_word","accuracy","certainty","amt_choices"
"4650","bonfire","goti,mwezi,mfuko,kusanya","goti","f","2","html-keyboard-response","106","f","goti","true","",""
"3591","","","","","2","html-slider-response","107","","","","5",""
"2795","flower","tamasha,lobo,usiku,bega","bega","n","2","html-keyboard-response","108","n","bega","true","",""
"3350","","","","","2","html-slider-response","109","","","","5",""
"5962","column","pundok,dila,ufagio,pala","ufagio","j","2","html-keyboard-response","110","n","pala","false","",""
"2344","","","","","2","html-slider-response","111","","","","1",""
"6122","music","mraba,mageho,tumbo,baiski","baiski","n","2","html-keyboard-response","112","f","mraba","false","",""
"2999","","","","","2","html-slider-response","113","","","","1",""
"2171","spider","kamwe,bunyag,mkboa,atop","kamwe","f","2","html-keyboard-response","114","f","kamwe","true","",""
"1943","","","","","2","html-slider-response","115","","","","5",""
"4338","fork","baboy,paghago,mgonjwa,gorisi","mgonjwa","j","2","html-keyboard-response","116","j","mgonjwa","true","",""
"2207","","","","","2","html-slider-response","117","","","","5",""
"2361","mosquito","isda,taras,martilyo,gutom","martilyo","j","2","html-keyboard-response","118","j","martilyo","true","",""
"2582","","","","","2","html-slider-response","119","","","","5",""
"4719","banana","kasamok,hagdan,kazi,twai","kazi","j","2","html-keyboard-response","120","j","kazi","true","",""
"3830","","","","","2","html-slider-response","121","","","","4",""
"8498","cup","dagat,shimoni,jeraha,matumai","matumai","n","2","html-keyboard-response","122","n","matumai","true","",""
"2439","","","","","2","html-slider-response","123","","","","2",""
"4315","shop","nopya,samaki,kerida,ndezu","samaki","v","2","html-keyboard-response","124","v","samaki","true","",""
"2062","","","","","2","html-slider-response","125","","","","5",""
"2443","elephant","petye,pagduol,suka,kito","kito","n","2","html-keyboard-response","126","n","kito","true","",""
"2502","","","","","2","html-slider-response","127","","","","5",""
"4737","bucket","kiatu,baga,ijayo,init","kiatu","f","2","html-keyboard-response","128","f","kiatu","true","",""
"1744","","","","","2","html-slider-response","129","","","","1",""
"2507","book","kuhesa,picha,mali,mara","mali","j","2","html-keyboard-response","130","j","mali","true","",""
"3528","","","","","2","html-slider-response","131","","","","4",""
"6771","mirror","sulagma,rangi,kanding,furaha","sulagma","f","2","html-keyboard-response","132","f","sulagma","true","",""
"2735","","","","","2","html-slider-response","133","","","","2",""
"4740","office","leso,hazini,yatima,kuna","leso","f","2","html-keyboard-response","134","v","hazini","false","",""
"2262","","","","","2","html-slider-response","135","","","","2",""
"4736","body","nyundu,jibini,kununa,tindashan","tindashan","n","2","html-keyboard-response","136","j","kununa","false","",""
"2356","","","","","2","html-slider-response","137","","","","2",""
"4930","perfume","bino,sungura,ndogo,katuyoan","katuyoan","n","2","html-keyboard-response","138","n","katuyoan","true","",""
"3536","","","","","2","html-slider-response","139","","","","2",""
"3651","olive","bata,jiwe,siagi,welder","jiwe","v","2","html-keyboard-response","140","v","jiwe","true","",""
"1928","","","","","2","html-slider-response","141","","","","5",""
"6218","magazine","gundi,mchawi,bahandi,kiti","kiti","n","2","html-keyboard-response","142","j","bahandi","false","",""
"1728","","","","","2","html-slider-response","143","","","","1",""
"5203","bread","dari,kaili,dizeli,bugas","dari","f","2","html-keyboard-response","144","f","dari","true","",""
"1575","","","","","2","html-slider-response","145","","","","1",""
"5874","cave","ganti,maisha,nyundo,kesho","kesho","n","2","html-keyboard-response","146","v","maisha","false","",""
"1728","","","","","2","html-slider-response","147","","","","1",""
"4795","ladder","mashua,mwanga,pangalan,kamba","pangalan","j","2","html-keyboard-response","148","j","pangalan","true","",""
"1880","","","","","2","html-slider-response","149","","","","1",""
"2715","human","bado,kikapu,tinapay,punguza","tinapay","j","2","html-keyboard-response","150","j","tinapay","true","",""
"2168","","","","","2","html-slider-response","151","","","","5",""
"3339","clock","mbwa,kartasi,abang,osha","mbwa","f","2","html-keyboard-response","152","n","osha","false","",""
"2233","","","","","2","html-slider-response","153","","","","1",""
"4042","shelf","bungtod,kadaot,pamahaw,awit","pamahaw","j","2","html-keyboard-response","154","j","pamahaw","true","",""
"2268","","","","","2","html-slider-response","155","","","","2",""
"5335","salmon","mzungu,seri,baharia,sensilyo","sensilyo","n","2","html-keyboard-response","156","n","sensilyo","true","",""
"2126","","","","","2","html-slider-response","157","","","","5",""
"7811","coffin","kioo,barua,tubag,hulma","kioo","f","2","html-keyboard-response","158","f","kioo","true","",""
"1463","","","","","2","html-slider-response","159","","","","2",""
"8804","notebook","msitu,kemia,kila,mdudu","kemia","v","2","html-keyboard-response","160","v","kemia","true","",""
"1799","","","","","2","html-slider-response","161","","","","2",""
"1931","shoulder","kelele,ndaniya,mkuu,guruwe","mkuu","j","2","html-keyboard-response","162","f","kelele","false","",""
"1399","","","","","2","html-slider-response","163","","","","1",""
"7075","park","tambok,bunifu,pwani,ihalas","bunifu","v","2","html-keyboard-response","164","v","bunifu","true","",""
"1559","","","","","2","html-slider-response","165","","","","2",""
"1851","number","mundamo,shule,kengele,choori","mundamo","f","2","html-keyboard-response","166","f","mundamo","true","",""
"1583","","","","","2","html-slider-response","167","","","","5",""
"5676","apple","ukame,estante,edad,kisu","kisu","n","2","html-keyboard-response","168","n","kisu","true","",""
"1991","","","","","2","html-slider-response","169","","","","2",""
"5604","letter","filimbi,chuma,uhuru,kifua","kifua","n","2","html-keyboard-response","170","n","kifua","true","",""
"1841","","","","","2","html-slider-response","171","","","","2",""
"4787","eel","ishara,msumari,kunywa,kabuang","msumari","v","2","html-keyboard-response","172","v","msumari","true","",""
"1812","","","","","2","html-slider-response","173","","","","5",""
"4664","cop","bustani,jikoni,bakus,mechezo","mechezo","n","2","html-keyboard-response","174","n","mechezo","true","",""
"2525","","","","","2","html-slider-response","175","","","","5",""
"3803","wolf","kaburi,lugha,ndizi,mchuzi","lugha","v","2","html-keyboard-response","176","v","lugha","true","",""
"1599","","","","","2","html-slider-response","177","","","","1",""
"3883","squirrel","mahugaw,hofu,ukweli,kichwa","hofu","v","2","html-keyboard-response","178","n","kichwa","false","",""
"1792","","","","","2","html-slider-response","179","","","","1",""
"3994","nose","gubat,kopa,kidole,sehemu","sehemu","n","2","html-keyboard-response","180","n","sehemu","true","",""
"2375","","","","","2","html-slider-response","181","","","","1",""
"3650","sock","mamba,ndoora,kimysa,mtirka","mamba","f","2","html-keyboard-response","182","f","mamba","true","",""
"1958","","","","","2","html-slider-response","183","","","","4",""
"2387","bank","kudhibi,silingan,tualya,ofisi","silingan","v","2","html-keyboard-response","184","v","silingan","true","",""
"1695","","","","","2","html-slider-response","185","","","","4",""
"1763","donkey","elfu,bloke,lalake,rombus","elfu","f","2","html-keyboard-response","186","f","elfu","true","",""
"2488","","","","","2","html-slider-response","187","","","","5",""
"3587","poster","nchi,fedha,kasuko,madungog","madungog","n","2","html-keyboard-response","188","n","madungog","true","",""
"1751","","","","","2","html-slider-response","189","","","","4",""
"2468","puppet","mazishi,napulo,lamok,godoro","mazishi","f","2","html-keyboard-response","190","f","mazishi","true","",""
"2391","","","","","2","html-slider-response","191","","","","1",""
"6890","hill","kushoto,kukimba,matumbo,sweta","matumbo","j","2","html-keyboard-response","192","f","kushoto","false","",""
"2344","","","","","2","html-slider-response","193","","","","1",""
"3772","tooth","kabalaka,kijiko,uadui,pahiyum","kabalaka","f","2","html-keyboard-response","194","n","pahiyum","false","",""
"1675","","","","","2","html-slider-response","195","","","","1",""
"4994","woman","bandari,bituin,kovuli,pagtabon","pagtabon","n","2","html-keyboard-response","196","n","pagtabon","true","",""
"2011","","","","","2","html-slider-response","197","","","","4",""
"7464","wheel","punda,tawo,bafuni,baadaye","bafuni","j","2","html-keyboard-response","198","j","bafuni","true","",""
"2334","","","","","2","html-slider-response","199","","","","4",""
"3179","mother","kahawa,mbuzi,babaye,jokofu","babaye","j","2","html-keyboard-response","200","j","babaye","true","",""
"2072","","","","","2","html-slider-response","201","","","","5",""
"5339","bed","kalipay,haraka,mapintas,starehe","mapintas","j","2","html-keyboard-response","202","f","kalipay","false","",""
"1895","","","","","2","html-slider-response","203","","","","1",""
"3010","key","chombo,miaka,goma,ahos","chombo","f","2","html-keyboard-response","204","f","chombo","true","",""
"1709","","","","","2","html-slider-response","205","","","","1",""
"4291","page","wakala,wimbo,ishiri,skina","wimbo","v","2","html-keyboard-response","206","n","skina","false","",""
"1567","","","","","2","html-slider-response","207","","","","1",""
"3668","pants","pintal,chuki,haki,hari","haki","j","2","html-keyboard-response","208","j","haki","true","",""
"2447","","","","","2","html-slider-response","209","","","","4",""
"2412","sun","bendi,luha,basi,uongo","basi","j","2","html-keyboard-response","210","j","basi","true","",""
"2229","","","","","2","html-slider-response","211","","","","5",""
"4196","finger","simu,sufuria,lima,moyo","moyo","n","2","html-keyboard-response","212","n","moyo","true","",""
"2240","","","","","2","html-slider-response","213","","","","1",""
"3836","shoe","nyeusi,hatua,uyoga,kama","uyoga","j","2","html-keyboard-response","214","j","uyoga","true","",""
"2171","","","","","2","html-slider-response","215","","","","1",""
"4978","giraffe","daraja,mahitabo,jumatu,hangyo","mahitabo","v","2","html-keyboard-response","216","v","mahitabo","true","",""
"2011","","","","","2","html-slider-response","217","","","","2",""
"8706","dog","lubi,bahari,washia,kalamu","bahari","v","2","html-keyboard-response","218","n","kalamu","false","",""
"3351","","","","","2","html-slider-response","219","","","","1",""
"4075","box","kuacha,rafiki,adui,kitande","adui","j","2","html-keyboard-response","220","j","adui","true","",""
"1847","","","","","2","html-slider-response","221","","","","5",""
"1946","scissors","duga,mtawa,suga,tanuri","tanuri","n","2","html-keyboard-response","222","v","mtawa","false","",""
"2072","","","","","2","html-slider-response","223","","","","1",""
"2706","cat","neyemba,baki,paghukom,akili","paghukom","j","2","html-keyboard-response","224","f","neyemba","false","",""
"1814","","","","","2","html-slider-response","225","","","","1",""
"5771","basket","kumba,kumbuka,utepe,hasira","kumba","f","2","html-keyboard-response","226","v","kumbuka","false","",""
"1792","","","","","2","html-slider-response","227","","","","2",""
"1780","snake","pagtukod,jansa,karon,mvringo","pagtukod","f","2","html-keyboard-response","228","f","pagtukod","true","",""
"1463","","","","","2","html-slider-response","229","","","","5",""
"3395","gift","baba,pagtawag,nyange,baso","pagtawag","v","2","html-keyboard-response","230","v","pagtawag","true","",""
"1383","","","","","2","html-slider-response","231","","","","5",""
"3987","train","itik,dakika,sayari,mungu","sayari","j","2","html-keyboard-response","232","n","mungu","false","",""
"2111","","","","","2","html-slider-response","233","","","","1",""
"3315","pudding","abug,mpishi,aibu,iring","aibu","j","2","html-keyboard-response","234","v","mpishi","false","",""
"1840","","","","","2","html-slider-response","235","","","","1",""
"2380","tomato","chupi,mvua,chupa,takatak","mvua","v","2","html-keyboard-response","236","f","chupi","false","",""
"1524","","","","","2","html-slider-response","237","","","","1",""
"3080","stone","ulimwengu,wingi,mkasi,asili","wingi","v","2","html-keyboard-response","238","j","mkasi","false","",""
"1996","","","","","2","html-slider-response","239","","","","1",""
"2355","hammer","mekno,kitovu,layag,napakyas","napakyas","n","2","html-keyboard-response","240","f","mekno","false","",""
"1550","","","","","2","html-slider-response","241","","","","1",""
"4058","knee","duka,mvuke,kubale,bili","duka","f","2","html-keyboard-response","242","v","mvuke","false","",""
"1608","","","","","2","html-slider-response","243","","","","1",""
"2443","ceiling","maua,kugita,kawaida,rayna","maua","f","2","html-keyboard-response","244","f","maua","true","",""
"1847","","","","","2","html-slider-response","245","","","","5",""
"4227","spoon","betri,nzuri,ngazi,pagsulod","pagsulod","n","2","html-keyboard-response","246","n","pagsulod","true","",""
"2470","","","","","2","html-slider-response","247","","","","2",""
"5818","marker","mapafu,salita,atay,maji","maji","n","2","html-keyboard-response","248","v","salita","false","",""
"1487","","","","","2","html-slider-response","249","","","","1",""
"2955","candle","gabi,farasi,kupanda,geza","geza","n","2","html-keyboard-response","250","n","geza","true","",""
"1622","","","","","2","html-slider-response","251","","","","2",""
"4171","tissue","lamigas,ugomvi,kisiwa,katika","ugomvi","v","2","html-keyboard-response","252","f","lamigas","false","",""
"2144","","","","","2","html-slider-response","253","","","","1",""
"3171","bridge","daima,sahani,ngono,panya","sahani","v","2","html-keyboard-response","254","v","sahani","true","",""
"1847","","","","","2","html-slider-response","255","","","","1",""
"3580","berry","abogado,nogozi,kinywa,kofia","kofia","n","2","html-keyboard-response","256","n","kofia","true","",""
"2184","","","","","2","html-slider-response","257","","","","5",""
"4050","triangle","kihozi,bentaha,liog,kasadpan","kasadpan","n","2","html-keyboard-response","258","n","kasadpan","true","",""
"1918","","","","","2","html-slider-response","259","","","","1",""
"2994","door","surali,tena,soko,nyota","surali","f","2","html-keyboard-response","260","v","tena","false","",""
"1916","","","","","2","html-slider-response","261","","","","1",""
"2683","fish","bala,baho,buli,imani","buli","j","2","html-keyboard-response","262","j","buli","true","",""
"2530","","","","","2","html-slider-response","263","","","","5",""
"3178","curtain","lisud,bulwawan,chubani,mchanga","mchanga","n","2","html-keyboard-response","264","n","mchanga","true","",""
"2406","","","","","2","html-slider-response","265","","","","5",""
"3788","flag","trekta,ndege,mkate,kawa","trekta","f","2","html-keyboard-response","266","f","trekta","true","",""
"1735","","","","","2","html-slider-response","267","","","","5",""
"3299","boat","agalon,hamsi,pombe,kitanda","agalon","f","2","html-keyboard-response","268","v","hamsi","false","",""
"1487","","","","","2","html-slider-response","269","","","","1",""
"3482","rose","paghalad,singizi,mwanake,amani","paghalad","f","2","html-keyboard-response","270","j","mwanake","false","",""
"1646","","","","","2","html-slider-response","271","","","","1",""
"2298","lamp","daub,bilaska,mbolea,afya","afya","n","2","html-keyboard-response","272","f","daub","false","",""
"1847","","","","","2","html-slider-response","273","","","","1",""
"1874","cigar","ndugu,kuta,adhabu,mlango","adhabu","j","2","html-keyboard-response","274","v","kuta","false","",""
"1407","","","","","2","html-slider-response","275","","","","1",""
"5267","list","alizeti,kuzama,wingu,kaso","wingu","j","2","html-keyboard-response","276","n","kaso","false","",""
"2943","","","","","2","html-slider-response","277","","","","2",""
"4554","sheet","juuya,bililhon,watu,kamantis","bililhon","v","2","html-keyboard-response","278","v","bililhon","true","",""
"5903","","","","","2","html-slider-response","279","","","","2",""
"3019","picture","silya,chaki,kubwa,asin","kubwa","j","2","html-keyboard-response","280","j","kubwa","true","",""
"1830","","","","","2","html-slider-response","281","","","","2",""
"2875","towel","tembo,funzi,pito,pagpalit","pagpalit","n","2","html-keyboard-response","282","f","tembo","false","",""
"1527","","","","","2","html-slider-response","283","","","","1",""
"2640","window","kweli,nanga,kujenga,umaga","kweli","f","2","html-keyboard-response","284","n","umaga","false","",""
"2580","","","","","2","html-slider-response","285","","","","1",""
"4240","box","kuacha,rafiki,kitande,adui","adui","n","3","html-keyboard-response","293","n","adui","true","","4"
"2534","","","","","3","html-slider-response","294","","","","5",""
"1881","","","","","3","html-keyboard-response","295","","","","",""
"1910","pants","haki,pintal,chuki,hari","haki","f","3","html-keyboard-response","296","f","haki","true","","4"
"2351","","","","","3","html-slider-response","297","","","","5",""
"1148","","","","","3","html-keyboard-response","298","","","","",""
"2999","cup","dagat,shimoni,jeraha,matumai","matumai","n","3","html-keyboard-response","299","f","dagat","false","","4"
"1987","","","","","3","html-slider-response","300","","","","1",""
"3384","","","","","3","html-keyboard-response","301","","","","",""
"3965","triangle","kasadpan,kihozi,bentaha,liog","kasadpan","f","3","html-keyboard-response","302","f","kasadpan","true","","4"
"3175","","","","","3","html-slider-response","303","","","","1",""
"5259","","","","","3","html-keyboard-response","304","","","","",""
"3662","curtain","lisud,bulwawan,mchanga,chubani","mchanga","j","3","html-keyboard-response","305","j","mchanga","true","","4"
"1935","","","","","3","html-slider-response","306","","","","5",""
"1203","","","","","3","html-keyboard-response","307","","","","",""
"2167","clock","mbwa,kartasi,abang,osha","mbwa","f","3","html-keyboard-response","308","f","mbwa","true","","4"
"1904","","","","","3","html-slider-response","309","","","","1",""
"2187","","","","","3","html-keyboard-response","310","","","","",""
"2359","mirror","rangi,sulagma,kanding,furaha","sulagma","v","3","html-keyboard-response","311","f","rangi","false","","4"
"1655","","","","","3","html-slider-response","312","","","","1",""
"2075","","","","","3","html-keyboard-response","313","","","","",""
"2815","coffin","kioo,barua,tubag,hulma","kioo","f","3","html-keyboard-response","314","f","kioo","true","","1"
"2559","","","","","3","html-slider-response","315","","","","5",""
"843","","","","","3","html-keyboard-response","316","","","","",""
"1950","magazine","gundi,kiti,mchawi,bahandi","kiti","v","3","html-keyboard-response","317","f","gundi","false","","4"
"1951","","","","","3","html-slider-response","318","","","","1",""
"2331","","","","","3","html-keyboard-response","319","","","","",""
"3903","column","pundok,dila,pala,ufagio","ufagio","n","3","html-keyboard-response","320","n","ufagio","true","","1"
"3224","","","","","3","html-slider-response","321","","","","5",""
"1907","","","","","3","html-keyboard-response","322","","","","",""
"2984","number","shule,mundamo,kengele,choori","mundamo","v","3","html-keyboard-response","323","v","mundamo","true","","4"
"1767","","","","","3","html-slider-response","324","","","","5",""
"920","","","","","3","html-keyboard-response","325","","","","",""
"3028","rose","singizi,paghalad,mwanake,amani","paghalad","v","3","html-keyboard-response","326","v","paghalad","true","","4"
"2396","","","","","3","html-slider-response","327","","","","1",""
"2002","","","","","3","html-keyboard-response","328","","","","",""
"2727","eel","ishara,kunywa,kabuang,msumari","msumari","n","3","html-keyboard-response","329","n","msumari","true","","4"
"2519","","","","","3","html-slider-response","330","","","","5",""
"1938","","","","","3","html-keyboard-response","331","","","","",""
"4014","gift","baba,nyange,pagtawag,baso","pagtawag","j","3","html-keyboard-response","332","j","pagtawag","true","","4"
"1655","","","","","3","html-slider-response","333","","","","5",""
"1307","","","","","3","html-keyboard-response","334","","","","",""
"7006","apple","ukame,estante,edad,kisu","kisu","n","3","html-keyboard-response","335","n","kisu","true","","1"
"1639","","","","","3","html-slider-response","336","","","","5",""
"1250","","","","","3","html-keyboard-response","337","","","","",""
"7031","wheel","punda,tawo,baadaye,bafuni","bafuni","n","3","html-keyboard-response","338","n","bafuni","true","","1"
"1968","","","","","3","html-slider-response","339","","","","5",""
"859","","","","","3","html-keyboard-response","340","","","","",""
"2591","knee","mvuke,duka,kubale,bili","duka","v","3","html-keyboard-response","341","j","kubale","false","","4"
"2471","","","","","3","html-slider-response","342","","","","1",""
"1212","","","","","3","html-keyboard-response","343","","","","",""
"1671","basket","kumba,kumbuka,utepe,hasira","kumba","f","3","html-keyboard-response","344","f","kumba","true","","1"
"2127","","","","","3","html-slider-response","345","","","","5",""
"1308","","","","","3","html-keyboard-response","346","","","","",""
"2263","park","bunifu,tambok,pwani,ihalas","bunifu","f","3","html-keyboard-response","347","f","bunifu","true","","4"
"1888","","","","","3","html-slider-response","348","","","","5",""
"978","","","","","3","html-keyboard-response","349","","","","",""
"2591","finger","simu,sufuria,moyo,lima","moyo","j","3","html-keyboard-response","350","n","lima","false","","4"
"2025","","","","","3","html-slider-response","351","","","","1",""
"1245","","","","","3","html-keyboard-response","352","","","","",""
"2581","boat","hamsi,pombe,agalon,kitanda","agalon","j","3","html-keyboard-response","353","f","hamsi","false","","4"
"1476","","","","","3","html-slider-response","354","","","","1",""
"1169","","","","","3","html-keyboard-response","355","","","","",""
"4487","hill","kushoto,kukimba,sweta,matumbo","matumbo","n","3","html-keyboard-response","356","f","kushoto","false","","4"
"1711","","","","","3","html-slider-response","357","","","","1",""
"2153","","","","","3","html-keyboard-response","358","","","","",""
"3902","train","itik,dakika,sayari,mungu","sayari","j","3","html-keyboard-response","359","n","mungu","false","","4"
"2279","","","","","3","html-slider-response","360","","","","1",""
"3867","","","","","3","html-keyboard-response","361","","","","",""
"4191","wolf","kaburi,ndizi,lugha,mchuzi","lugha","j","3","html-keyboard-response","362","f","kaburi","false","","4"
"2480","","","","","3","html-slider-response","363","","","","1",""
"1659","","","","","3","html-keyboard-response","364","","","","",""
"1824","snake","pagtukod,jansa,karon,mvringo","pagtukod","f","3","html-keyboard-response","365","f","pagtukod","true","","4"
"1454","","","","","3","html-slider-response","366","","","","5",""
"876","","","","","3","html-keyboard-response","367","","","","",""
"2414","tooth","kijiko,uadui,pahiyum,kabalaka","kabalaka","n","3","html-keyboard-response","368","f","kijiko","false","","4"
"1407","","","","","3","html-slider-response","369","","","","1",""
"1619","","","","","3","html-keyboard-response","370","","","","",""
"9110","notebook","msitu,kila,kemia,mdudu","kemia","j","3","html-keyboard-response","371","j","kemia","true","","4"
"2127","","","","","3","html-slider-response","372","","","","5",""
"811","","","","","3","html-keyboard-response","373","","","","",""
"2742","flag","ndege,mkate,kawa,trekta","trekta","n","3","html-keyboard-response","374","n","trekta","true","","4"
"2207","","","","","3","html-slider-response","375","","","","5",""
"1012","","","","","3","html-keyboard-response","376","","","","",""
"2775","squirrel","mahugaw,ukweli,kichwa,hofu","hofu","n","3","html-keyboard-response","377","j","kichwa","false","","4"
"2154","","","","","3","html-slider-response","378","","","","1",""
"1018","","","","","3","html-keyboard-response","379","","","","",""
"2535","door","tena,soko,nyota,surali","surali","n","3","html-keyboard-response","380","f","tena","false","","4"
"1580","","","","","3","html-slider-response","381","","","","1",""
"1505","","","","","3","html-keyboard-response","382","","","","",""
"3197","salmon","mzungu,seri,sensilyo,baharia","sensilyo","j","3","html-keyboard-response","383","j","sensilyo","true","","4"
"1718","","","","","3","html-slider-response","384","","","","5",""
"913","","","","","3","html-keyboard-response","385","","","","",""
"2463","shoulder","mkuu,kelele,ndaniya,guruwe","mkuu","f","3","html-keyboard-response","386","v","kelele","false","","4"
"1527","","","","","3","html-slider-response","387","","","","5",""
"2739","","","","","3","html-keyboard-response","388","","","","",""
"2287","lamp","daub,bilaska,afya,mbolea","afya","j","3","html-keyboard-response","389","f","daub","false","","4"
"1351","","","","","3","html-slider-response","390","","","","1",""
"2347","","","","","3","html-keyboard-response","391","","","","",""
"2102","shelf","bungtod,kadaot,pamahaw,awit","pamahaw","j","3","html-keyboard-response","392","j","pamahaw","true","","1"
"2231","","","","","3","html-slider-response","393","","","","5",""
"1579","","","","","3","html-keyboard-response","394","","","","",""
"1919","human","bado,kikapu,tinapay,punguza","tinapay","j","3","html-keyboard-response","395","j","tinapay","true","","4"
"1872","","","","","3","html-slider-response","396","","","","5",""
"1243","","","","","3","html-keyboard-response","397","","","","",""
"2087","towel","tembo,pagpalit,funzi,pito","pagpalit","v","3","html-keyboard-response","398","f","tembo","false","","4"
"1352","","","","","3","html-slider-response","399","","","","1",""
"1684","","","","","3","html-keyboard-response","400","","","","",""
"3616","cat","neyemba,paghukom,baki,akili","paghukom","v","3","html-keyboard-response","401","j","baki","false","","4"
"2183","","","","","3","html-slider-response","402","","","","1",""
"1609","","","","","3","html-keyboard-response","403","","","","",""
"2519","spider","bunyag,mkboa,atop,kamwe","kamwe","n","3","html-keyboard-response","404","n","kamwe","true","","4"
"1991","","","","","3","html-slider-response","405","","","","5",""
"1179","","","","","3","html-keyboard-response","406","","","","",""
"3262","window","nanga,kweli,kujenga,umaga","kweli","v","3","html-keyboard-response","407","n","umaga","false","","4"
"2400","","","","","3","html-slider-response","408","","","","1",""
"1554","","","","","3","html-keyboard-response","409","","","","",""
"1934","woman","bandari,bituin,pagtabon,kovuli","pagtabon","j","3","html-keyboard-response","410","j","pagtabon","true","","1"
"2260","","","","","3","html-slider-response","411","","","","5",""
"593","","","","","3","html-keyboard-response","412","","","","",""
"5418","giraffe","daraja,jumatu,mahitabo,hangyo","mahitabo","j","3","html-keyboard-response","413","j","mahitabo","true","","4"
"2452","","","","","3","html-slider-response","414","","","","2",""
"1187","","","","","3","html-keyboard-response","415","","","","",""
"1797","elephant","petye,pagduol,suka,kito","kito","n","3","html-keyboard-response","416","n","kito","true","","4"
"1935","","","","","3","html-slider-response","417","","","","5",""
"1049","","","","","3","html-keyboard-response","418","","","","",""
"3991","cave","ganti,kesho,maisha,nyundo","kesho","v","3","html-keyboard-response","419","v","kesho","true","","4"
"2134","","","","","3","html-slider-response","420","","","","2",""
"770","","","","","3","html-keyboard-response","421","","","","",""
"3646","bread","kaili,dizeli,dari,bugas","dari","j","3","html-keyboard-response","422","j","dari","true","","4"
"1943","","","","","3","html-slider-response","423","","","","1",""
"700","","","","","3","html-keyboard-response","424","","","","",""
"3175","stone","ulimwengu,mkasi,asili,wingi","wingi","n","3","html-keyboard-response","425","v","mkasi","false","","4"
"2143","","","","","3","html-slider-response","426","","","","1",""
"1227","","","","","3","html-keyboard-response","427","","","","",""
"1463","donkey","elfu,bloke,lalake,rombus","elfu","f","3","html-keyboard-response","428","f","elfu","true","","4"
"1583","","","","","3","html-slider-response","429","","","","5",""
"963","","","","","3","html-keyboard-response","430","","","","",""
"21695","bridge","daima,sahani,ngono,panya","sahani","v","3","html-keyboard-response","431","v","sahani","true","","4"
"2111","","","","","3","html-slider-response","432","","","","1",""
"1344","","","","","3","html-keyboard-response","433","","","","",""
"2230","bonfire","mwezi,mfuko,kusanya,goti","goti","n","3","html-keyboard-response","434","n","goti","true","","4"
"1901","","","","","3","html-slider-response","435","","","","5",""
"906","","","","","3","html-keyboard-response","436","","","","",""
"2366","book","kuhesa,picha,mara,mali","mali","n","3","html-keyboard-response","437","n","mali","true","","4"
"2247","","","","","3","html-slider-response","438","","","","5",""
"1026","","","","","3","html-keyboard-response","439","","","","",""
"2413","fish","buli,bala,baho,imani","buli","f","3","html-keyboard-response","440","f","buli","true","","4"
"1599","","","","","3","html-slider-response","441","","","","5",""
"802","","","","","3","html-keyboard-response","442","","","","",""
"2543","spoon","betri,nzuri,ngazi,pagsulod","pagsulod","n","3","html-keyboard-response","443","n","pagsulod","true","","4"
"1887","","","","","3","html-slider-response","444","","","","5",""
"698","","","","","3","html-keyboard-response","445","","","","",""
"4246","scissors","duga,mtawa,tanuri,suga","tanuri","j","3","html-keyboard-response","446","v","mtawa","false","","4"
"2206","","","","","3","html-slider-response","447","","","","2",""
"1011","","","","","3","html-keyboard-response","448","","","","",""
"3678","page","wimbo,wakala,ishiri,skina","wimbo","f","3","html-keyboard-response","449","v","wakala","false","","4"
"1879","","","","","3","html-slider-response","450","","","","1",""
"508","","","","","3","html-keyboard-response","451","","","","",""
"4855","nose","gubat,kopa,sehemu,kidole","sehemu","j","3","html-keyboard-response","452","j","sehemu","true","","1"
"2111","","","","","3","html-slider-response","453","","","","5",""
"620","","","","","3","html-keyboard-response","454","","","","",""
"2407","ceiling","kugita,maua,kawaida,rayna","maua","v","3","html-keyboard-response","455","v","maua","true","","4"
"1302","","","","","3","html-slider-response","456","","","","5",""
"755","","","","","3","html-keyboard-response","457","","","","",""
"9799","bucket","kiatu,baga,ijayo,init","kiatu","f","3","html-keyboard-response","458","v","baga","false","","4"
"2014","","","","","3","html-slider-response","459","","","","2",""
"947","","","","","3","html-keyboard-response","460","","","","",""
"1975","berry","abogado,kofia,nogozi,kinywa","kofia","v","3","html-keyboard-response","461","v","kofia","true","","1"
"2254","","","","","3","html-slider-response","462","","","","5",""
"761","","","","","3","html-keyboard-response","463","","","","",""
"2276","mother","kahawa,mbuzi,jokofu,babaye","babaye","n","3","html-keyboard-response","464","n","babaye","true","","1"
"1259","","","","","3","html-slider-response","465","","","","5",""
"762","","","","","3","html-keyboard-response","466","","","","",""
"2166","mosquito","isda,taras,martilyo,gutom","martilyo","j","3","html-keyboard-response","467","j","martilyo","true","","4"
"1565","","","","","3","html-slider-response","468","","","","5",""
"435","","","","","3","html-keyboard-response","469","","","","",""
"4118","perfume","katuyoan,bino,sungura,ndogo","katuyoan","f","3","html-keyboard-response","470","f","katuyoan","true","","4"
"1872","","","","","3","html-slider-response","471","","","","4",""
"532","","","","","3","html-keyboard-response","472","","","","",""
"2293","sheet","juuya,bililhon,watu,kamantis","bililhon","v","3","html-keyboard-response","473","v","bililhon","true","","4"
"1719","","","","","3","html-slider-response","474","","","","5",""
"403","","","","","3","html-keyboard-response","475","","","","",""
"2222","puppet","napulo,lamok,godoro,mazishi","mazishi","n","3","html-keyboard-response","476","n","mazishi","true","","1"
"1598","","","","","3","html-slider-response","477","","","","5",""
"730","","","","","3","html-keyboard-response","478","","","","",""
"2063","poster","nchi,fedha,madungog,kasuko","madungog","j","3","html-keyboard-response","479","j","madungog","true","","4"
"1232","","","","","3","html-slider-response","480","","","","5",""
"410","","","","","3","html-keyboard-response","481","","","","",""
"4054","music","mraba,mageho,tumbo,baiski","baiski","n","3","html-keyboard-response","482","n","baiski","true","","4"
"1335","","","","","3","html-slider-response","483","","","","4",""
"467","","","","","3","html-keyboard-response","484","","","","",""
"3631","key","miaka,goma,ahos,chombo","chombo","n","3","html-keyboard-response","485","f","miaka","false","","4"
"2168","","","","","3","html-slider-response","486","","","","2",""
"339","","","","","3","html-keyboard-response","487","","","","",""
"2966","sock","ndoora,mamba,kimysa,mtirka","mamba","v","3","html-keyboard-response","488","v","mamba","true","","4"
"1376","","","","","3","html-slider-response","489","","","","5",""
"443","","","","","3","html-keyboard-response","490","","","","",""
"5526","marker","mapafu,maji,salita,atay","maji","v","3","html-keyboard-response","491","f","mapafu","false","","4"
"1728","","","","","3","html-slider-response","492","","","","2",""
"922","","","","","3","html-keyboard-response","493","","","","",""
"3919","office","hazini,yatima,leso,kuna","leso","j","3","html-keyboard-response","494","f","hazini","false","","4"
"1248","","","","","3","html-slider-response","495","","","","4",""
"955","","","","","3","html-keyboard-response","496","","","","",""
"3743","shoe","nyeusi,hatua,kama,uyoga","uyoga","n","3","html-keyboard-response","497","v","hatua","false","","4"
"2555","","","","","3","html-slider-response","498","","","","1",""
"561","","","","","3","html-keyboard-response","499","","","","",""
"2350","cop","bustani,jikoni,mechezo,bakus","mechezo","j","3","html-keyboard-response","500","j","mechezo","true","","4"
"1434","","","","","3","html-slider-response","501","","","","5",""
"593","","","","","3","html-keyboard-response","502","","","","",""
"2077","bank","kudhibi,tualya,ofisi,silingan","silingan","n","3","html-keyboard-response","503","n","silingan","true","","4"
"1287","","","","","3","html-slider-response","504","","","","5",""
"626","","","","","3","html-keyboard-response","505","","","","",""
"1886","letter","filimbi,chuma,kifua,uhuru","kifua","j","3","html-keyboard-response","506","j","kifua","true","","1"
"2287","","","","","3","html-slider-response","507","","","","5",""
"554","","","","","3","html-keyboard-response","508","","","","",""
"2327","dog","lubi,washia,bahari,kalamu","bahari","j","3","html-keyboard-response","509","j","bahari","true","","1"
"1902","","","","","3","html-slider-response","510","","","","5",""
"548","","","","","3","html-keyboard-response","511","","","","",""
"2863","shop","nopya,kerida,samaki,ndezu","samaki","j","3","html-keyboard-response","512","j","samaki","true","","4"
"1664","","","","","3","html-slider-response","513","","","","5",""
"466","","","","","3","html-keyboard-response","514","","","","",""
"6527","flower","tamasha,lobo,bega,usiku","bega","j","3","html-keyboard-response","515","j","bega","true","","4"
"2287","","","","","3","html-slider-response","516","","","","5",""
"340","","","","","3","html-keyboard-response","517","","","","",""
"2463","cigar","ndugu,adhabu,kuta,mlango","adhabu","v","3","html-keyboard-response","518","v","adhabu","true","","1"
"1551","","","","","3","html-slider-response","519","","","","5",""
"459","","","","","3","html-keyboard-response","520","","","","",""
"3967","hammer","mekno,kitovu,napakyas,layag","napakyas","j","3","html-keyboard-response","521","j","napakyas","true","","4"
"2048","","","","","3","html-slider-response","522","","","","2",""
"956","","","","","3","html-keyboard-response","523","","","","",""
"2671","fork","mgonjwa,baboy,paghago,gorisi","mgonjwa","f","3","html-keyboard-response","524","j","paghago","false","","4"
"1767","","","","","3","html-slider-response","525","","","","5",""
"428","","","","","3","html-keyboard-response","526","","","","",""
"2518","sun","bendi,luha,uongo,basi","basi","n","3","html-keyboard-response","527","n","basi","true","","1"
"1297","","","","","3","html-slider-response","528","","","","5",""
"377","","","","","3","html-keyboard-response","529","","","","",""
"4278","ladder","mashua,mwanga,kamba,pangalan","pangalan","n","3","html-keyboard-response","530","j","kamba","false","","4"
"1543","","","","","3","html-slider-response","531","","","","2",""
"642","","","","","3","html-keyboard-response","532","","","","",""
"2224","banana","kazi,kasamok,hagdan,twai","kazi","f","3","html-keyboard-response","533","f","kazi","true","","1"
"1931","","","","","3","html-slider-response","534","","","","5",""
"721","","","","","3","html-keyboard-response","535","","","","",""
"5750","pudding","aibu,abug,mpishi,iring","aibu","f","3","html-keyboard-response","536","f","aibu","true","","4"
"1755","","","","","3","html-slider-response","537","","","","2",""
"721","","","","","3","html-keyboard-response","538","","","","",""
"2838","body","tindashan,nyundu,jibini,kununa","tindashan","f","3","html-keyboard-response","539","v","nyundu","false","","4"
"1656","","","","","3","html-slider-response","540","","","","2",""
"1210","","","","","3","html-keyboard-response","541","","","","",""
"3693","bed","mapintas,kalipay,haraka,starehe","mapintas","f","3","html-keyboard-response","542","n","starehe","false","","4"
"1695","","","","","3","html-slider-response","543","","","","2",""
"1242","","","","","3","html-keyboard-response","544","","","","",""
"3415","tissue","lamigas,kisiwa,ugomvi,katika","ugomvi","j","3","html-keyboard-response","545","f","lamigas","false","","4"
"1695","","","","","3","html-slider-response","546","","","","2",""
"771","","","","","3","html-keyboard-response","547","","","","",""
"3023","candle","gabi,farasi,kupanda,geza","geza","n","3","html-keyboard-response","548","n","geza","true","","4"
"1631","","","","","3","html-slider-response","549","","","","5",""
"859","","","","","3","html-keyboard-response","550","","","","",""
"1853","tomato","chupi,chupa,takatak,mvua","mvua","n","3","html-keyboard-response","551","n","mvua","true","","1"
"2127","","","","","3","html-slider-response","552","","","","5",""
"1002","","","","","3","html-keyboard-response","553","","","","",""
"4912","list","alizeti,kuzama,kaso,wingu","wingu","n","3","html-keyboard-response","554","n","wingu","true","","4"
"2424","","","","","3","html-slider-response","555","","","","2",""
"668","","","","","3","html-keyboard-response","556","","","","",""
"2543","olive","bata,siagi,welder,jiwe","jiwe","n","3","html-keyboard-response","557","n","jiwe","true","","4"
"1680","","","","","3","html-slider-response","558","","","","5",""
"811","","","","","3","html-keyboard-response","559","","","","",""
"2390","picture","silya,kubwa,chaki,asin","kubwa","v","3","html-keyboard-response","560","v","kubwa","true","","1"
"1751","","","","","3","html-slider-response","561","","","","5",""
"1123","","","","","3","html-keyboard-response","562","","","","",""
"4384","page","wakala,wimbo,ishiri,skina","wimbo","v","4","html-keyboard-response","888","v","wimbo","true","",""
"1839","","","","","4","html-slider-response","889","","","","5",""
"3482","sheet","juuya,watu,kamantis,bililhon","bililhon","n","4","html-keyboard-response","890","n","bililhon","true","",""
"1270","","","","","4","html-slider-response","891","","","","5",""
"4346","ladder","mashua,mwanga,pangalan,kamba","pangalan","j","4","html-keyboard-response","892","j","pangalan","true","",""
"2495","","","","","4","html-slider-response","893","","","","2",""
"4538","door","tena,soko,nyota,surali","surali","n","4","html-keyboard-response","894","n","surali","true","",""
"1502","","","","","4","html-slider-response","895","","","","5",""
"1883","spider","bunyag,mkboa,atop,kamwe","kamwe","n","4","html-keyboard-response","896","n","kamwe","true","",""
"1727","","","","","4","html-slider-response","897","","","","5",""
"1818","picture","silya,chaki,asin,kubwa","kubwa","n","4","html-keyboard-response","898","n","kubwa","true","",""
"1367","","","","","4","html-slider-response","899","","","","5",""
"9331","boat","hamsi,pombe,kitanda,agalon","agalon","n","4","html-keyboard-response","900","f","hamsi","false","",""
"1987","","","","","4","html-slider-response","901","","","","4",""
"1641","donkey","bloke,lalake,elfu,rombus","elfu","j","4","html-keyboard-response","902","f","bloke","false","",""
"3990","","","","","4","html-slider-response","903","","","","1",""
"3499","book","kuhesa,mali,picha,mara","mali","v","4","html-keyboard-response","904","v","mali","true","",""
"1622","","","","","4","html-slider-response","905","","","","5",""
"4506","cup","matumai,dagat,shimoni,jeraha","matumai","f","4","html-keyboard-response","906","f","matumai","true","",""
"2438","","","","","4","html-slider-response","907","","","","5",""
"3315","sun","bendi,luha,basi,uongo","basi","j","4","html-keyboard-response","908","j","basi","true","",""
"1807","","","","","4","html-slider-response","909","","","","5",""
"5387","pudding","aibu,abug,mpishi,iring","aibu","f","4","html-keyboard-response","910","f","aibu","true","",""
"1310","","","","","4","html-slider-response","911","","","","5",""
"2932","human","bado,kikapu,punguza,tinapay","tinapay","n","4","html-keyboard-response","912","n","tinapay","true","",""
"1656","","","","","4","html-slider-response","913","","","","5",""
"4019","squirrel","mahugaw,hofu,ukweli,kichwa","hofu","v","4","html-keyboard-response","914","v","hofu","true","",""
"1392","","","","","4","html-slider-response","915","","","","5",""
"3235","park","tambok,pwani,bunifu,ihalas","bunifu","j","4","html-keyboard-response","916","j","bunifu","true","",""
"2631","","","","","4","html-slider-response","917","","","","5",""
"2643","poster","nchi,fedha,kasuko,madungog","madungog","n","4","html-keyboard-response","918","n","madungog","true","",""
"2071","","","","","4","html-slider-response","919","","","","5",""
"2169","wolf","kaburi,lugha,ndizi,mchuzi","lugha","v","4","html-keyboard-response","920","v","lugha","true","",""
"1839","","","","","4","html-slider-response","921","","","","5",""
"3379","cat","paghukom,neyemba,baki,akili","paghukom","f","4","html-keyboard-response","922","f","paghukom","true","",""
"2119","","","","","4","html-slider-response","923","","","","5",""
"1904","fish","buli,bala,baho,imani","buli","f","4","html-keyboard-response","924","f","buli","true","",""
"2205","","","","","4","html-slider-response","925","","","","5",""
"2558","tooth","kijiko,kabalaka,uadui,pahiyum","kabalaka","v","4","html-keyboard-response","926","v","kabalaka","true","",""
"2022","","","","","4","html-slider-response","927","","","","5",""
"2540","cave","ganti,maisha,kesho,nyundo","kesho","j","4","html-keyboard-response","928","j","kesho","true","",""
"1804","","","","","4","html-slider-response","929","","","","5",""
"3314","lamp","daub,bilaska,afya,mbolea","afya","j","4","html-keyboard-response","930","j","afya","true","",""
"1990","","","","","4","html-slider-response","931","","","","5",""
"2116","banana","kasamok,hagdan,kazi,twai","kazi","j","4","html-keyboard-response","932","j","kazi","true","",""
"2007","","","","","4","html-slider-response","933","","","","5",""
"3691","bonfire","mwezi,goti,mfuko,kusanya","goti","v","4","html-keyboard-response","934","v","goti","true","",""
"1671","","","","","4","html-slider-response","935","","","","5",""
"1899","cop","bustani,jikoni,mechezo,bakus","mechezo","j","4","html-keyboard-response","936","j","mechezo","true","",""
"1263","","","","","4","html-slider-response","937","","","","5",""
"6195","marker","mapafu,salita,maji,atay","maji","j","4","html-keyboard-response","938","j","maji","true","",""
"1560","","","","","4","html-slider-response","939","","","","1",""
"4394","window","nanga,kujenga,umaga,kweli","kweli","n","4","html-keyboard-response","940","j","umaga","false","",""
"2175","","","","","4","html-slider-response","941","","","","2",""
"4108","body","nyundu,jibini,kununa,tindashan","tindashan","n","4","html-keyboard-response","942","n","tindashan","true","",""
"1343","","","","","4","html-slider-response","943","","","","2",""
"5698","apple","ukame,estante,kisu,edad","kisu","j","4","html-keyboard-response","944","j","kisu","true","",""
"1273","","","","","4","html-slider-response","945","","","","1",""
"2138","salmon","sensilyo,mzungu,seri,baharia","sensilyo","f","4","html-keyboard-response","946","f","sensilyo","true","",""
"1424","","","","","4","html-slider-response","947","","","","5",""
"1915","bed","kalipay,haraka,mapintas,starehe","mapintas","j","4","html-keyboard-response","948","j","mapintas","true","",""
"1420","","","","","4","html-slider-response","949","","","","5",""
"1697","berry","abogado,nogozi,kofia,kinywa","kofia","j","4","html-keyboard-response","950","j","kofia","true","",""
"1084","","","","","4","html-slider-response","951","","","","5",""
"3616","mirror","rangi,kanding,furaha,sulagma","sulagma","n","4","html-keyboard-response","952","n","sulagma","true","",""
"1359","","","","","4","html-slider-response","953","","","","4",""
"2266","flag","ndege,trekta,mkate,kawa","trekta","v","4","html-keyboard-response","954","v","trekta","true","",""
"2095","","","","","4","html-slider-response","955","","","","5",""
"2498","shoulder","kelele,mkuu,ndaniya,guruwe","mkuu","v","4","html-keyboard-response","956","f","kelele","false","",""
"2223","","","","","4","html-slider-response","957","","","","5",""
"5090","tissue","ugomvi,lamigas,kisiwa,katika","ugomvi","f","4","html-keyboard-response","958","v","lamigas","false","",""
"1309","","","","","4","html-slider-response","959","","","","1",""
"5548","notebook","msitu,kila,kemia,mdudu","kemia","j","4","html-keyboard-response","960","j","kemia","true","",""
"1920","","","","","4","html-slider-response","961","","","","4",""
"2291","snake","jansa,karon,pagtukod,mvringo","pagtukod","j","4","html-keyboard-response","962","j","pagtukod","true","",""
"2311","","","","","4","html-slider-response","963","","","","5",""
"3483","finger","simu,moyo,sufuria,lima","moyo","v","4","html-keyboard-response","964","v","moyo","true","",""
"1304","","","","","4","html-slider-response","965","","","","5",""
"4555","basket","kumbuka,utepe,hasira,kumba","kumba","n","4","html-keyboard-response","966","n","kumba","true","",""
"1647","","","","","4","html-slider-response","967","","","","5",""
"3162","curtain","mchanga,lisud,bulwawan,chubani","mchanga","f","4","html-keyboard-response","968","f","mchanga","true","",""
"1312","","","","","4","html-slider-response","969","","","","5",""
"2187","perfume","bino,sungura,ndogo,katuyoan","katuyoan","n","4","html-keyboard-response","970","n","katuyoan","true","",""
"1304","","","","","4","html-slider-response","971","","","","5",""
"2691","key","miaka,goma,ahos,chombo","chombo","n","4","html-keyboard-response","972","f","miaka","false","",""
"1783","","","","","4","html-slider-response","973","","","","2",""
"1706","olive","bata,siagi,welder,jiwe","jiwe","n","4","html-keyboard-response","974","n","jiwe","true","",""
"1344","","","","","4","html-slider-response","975","","","","5",""
"3543","rose","singizi,mwanake,paghalad,amani","paghalad","j","4","html-keyboard-response","976","j","paghalad","true","",""
"1742","","","","","4","html-slider-response","977","","","","1",""
"2144","bridge","daima,ngono,sahani,panya","sahani","j","4","html-keyboard-response","978","j","sahani","true","",""
"1461","","","","","4","html-slider-response","979","","","","4",""
"2578","hill","kushoto,kukimba,matumbo,sweta","matumbo","j","4","html-keyboard-response","980","j","matumbo","true","",""
"1550","","","","","4","html-slider-response","981","","","","5",""
"7187","letter","filimbi,kifua,chuma,uhuru","kifua","v","4","html-keyboard-response","982","v","kifua","true","",""
"1519","","","","","4","html-slider-response","983","","","","2",""
"2027","sock","ndoora,kimysa,mamba,mtirka","mamba","j","4","html-keyboard-response","984","j","mamba","true","",""
"1232","","","","","4","html-slider-response","985","","","","5",""
"3514","fork","mgonjwa,baboy,paghago,gorisi","mgonjwa","f","4","html-keyboard-response","986","f","mgonjwa","true","",""
"1112","","","","","4","html-slider-response","987","","","","4",""
"3515","box","kuacha,adui,rafiki,kitande","adui","v","4","html-keyboard-response","988","v","adui","true","",""
"1318","","","","","4","html-slider-response","989","","","","5",""
"4547","gift","baba,nyange,baso,pagtawag","pagtawag","n","4","html-keyboard-response","990","n","pagtawag","true","",""
"1248","","","","","4","html-slider-response","991","","","","4",""
"3797","bucket","baga,kiatu,ijayo,init","kiatu","v","4","html-keyboard-response","992","v","kiatu","true","",""
"1646","","","","","4","html-slider-response","993","","","","1",""
"2747","shop","samaki,nopya,kerida,ndezu","samaki","f","4","html-keyboard-response","994","f","samaki","true","",""
"1199","","","","","4","html-slider-response","995","","","","5",""
"2608","puppet","mazishi,napulo,lamok,godoro","mazishi","f","4","html-keyboard-response","996","f","mazishi","true","",""
"1254","","","","","4","html-slider-response","997","","","","4",""
"2235","nose","gubat,kopa,kidole,sehemu","sehemu","n","4","html-keyboard-response","998","n","sehemu","true","",""
"2088","","","","","4","html-slider-response","999","","","","5",""
"5083","music","mraba,baiski,mageho,tumbo","baiski","v","4","html-keyboard-response","1000","j","mageho","false","",""
"2167","","","","","4","html-slider-response","1001","","","","1",""
"1639","dog","bahari,lubi,washia,kalamu","bahari","f","4","html-keyboard-response","1002","f","bahari","true","",""
"1342","","","","","4","html-slider-response","1003","","","","5",""
"1986","eel","msumari,ishara,kunywa,kabuang","msumari","f","4","html-keyboard-response","1004","f","msumari","true","",""
"1347","","","","","4","html-slider-response","1005","","","","5",""
"2465","number","shule,kengele,choori,mundamo","mundamo","n","4","html-keyboard-response","1006","n","mundamo","true","",""
"1856","","","","","4","html-slider-response","1007","","","","5",""
"3402","tomato","chupi,mvua,chupa,takatak","mvua","v","4","html-keyboard-response","1008","v","mvua","true","",""
"2759","","","","","4","html-slider-response","1009","","","","2",""
"2193","coffin","barua,kioo,tubag,hulma","kioo","v","4","html-keyboard-response","1010","v","kioo","true","",""
"1248","","","","","4","html-slider-response","1011","","","","5",""
"2642","knee","mvuke,duka,kubale,bili","duka","v","4","html-keyboard-response","1012","v","duka","true","",""
"1231","","","","","4","html-slider-response","1013","","","","5",""
"1804","woman","bandari,bituin,pagtabon,kovuli","pagtabon","j","4","html-keyboard-response","1014","j","pagtabon","true","",""
"1342","","","","","4","html-slider-response","1015","","","","5",""
"2451","stone","ulimwengu,mkasi,wingi,asili","wingi","j","4","html-keyboard-response","1016","j","wingi","true","",""
"1336","","","","","4","html-slider-response","1017","","","","5",""
"3289","bread","dari,kaili,dizeli,bugas","dari","f","4","html-keyboard-response","1018","n","bugas","false","",""
"1447","","","","","4","html-slider-response","1019","","","","1",""
"3851","triangle","kihozi,bentaha,liog,kasadpan","kasadpan","n","4","html-keyboard-response","1020","n","kasadpan","true","",""
"1368","","","","","4","html-slider-response","1021","","","","5",""
"2568","scissors","duga,tanuri,mtawa,suga","tanuri","v","4","html-keyboard-response","1022","v","tanuri","true","",""
"1408","","","","","4","html-slider-response","1023","","","","2",""
"2636","giraffe","daraja,mahitabo,jumatu,hangyo","mahitabo","v","4","html-keyboard-response","1024","v","mahitabo","true","",""
"1511","","","","","4","html-slider-response","1025","","","","2",""
"1804","flower","bega,tamasha,lobo,usiku","bega","f","4","html-keyboard-response","1026","f","bega","true","",""
"1168","","","","","4","html-slider-response","1027","","","","5",""
"2227","candle","gabi,geza,farasi,kupanda","geza","v","4","html-keyboard-response","1028","v","geza","true","",""
"1191","","","","","4","html-slider-response","1029","","","","5",""
"2203","mother","babaye,kahawa,mbuzi,jokofu","babaye","f","4","html-keyboard-response","1030","f","babaye","true","",""
"1111","","","","","4","html-slider-response","1031","","","","5",""
"2259","towel","pagpalit,tembo,funzi,pito","pagpalit","f","4","html-keyboard-response","1032","f","pagpalit","true","",""
"1415","","","","","4","html-slider-response","1033","","","","5",""
"1827","elephant","kito,petye,pagduol,suka","kito","f","4","html-keyboard-response","1034","f","kito","true","",""
"2068","","","","","4","html-slider-response","1035","","","","5",""
"1713","shelf","bungtod,kadaot,pamahaw,awit","pamahaw","j","4","html-keyboard-response","1036","j","pamahaw","true","",""
"1694","","","","","4","html-slider-response","1037","","","","5",""
"1617","mosquito","isda,taras,gutom,martilyo","martilyo","n","4","html-keyboard-response","1038","n","martilyo","true","",""
"1454","","","","","4","html-slider-response","1039","","","","5",""
"4946","column","pundok,dila,pala,ufagio","ufagio","n","4","html-keyboard-response","1040","j","pala","false","",""
"1447","","","","","4","html-slider-response","1041","","","","1",""
"2706","pants","pintal,chuki,hari,haki","haki","n","4","html-keyboard-response","1042","n","haki","true","",""
"1503","","","","","4","html-slider-response","1043","","","","4",""
"3402","list","wingu,alizeti,kuzama,kaso","wingu","f","4","html-keyboard-response","1044","f","wingu","true","",""
"1352","","","","","4","html-slider-response","1045","","","","4",""
"1801","bank","kudhibi,silingan,tualya,ofisi","silingan","v","4","html-keyboard-response","1046","v","silingan","true","",""
"1295","","","","","4","html-slider-response","1047","","","","5",""
"2986","clock","mbwa,kartasi,abang,osha","mbwa","f","4","html-keyboard-response","1048","f","mbwa","true","",""
"1336","","","","","4","html-slider-response","1049","","","","5",""
"3298","ceiling","kugita,maua,kawaida,rayna","maua","v","4","html-keyboard-response","1050","v","maua","true","",""
"1288","","","","","4","html-slider-response","1051","","","","5",""
"2203","train","sayari,itik,dakika,mungu","sayari","f","4","html-keyboard-response","1052","f","sayari","true","",""
"1199","","","","","4","html-slider-response","1053","","","","5",""
"5020","magazine","gundi,kiti,mchawi,bahandi","kiti","v","4","html-keyboard-response","1054","v","kiti","true","",""
"1773","","","","","4","html-slider-response","1055","","","","1",""
"3836","office","hazini,leso,yatima,kuna","leso","v","4","html-keyboard-response","1056","f","hazini","false","",""
"2439","","","","","4","html-slider-response","1057","","","","1",""
"3459","wheel","punda,bafuni,tawo,baadaye","bafuni","v","4","html-keyboard-response","1058","v","bafuni","true","",""
"1431","","","","","4","html-slider-response","1059","","","","4",""
"2771","spoon","betri,nzuri,pagsulod,ngazi","pagsulod","j","4","html-keyboard-response","1060","j","pagsulod","true","",""
"1745","","","","","4","html-slider-response","1061","","","","4",""
"2122","hammer","mekno,kitovu,napakyas,layag","napakyas","j","4","html-keyboard-response","1062","j","napakyas","true","",""
"1181","","","","","4","html-slider-response","1063","","","","5",""
"5992","cigar","ndugu,kuta,adhabu,mlango","adhabu","j","4","html-keyboard-response","1064","j","adhabu","true","",""
"1084","","","","","4","html-slider-response","1065","","","","4",""
"2969","shoe","uyoga,nyeusi,hatua,kama","uyoga","f","4","html-keyboard-response","1066","n","kama","false","",""
"1255","","","","","4","html-slider-response","1067","","","","1",""
"2025","list","alizeti,wingu,kuzama,kaso","wingu","v","5","html-keyboard-response","1069","v","wingu","true","",""
"1687","","","","","5","html-slider-response","1070","","","","5",""
"1723","number","shule,kengele,mundamo,choori","mundamo","j","5","html-keyboard-response","1071","j","mundamo","true","",""
"1479","","","","","5","html-slider-response","1072","","","","5",""
"3946","apple","ukame,estante,edad,kisu","kisu","n","5","html-keyboard-response","1073","j","edad","false","",""
"1526","","","","","5","html-slider-response","1074","","","","2",""
"1579","knee","duka,mvuke,kubale,bili","duka","f","5","html-keyboard-response","1075","f","duka","true","",""
"1399","","","","","5","html-slider-response","1076","","","","5",""
"2340","tooth","kijiko,kabalaka,uadui,pahiyum","kabalaka","v","5","html-keyboard-response","1077","v","kabalaka","true","",""
"2472","","","","","5","html-slider-response","1078","","","","5",""
"1602","berry","abogado,nogozi,kofia,kinywa","kofia","j","5","html-keyboard-response","1079","j","kofia","true","",""
"1584","","","","","5","html-slider-response","1080","","","","5",""
"3451","bridge","daima,ngono,panya,sahani","sahani","n","5","html-keyboard-response","1081","n","sahani","true","",""
"1391","","","","","5","html-slider-response","1082","","","","2",""
"2250","perfume","bino,katuyoan,sungura,ndogo","katuyoan","v","5","html-keyboard-response","1083","v","katuyoan","true","",""
"1288","","","","","5","html-slider-response","1084","","","","5",""
"4458","ladder","mashua,pangalan,mwanga,kamba","pangalan","v","5","html-keyboard-response","1085","n","kamba","false","",""
"1567","","","","","5","html-slider-response","1086","","","","1",""
"1932","pants","pintal,chuki,hari,haki","haki","n","5","html-keyboard-response","1087","n","haki","true","",""
"1318","","","","","5","html-slider-response","1088","","","","5",""
"2290","salmon","mzungu,sensilyo,seri,baharia","sensilyo","v","5","html-keyboard-response","1089","v","sensilyo","true","",""
"1375","","","","","5","html-slider-response","1090","","","","5",""
"1970","coffin","barua,tubag,hulma,kioo","kioo","n","5","html-keyboard-response","1091","n","kioo","true","",""
"1231","","","","","5","html-slider-response","1092","","","","5",""
"1907","park","tambok,pwani,bunifu,ihalas","bunifu","j","5","html-keyboard-response","1093","j","bunifu","true","",""
"1906","","","","","5","html-slider-response","1094","","","","5",""
"3514","giraffe","daraja,mahitabo,jumatu,hangyo","mahitabo","v","5","html-keyboard-response","1095","v","mahitabo","true","",""
"1347","","","","","5","html-slider-response","1096","","","","5",""
"6169","mirror","rangi,sulagma,kanding,furaha","sulagma","v","5","html-keyboard-response","1097","v","sulagma","true","",""
"1335","","","","","5","html-slider-response","1098","","","","5",""
"1962","ceiling","kugita,kawaida,maua,rayna","maua","j","5","html-keyboard-response","1099","j","maua","true","",""
"1279","","","","","5","html-slider-response","1100","","","","5",""
"4018","marker","maji,mapafu,salita,atay","maji","f","5","html-keyboard-response","1101","v","mapafu","false","",""
"1518","","","","","5","html-slider-response","1102","","","","1",""
"1914","sock","mamba,ndoora,kimysa,mtirka","mamba","f","5","html-keyboard-response","1103","f","mamba","true","",""
"1303","","","","","5","html-slider-response","1104","","","","5",""
"1594","cop","bustani,jikoni,mechezo,bakus","mechezo","j","5","html-keyboard-response","1105","j","mechezo","true","",""
"1230","","","","","5","html-slider-response","1106","","","","5",""
"1707","gift","baba,nyange,pagtawag,baso","pagtawag","j","5","html-keyboard-response","1107","j","pagtawag","true","",""
"1103","","","","","5","html-slider-response","1108","","","","5",""
"4667","notebook","msitu,kemia,kila,mdudu","kemia","v","5","html-keyboard-response","1109","v","kemia","true","",""
"1464","","","","","5","html-slider-response","1110","","","","5",""
"1820","bank","silingan,kudhibi,tualya,ofisi","silingan","f","5","html-keyboard-response","1111","f","silingan","true","",""
"1383","","","","","5","html-slider-response","1112","","","","5",""
"6002","letter","filimbi,chuma,kifua,uhuru","kifua","j","5","html-keyboard-response","1113","n","uhuru","false","",""
"1647","","","","","5","html-slider-response","1114","","","","1",""
"1570","candle","gabi,farasi,kupanda,geza","geza","n","5","html-keyboard-response","1115","n","geza","true","",""
"1063","","","","","5","html-slider-response","1116","","","","5",""
"1892","bread","kaili,dizeli,dari,bugas","dari","j","5","html-keyboard-response","1117","j","dari","true","",""
"2169","","","","","5","html-slider-response","1118","","","","2",""
"1722","snake","jansa,karon,pagtukod,mvringo","pagtukod","j","5","html-keyboard-response","1119","j","pagtukod","true","",""
"1367","","","","","5","html-slider-response","1120","","","","5",""
"4603","rose","singizi,mwanake,paghalad,amani","paghalad","j","5","html-keyboard-response","1121","j","paghalad","true","",""
"1675","","","","","5","html-slider-response","1122","","","","1",""
"3553","hill","matumbo,kushoto,kukimba,sweta","matumbo","f","5","html-keyboard-response","1123","f","matumbo","true","",""
"1522","","","","","5","html-slider-response","1124","","","","5",""
"1794","train","sayari,itik,dakika,mungu","sayari","f","5","html-keyboard-response","1125","f","sayari","true","",""
"1893","","","","","5","html-slider-response","1126","","","","5",""
"2314","shop","nopya,samaki,kerida,ndezu","samaki","v","5","html-keyboard-response","1127","v","samaki","true","",""
"1989","","","","","5","html-slider-response","1128","","","","5",""
"2458","nose","gubat,sehemu,kopa,kidole","sehemu","v","5","html-keyboard-response","1129","v","sehemu","true","",""
"1351","","","","","5","html-slider-response","1130","","","","5",""
"4131","boat","hamsi,agalon,pombe,kitanda","agalon","v","5","html-keyboard-response","1131","f","hamsi","false","",""
"1574","","","","","5","html-slider-response","1132","","","","2",""
"2179","body","nyundu,jibini,tindashan,kununa","tindashan","j","5","html-keyboard-response","1133","j","tindashan","true","",""
"1255","","","","","5","html-slider-response","1134","","","","5",""
"2226","bed","kalipay,mapintas,haraka,starehe","mapintas","v","5","html-keyboard-response","1135","v","mapintas","true","",""
"1471","","","","","5","html-slider-response","1136","","","","5",""
"3203","squirrel","hofu,mahugaw,ukweli,kichwa","hofu","f","5","html-keyboard-response","1137","f","hofu","true","",""
"1359","","","","","5","html-slider-response","1138","","","","5",""
"4443","window","nanga,kujenga,umaga,kweli","kweli","n","5","html-keyboard-response","1139","f","nanga","false","",""
"1774","","","","","5","html-slider-response","1140","","","","1",""
"1820","bonfire","mwezi,mfuko,goti,kusanya","goti","j","5","html-keyboard-response","1141","j","goti","true","",""
"1287","","","","","5","html-slider-response","1142","","","","5",""
"2130","fish","bala,buli,baho,imani","buli","v","5","html-keyboard-response","1143","v","buli","true","",""
"1511","","","","","5","html-slider-response","1144","","","","5",""
"2859","cat","neyemba,paghukom,baki,akili","paghukom","v","5","html-keyboard-response","1145","v","paghukom","true","",""
"1447","","","","","5","html-slider-response","1146","","","","5",""
"1314","spider","kamwe,bunyag,mkboa,atop","kamwe","f","5","html-keyboard-response","1147","f","kamwe","true","",""
"1295","","","","","5","html-slider-response","1148","","","","5",""
"2915","eel","ishara,kunywa,kabuang,msumari","msumari","n","5","html-keyboard-response","1149","n","msumari","true","",""
"1520","","","","","5","html-slider-response","1150","","","","5",""
"1908","woman","bandari,pagtabon,bituin,kovuli","pagtabon","v","5","html-keyboard-response","1151","v","pagtabon","true","",""
"1288","","","","","5","html-slider-response","1152","","","","5",""
"1507","magazine","kiti,gundi,mchawi,bahandi","kiti","f","5","html-keyboard-response","1153","f","kiti","true","",""
"1892","","","","","5","html-slider-response","1154","","","","1",""
"2329","pudding","aibu,abug,mpishi,iring","aibu","f","5","html-keyboard-response","1155","f","aibu","true","",""
"1626","","","","","5","html-slider-response","1156","","","","5",""
"2786","lamp","daub,bilaska,afya,mbolea","afya","j","5","html-keyboard-response","1157","j","afya","true","",""
"1711","","","","","5","html-slider-response","1158","","","","5",""
"4306","cave","kesho,ganti,maisha,nyundo","kesho","f","5","html-keyboard-response","1159","f","kesho","true","",""
"2407","","","","","5","html-slider-response","1160","","","","2",""
"2275","shoulder","mkuu,kelele,ndaniya,guruwe","mkuu","f","5","html-keyboard-response","1161","v","kelele","false","",""
"1512","","","","","5","html-slider-response","1162","","","","5",""
"3266","stone","ulimwengu,mkasi,wingi,asili","wingi","j","5","html-keyboard-response","1163","j","wingi","true","",""
"1429","","","","","5","html-slider-response","1164","","","","5",""
"3619","column","pundok,dila,pala,ufagio","ufagio","n","5","html-keyboard-response","1165","f","pundok","false","",""
"1366","","","","","5","html-slider-response","1166","","","","1",""
"3298","page","wakala,ishiri,skina,wimbo","wimbo","n","5","html-keyboard-response","1167","n","wimbo","true","",""
"2519","","","","","5","html-slider-response","1168","","","","1",""
"4652","shoe","nyeusi,uyoga,hatua,kama","uyoga","v","5","html-keyboard-response","1169","f","nyeusi","false","",""
"1815","","","","","5","html-slider-response","1170","","","","1",""
"1994","clock","kartasi,mbwa,abang,osha","mbwa","v","5","html-keyboard-response","1171","v","mbwa","true","",""
"1288","","","","","5","html-slider-response","1172","","","","5",""
"1651","towel","tembo,pagpalit,funzi,pito","pagpalit","v","5","html-keyboard-response","1173","v","pagpalit","true","",""
"1223","","","","","5","html-slider-response","1174","","","","5",""
"3107","tomato","chupi,chupa,takatak,mvua","mvua","n","5","html-keyboard-response","1175","n","mvua","true","",""
"1311","","","","","5","html-slider-response","1176","","","","5",""
"3716","bucket","kiatu,baga,ijayo,init","kiatu","f","5","html-keyboard-response","1177","f","kiatu","true","",""
"1711","","","","","5","html-slider-response","1178","","","","1",""
"3139","finger","simu,sufuria,moyo,lima","moyo","j","5","html-keyboard-response","1179","j","moyo","true","",""
"1375","","","","","5","html-slider-response","1180","","","","5",""
"1871","mother","kahawa,mbuzi,babaye,jokofu","babaye","j","5","html-keyboard-response","1181","j","babaye","true","",""
"1236","","","","","5","html-slider-response","1182","","","","5",""
"2243","human","bado,kikapu,punguza,tinapay","tinapay","n","5","html-keyboard-response","1183","n","tinapay","true","",""
"1483","","","","","5","html-slider-response","1184","","","","5",""
"1753","sun","bendi,luha,basi,uongo","basi","j","5","html-keyboard-response","1185","j","basi","true","",""
"1469","","","","","5","html-slider-response","1186","","","","5",""
"4034","fork","baboy,mgonjwa,paghago,gorisi","mgonjwa","v","5","html-keyboard-response","1187","j","paghago","false","",""
"1197","","","","","5","html-slider-response","1188","","","","5",""
"2234","donkey","bloke,elfu,lalake,rombus","elfu","v","5","html-keyboard-response","1189","v","elfu","true","",""
"1199","","","","","5","html-slider-response","1190","","","","5",""
"1866","wolf","lugha,kaburi,ndizi,mchuzi","lugha","f","5","html-keyboard-response","1191","f","lugha","true","",""
"1198","","","","","5","html-slider-response","1192","","","","5",""
"3211","cigar","ndugu,kuta,mlango,adhabu","adhabu","n","5","html-keyboard-response","1193","n","adhabu","true","",""
"1558","","","","","5","html-slider-response","1194","","","","5",""
"1932","olive","bata,siagi,welder,jiwe","jiwe","n","5","html-keyboard-response","1195","j","welder","false","",""
"1735","","","","","5","html-slider-response","1196","","","","5",""
"3787","key","miaka,goma,chombo,ahos","chombo","j","5","html-keyboard-response","1197","v","goma","false","",""
"1662","","","","","5","html-slider-response","1198","","","","1",""
"3258","door","surali,tena,soko,nyota","surali","f","5","html-keyboard-response","1199","f","surali","true","",""
"1463","","","","","5","html-slider-response","1200","","","","4",""
"2338","wheel","bafuni,punda,tawo,baadaye","bafuni","f","5","html-keyboard-response","1201","f","bafuni","true","",""
"1262","","","","","5","html-slider-response","1202","","","","5",""
"3835","basket","kumbuka,utepe,kumba,hasira","kumba","j","5","html-keyboard-response","1203","j","kumba","true","",""
"1247","","","","","5","html-slider-response","1204","","","","2",""
"1994","elephant","kito,petye,pagduol,suka","kito","f","5","html-keyboard-response","1205","f","kito","true","",""
"1999","","","","","5","html-slider-response","1206","","","","5",""
"3515","office","hazini,yatima,kuna,leso","leso","n","5","html-keyboard-response","1207","n","leso","true","",""
"2655","","","","","5","html-slider-response","1208","","","","4",""
"1460","music","mraba,mageho,baiski,tumbo","baiski","j","5","html-keyboard-response","1209","f","mraba","false","",""
"1679","","","","","5","html-slider-response","1210","","","","1",""
"3587","tissue","lamigas,ugomvi,kisiwa,katika","ugomvi","v","5","html-keyboard-response","1211","f","lamigas","false","",""
"1811","","","","","5","html-slider-response","1212","","","","1",""
"2048","curtain","lisud,mchanga,bulwawan,chubani","mchanga","v","5","html-keyboard-response","1213","v","mchanga","true","",""
"1420","","","","","5","html-slider-response","1214","","","","5",""
"2130","flag","ndege,mkate,trekta,kawa","trekta","j","5","html-keyboard-response","1215","j","trekta","true","",""
"1526","","","","","5","html-slider-response","1216","","","","5",""
"2426","dog","lubi,washia,kalamu,bahari","bahari","n","5","html-keyboard-response","1217","n","bahari","true","",""
"2302","","","","","5","html-slider-response","1218","","","","5",""
"6012","cup","dagat,shimoni,matumai,jeraha","matumai","j","5","html-keyboard-response","1219","j","matumai","true","",""
"1616","","","","","5","html-slider-response","1220","","","","2",""
"1907","sheet","juuya,bililhon,watu,kamantis","bililhon","v","5","html-keyboard-response","1221","v","bililhon","true","",""
"1268","","","","","5","html-slider-response","1222","","","","5",""
"1731","spoon","pagsulod,betri,nzuri,ngazi","pagsulod","f","5","html-keyboard-response","1223","f","pagsulod","true","",""
"2111","","","","","5","html-slider-response","1224","","","","4",""
"2363","flower","tamasha,lobo,bega,usiku","bega","j","5","html-keyboard-response","1225","j","bega","true","",""
"1464","","","","","5","html-slider-response","1226","","","","5",""
"1804","picture","silya,kubwa,chaki,asin","kubwa","v","5","html-keyboard-response","1227","v","kubwa","true","",""
"1264","","","","","5","html-slider-response","1228","","","","5",""
"2394","puppet","napulo,mazishi,lamok,godoro","mazishi","v","5","html-keyboard-response","1229","v","mazishi","true","",""
"1296","","","","","5","html-slider-response","1230","","","","5",""
"2826","banana","kasamok,hagdan,kazi,twai","kazi","j","5","html-keyboard-response","1231","j","kazi","true","",""
"1367","","","","","5","html-slider-response","1232","","","","5",""
"2162","book","kuhesa,picha,mali,mara","mali","j","5","html-keyboard-response","1233","j","mali","true","",""
"1344","","","","","5","html-slider-response","1234","","","","5",""
"1971","triangle","kihozi,bentaha,kasadpan,liog","kasadpan","j","5","html-keyboard-response","1235","j","kasadpan","true","",""
"1447","","","","","5","html-slider-response","1236","","","","5",""
"2011","poster","nchi,fedha,kasuko,madungog","madungog","n","5","html-keyboard-response","1237","n","madungog","true","",""
"1352","","","","","5","html-slider-response","1238","","","","5",""
"1916","box","kuacha,rafiki,adui,kitande","adui","j","5","html-keyboard-response","1239","j","adui","true","",""
"2039","","","","","5","html-slider-response","1240","","","","5",""
"1699","mosquito","isda,taras,gutom,martilyo","martilyo","n","5","html-keyboard-response","1241","n","martilyo","true","",""
"1255","","","","","5","html-slider-response","1242","","","","5",""
"1547","shelf","pamahaw,bungtod,kadaot,awit","pamahaw","f","5","html-keyboard-response","1243","f","pamahaw","true","",""
"1535","","","","","5","html-slider-response","1244","","","","5",""
"1687","scissors","duga,mtawa,tanuri,suga","tanuri","j","5","html-keyboard-response","1245","j","tanuri","true","",""
"1284","","","","","5","html-slider-response","1246","","","","5",""
"1657","hammer","mekno,kitovu,layag,napakyas","napakyas","n","5","html-keyboard-response","1247","n","napakyas","true","",""
"1428","","","","","5","html-slider-response","1248","","","","5",""
