"rt","en_word","options","swa_word","correct_answer","phase","trial_type","trial_index","input_answer","input_word","accuracy","certainty","amt_choices"
"3855","bonfire","mwezi,goti,mfuko,kusanya","goti","v","2","html-keyboard-response","106","v","goti","true","",""
"2991.400000035763","","","","","2","html-slider-response","107","","","","5",""
"14871","flower","tamasha,bega,lobo,usiku","bega","v","2","html-keyboard-response","108","f","tamasha","false","",""
"2445.399999976158","","","","","2","html-slider-response","109","","","","1",""
"5485","column","ufagio,pundok,dila,pala","ufagio","f","2","html-keyboard-response","110","f","ufagio","true","",""
"2214.100000023842","","","","","2","html-slider-response","111","","","","2",""
"5967","music","baiski,mraba,mageho,tumbo","baiski","f","2","html-keyboard-response","112","f","baiski","true","",""
"5406.099999964237","","","","","2","html-slider-response","113","","","","2",""
"6207","spider","kamwe,bunyag,mkboa,atop","kamwe","f","2","html-keyboard-response","114","f","kamwe","true","",""
"1942.699999988079","","","","","2","html-slider-response","115","","","","2",""
"3607","fork","baboy,paghago,gorisi,mgonjwa","mgonjwa","n","2","html-keyboard-response","116","v","paghago","false","",""
"3773.699999988079","","","","","2","html-slider-response","117","","","","2",""
"3864","mosquito","martilyo,isda,taras,gutom","martilyo","f","2","html-keyboard-response","118","n","gutom","false","",""
"1870.300000011921","","","","","2","html-slider-response","119","","","","2",""
"8792","banana","kasamok,kazi,hagdan,twai","kazi","v","2","html-keyboard-response","120","v","kazi","true","",""
"1709.1000000238419","","","","","2","html-slider-response","121","","","","1",""
"3855","cup","dagat,shimoni,jeraha,matumai","matumai","n","2","html-keyboard-response","122","n","matumai","true","",""
"1725.7999999523163","","","","","2","html-slider-response","123","","","","1",""
"5439","shop","samaki,nopya,kerida,ndezu","samaki","f","2","html-keyboard-response","124","f","samaki","true","",""
"1726","","","","","2","html-slider-response","125","","","","1",""
"6031","elephant","petye,pagduol,kito,suka","kito","j","2","html-keyboard-response","126","j","kito","true","",""
"1789.8999999761581","","","","","2","html-slider-response","127","","","","1",""
"7775","bucket","baga,kiatu,ijayo,init","kiatu","v","2","html-keyboard-response","128","v","kiatu","true","",""
"1926.4000000357628","","","","","2","html-slider-response","129","","","","1",""
"6688","book","kuhesa,picha,mara,mali","mali","n","2","html-keyboard-response","130","n","mali","true","",""
"1574.0999999642372","","","","","2","html-slider-response","131","","","","1",""
"6800","mirror","rangi,sulagma,kanding,furaha","sulagma","v","2","html-keyboard-response","132","j","kanding","false","",""
"1612.800000011921","","","","","2","html-slider-response","133","","","","1",""
"4392","office","hazini,leso,yatima,kuna","leso","v","2","html-keyboard-response","134","v","leso","true","",""
"2293","","","","","2","html-slider-response","135","","","","2",""
"8336","body","nyundu,jibini,kununa,tindashan","tindashan","n","2","html-keyboard-response","136","n","tindashan","true","",""
"1485.9000000357628","","","","","2","html-slider-response","137","","","","1",""
"5536","perfume","bino,sungura,katuyoan,ndogo","katuyoan","j","2","html-keyboard-response","138","f","bino","false","",""
"2078.5","","","","","2","html-slider-response","139","","","","1",""
"5512","olive","bata,siagi,jiwe,welder","jiwe","j","2","html-keyboard-response","140","j","jiwe","true","",""
"2078.099999964237","","","","","2","html-slider-response","141","","","","2",""
"5128","magazine","kiti,gundi,mchawi,bahandi","kiti","f","2","html-keyboard-response","142","j","mchawi","false","",""
"1494.300000011921","","","","","2","html-slider-response","143","","","","2",""
"3152","bread","kaili,dari,dizeli,bugas","dari","v","2","html-keyboard-response","144","v","dari","true","",""
"1965.4000000357628","","","","","2","html-slider-response","145","","","","5",""
"7655","cave","ganti,maisha,nyundo,kesho","kesho","n","2","html-keyboard-response","146","n","kesho","true","",""
"1926.1000000238419","","","","","2","html-slider-response","147","","","","5",""
"16241","ladder","mashua,pangalan,mwanga,kamba","pangalan","v","2","html-keyboard-response","148","f","mashua","false","",""
"2660.900000035763","","","","","2","html-slider-response","149","","","","2",""
"7200","human","bado,kikapu,tinapay,punguza","tinapay","j","2","html-keyboard-response","150","f","bado","false","",""
"1941.5","","","","","2","html-slider-response","151","","","","1",""
"4168","clock","kartasi,mbwa,abang,osha","mbwa","v","2","html-keyboard-response","152","v","mbwa","true","",""
"2605.699999988079","","","","","2","html-slider-response","153","","","","2",""
"6176","shelf","bungtod,pamahaw,kadaot,awit","pamahaw","v","2","html-keyboard-response","154","n","awit","false","",""
"1718","","","","","2","html-slider-response","155","","","","1",""
"5424","salmon","mzungu,seri,baharia,sensilyo","sensilyo","n","2","html-keyboard-response","156","n","sensilyo","true","",""
"1661.5999999642372","","","","","2","html-slider-response","157","","","","5",""
"5121","coffin","barua,tubag,kioo,hulma","kioo","j","2","html-keyboard-response","158","j","kioo","true","",""
"5901.399999976158","","","","","2","html-slider-response","159","","","","2",""
"8815","notebook","kemia,msitu,kila,mdudu","kemia","f","2","html-keyboard-response","160","j","kila","false","",""
"1485.9000000357628","","","","","2","html-slider-response","161","","","","2",""
"4815","shoulder","kelele,ndaniya,mkuu,guruwe","mkuu","j","2","html-keyboard-response","162","f","kelele","false","",""
"1839.5","","","","","2","html-slider-response","163","","","","1",""
"6896","park","tambok,bunifu,pwani,ihalas","bunifu","v","2","html-keyboard-response","164","n","ihalas","false","",""
"1493.699999988079","","","","","2","html-slider-response","165","","","","1",""
"5111","number","mundamo,shule,kengele,choori","mundamo","f","2","html-keyboard-response","166","j","kengele","false","",""
"1751.7000000476837","","","","","2","html-slider-response","167","","","","5",""
"6416","apple","kisu,ukame,estante,edad","kisu","f","2","html-keyboard-response","168","n","edad","false","",""
"1493.800000011921","","","","","2","html-slider-response","169","","","","2",""
"9208","letter","filimbi,kifua,chuma,uhuru","kifua","v","2","html-keyboard-response","170","v","kifua","true","",""
"1653.5999999642372","","","","","2","html-slider-response","171","","","","1",""
"5415","eel","ishara,kunywa,msumari,kabuang","msumari","j","2","html-keyboard-response","172","f","ishara","false","",""
"1917.8999999761581","","","","","2","html-slider-response","173","","","","2",""
"7168","cop","mechezo,bustani,jikoni,bakus","mechezo","f","2","html-keyboard-response","174","f","mechezo","true","",""
"2037.800000011921","","","","","2","html-slider-response","175","","","","1",""
"9760","wolf","kaburi,lugha,ndizi,mchuzi","lugha","v","2","html-keyboard-response","176","v","lugha","true","",""
"1477.199999988079","","","","","2","html-slider-response","177","","","","2",""
"5960","squirrel","hofu,mahugaw,ukweli,kichwa","hofu","f","2","html-keyboard-response","178","f","hofu","true","",""
"1742.6000000238419","","","","","2","html-slider-response","179","","","","1",""
"3735","nose","sehemu,gubat,kopa,kidole","sehemu","f","2","html-keyboard-response","180","v","gubat","false","",""
"1741.7999999523163","","","","","2","html-slider-response","181","","","","1",""
"5423","sock","ndoora,kimysa,mtirka,mamba","mamba","n","2","html-keyboard-response","182","j","mtirka","false","",""
"2366.300000011921","","","","","2","html-slider-response","183","","","","1",""
"10097","bank","kudhibi,tualya,ofisi,silingan","silingan","n","2","html-keyboard-response","184","n","silingan","true","",""
"1901.4000000357628","","","","","2","html-slider-response","185","","","","4",""
"4847","donkey","bloke,elfu,lalake,rombus","elfu","v","2","html-keyboard-response","186","v","elfu","true","",""
"1998","","","","","2","html-slider-response","187","","","","5",""
"14633","poster","nchi,madungog,fedha,kasuko","madungog","v","2","html-keyboard-response","188","j","fedha","false","",""
"1981.300000011921","","","","","2","html-slider-response","189","","","","1",""
"3159","puppet","napulo,lamok,mazishi,godoro","mazishi","j","2","html-keyboard-response","190","v","lamok","false","",""
"1461.800000011921","","","","","2","html-slider-response","191","","","","1",""
"6592","hill","matumbo,kushoto,kukimba,sweta","matumbo","f","2","html-keyboard-response","192","j","kukimba","false","",""
"1493.0999999642372","","","","","2","html-slider-response","193","","","","1",""
"2826","tooth","kijiko,uadui,pahiyum,kabalaka","kabalaka","n","2","html-keyboard-response","194","v","uadui","false","",""
"1397.9000000357628","","","","","2","html-slider-response","195","","","","1",""
"6936","woman","bandari,pagtabon,bituin,kovuli","pagtabon","v","2","html-keyboard-response","196","f","bandari","false","",""
"1676.9000000357628","","","","","2","html-slider-response","197","","","","1",""
"2959","wheel","punda,tawo,bafuni,baadaye","bafuni","j","2","html-keyboard-response","198","j","bafuni","true","",""
"1413.5999999642372","","","","","2","html-slider-response","199","","","","1",""
"4608","mother","kahawa,babaye,mbuzi,jokofu","babaye","v","2","html-keyboard-response","200","v","babaye","true","",""
"1541.8999999761581","","","","","2","html-slider-response","201","","","","1",""
"13520","bed","kalipay,haraka,mapintas,starehe","mapintas","j","2","html-keyboard-response","202","j","mapintas","true","",""
"1525.300000011921","","","","","2","html-slider-response","203","","","","1",""
"7624","key","miaka,goma,chombo,ahos","chombo","j","2","html-keyboard-response","204","n","ahos","false","",""
"1422.1000000238419","","","","","2","html-slider-response","205","","","","1",""
"13135","page","wimbo,wakala,ishiri,skina","wimbo","f","2","html-keyboard-response","206","j","ishiri","false","",""
"1693.699999988079","","","","","2","html-slider-response","207","","","","1",""
"7974","pants","pintal,chuki,hari,haki","haki","n","2","html-keyboard-response","208","f","pintal","false","",""
"1325.699999988079","","","","","2","html-slider-response","209","","","","2",""
"9023","sun","bendi,basi,luha,uongo","basi","v","2","html-keyboard-response","210","j","luha","false","",""
"1614","","","","","2","html-slider-response","211","","","","1",""
"4695","finger","simu,sufuria,moyo,lima","moyo","j","2","html-keyboard-response","212","n","lima","false","",""
"1389.9000000357628","","","","","2","html-slider-response","213","","","","1",""
"3104","shoe","nyeusi,uyoga,hatua,kama","uyoga","v","2","html-keyboard-response","214","n","kama","false","",""
"1333.7999999523163","","","","","2","html-slider-response","215","","","","1",""
"6816","giraffe","mahitabo,daraja,jumatu,hangyo","mahitabo","f","2","html-keyboard-response","216","f","mahitabo","true","",""
"1692","","","","","2","html-slider-response","217","","","","1",""
"5216","dog","lubi,bahari,washia,kalamu","bahari","v","2","html-keyboard-response","218","f","lubi","false","",""
"1462","","","","","2","html-slider-response","219","","","","1",""
"7848","box","kuacha,adui,rafiki,kitande","adui","v","2","html-keyboard-response","220","v","adui","true","",""
"1638.1000000238419","","","","","2","html-slider-response","221","","","","4",""
"8058","scissors","duga,tanuri,mtawa,suga","tanuri","v","2","html-keyboard-response","222","j","mtawa","false","",""
"1894.3999999761581","","","","","2","html-slider-response","223","","","","1",""
"3327","cat","neyemba,paghukom,baki,akili","paghukom","v","2","html-keyboard-response","224","n","akili","false","",""
"1517.800000011921","","","","","2","html-slider-response","225","","","","1",""
"7240","basket","kumba,kumbuka,utepe,hasira","kumba","f","2","html-keyboard-response","226","v","kumbuka","false","",""
"1557.800000011921","","","","","2","html-slider-response","227","","","","1",""
"11064","snake","jansa,pagtukod,karon,mvringo","pagtukod","v","2","html-keyboard-response","228","f","jansa","false","",""
"1557.6000000238419","","","","","2","html-slider-response","229","","","","1",""
"7991","gift","baba,nyange,baso,pagtawag","pagtawag","n","2","html-keyboard-response","230","j","baso","false","",""
"1605.800000011921","","","","","2","html-slider-response","231","","","","1",""
"7463","train","sayari,itik,dakika,mungu","sayari","f","2","html-keyboard-response","232","n","mungu","false","",""
"1934.199999988079","","","","","2","html-slider-response","233","","","","1",""
"3271","pudding","abug,mpishi,iring,aibu","aibu","n","2","html-keyboard-response","234","v","mpishi","false","",""
"1334.300000011921","","","","","2","html-slider-response","235","","","","1",""
"9131","tomato","chupi,mvua,chupa,takatak","mvua","v","2","html-keyboard-response","236","n","takatak","false","",""
"1965.699999988079","","","","","2","html-slider-response","237","","","","1",""
"4455","stone","ulimwengu,mkasi,asili,wingi","wingi","n","2","html-keyboard-response","238","v","mkasi","false","",""
"1837.5999999642372","","","","","2","html-slider-response","239","","","","1",""
"4968","hammer","mekno,kitovu,napakyas,layag","napakyas","j","2","html-keyboard-response","240","f","mekno","false","",""
"1622.199999988079","","","","","2","html-slider-response","241","","","","1",""
"2335","knee","duka,mvuke,kubale,bili","duka","f","2","html-keyboard-response","242","n","bili","false","",""
"1534.4000000357628","","","","","2","html-slider-response","243","","","","1",""
"3615","ceiling","kugita,kawaida,maua,rayna","maua","j","2","html-keyboard-response","244","v","kawaida","false","",""
"1501.8999999761581","","","","","2","html-slider-response","245","","","","1",""
"3488","spoon","betri,nzuri,pagsulod,ngazi","pagsulod","j","2","html-keyboard-response","246","f","betri","false","",""
"1750.4000000357628","","","","","2","html-slider-response","247","","","","1",""
"2007","marker","mapafu,salita,maji,atay","maji","j","2","html-keyboard-response","248","j","maji","true","",""
"1525.6000000238419","","","","","2","html-slider-response","249","","","","1",""
"4552","candle","gabi,farasi,geza,kupanda","geza","j","2","html-keyboard-response","250","v","farasi","false","",""
"1429.800000011921","","","","","2","html-slider-response","251","","","","1",""
"3608","tissue","ugomvi,lamigas,kisiwa,katika","ugomvi","f","2","html-keyboard-response","252","n","katika","false","",""
"1485.300000011921","","","","","2","html-slider-response","253","","","","1",""
"4112","bridge","sahani,daima,ngono,panya","sahani","f","2","html-keyboard-response","254","n","panya","false","",""
"1741.300000011921","","","","","2","html-slider-response","255","","","","2",""
"8168","berry","abogado,kofia,nogozi,kinywa","kofia","v","2","html-keyboard-response","256","v","kofia","true","",""
"1733.300000011921","","","","","2","html-slider-response","257","","","","4",""
"31170","triangle","kihozi,bentaha,kasadpan,liog","kasadpan","j","2","html-keyboard-response","258","f","kihozi","false","",""
"1597.699999988079","","","","","2","html-slider-response","259","","","","1",""
"5184","door","tena,soko,surali,nyota","surali","j","2","html-keyboard-response","260","n","nyota","false","",""
"1606.3999999761581","","","","","2","html-slider-response","261","","","","1",""
"3303","fish","bala,baho,imani,buli","buli","n","2","html-keyboard-response","262","v","baho","false","",""
"1406.0999999642372","","","","","2","html-slider-response","263","","","","1",""
"4767","curtain","mchanga,lisud,bulwawan,chubani","mchanga","f","2","html-keyboard-response","264","f","mchanga","true","",""
"1582.2999999523163","","","","","2","html-slider-response","265","","","","2",""
"2640","flag","ndege,mkate,kawa,trekta","trekta","n","2","html-keyboard-response","266","n","trekta","true","",""
"1749.699999988079","","","","","2","html-slider-response","267","","","","1",""
"4912","boat","hamsi,pombe,kitanda,agalon","agalon","n","2","html-keyboard-response","268","n","agalon","true","",""
"1646.5","","","","","2","html-slider-response","269","","","","1",""
"16199","rose","singizi,mwanake,amani,paghalad","paghalad","n","2","html-keyboard-response","270","v","mwanake","false","",""
"1389.3999999761581","","","","","2","html-slider-response","271","","","","1",""
"7327","lamp","afya,daub,bilaska,mbolea","afya","f","2","html-keyboard-response","272","j","bilaska","false","",""
"1694.199999988079","","","","","2","html-slider-response","273","","","","2",""
"3983","cigar","adhabu,ndugu,kuta,mlango","adhabu","f","2","html-keyboard-response","274","v","ndugu","false","",""
"1413.800000011921","","","","","2","html-slider-response","275","","","","1",""
"5319","list","alizeti,kuzama,kaso,wingu","wingu","n","2","html-keyboard-response","276","n","wingu","true","",""
"1541.800000011921","","","","","2","html-slider-response","277","","","","4",""
"5783","sheet","juuya,watu,kamantis,bililhon","bililhon","n","2","html-keyboard-response","278","j","kamantis","false","",""
"1886.199999988079","","","","","2","html-slider-response","279","","","","1",""
"5969","picture","kubwa,silya,chaki,asin","kubwa","f","2","html-keyboard-response","280","f","kubwa","true","",""
"1261.300000011921","","","","","2","html-slider-response","281","","","","1",""
"5448","towel","tembo,funzi,pito,pagpalit","pagpalit","n","2","html-keyboard-response","282","n","pagpalit","true","",""
"1542","","","","","2","html-slider-response","283","","","","2",""
"4351","window","nanga,kujenga,kweli,umaga","kweli","j","2","html-keyboard-response","284","n","umaga","false","",""
"1621.699999988079","","","","","2","html-slider-response","285","","","","1",""
"6870","box","adui,kuacha,rafiki,kitande","adui","f","3","html-keyboard-response","293","f","adui","true","","4"
"4197.799999952316","","","","","3","html-slider-response","294","","","","4",""
"2742","","","","","3","html-keyboard-response","295","","","","",""
"4735","pants","pintal,chuki,haki,hari","haki","j","3","html-keyboard-response","296","f","pintal","false","","4"
"1821.5999999642372","","","","","3","html-slider-response","297","","","","2",""
"2824","","","","","3","html-keyboard-response","298","","","","",""
"4840","cup","dagat,shimoni,matumai,jeraha","matumai","j","3","html-keyboard-response","299","j","matumai","true","","4"
"1741.5","","","","","3","html-slider-response","300","","","","1",""
"3479","","","","","3","html-keyboard-response","301","","","","",""
"5550","triangle","kihozi,bentaha,liog,kasadpan","kasadpan","n","3","html-keyboard-response","302","j","liog","false","","4"
"1645.5","","","","","3","html-slider-response","303","","","","1",""
"5071","","","","","3","html-keyboard-response","304","","","","",""
"3270","curtain","lisud,bulwawan,chubani,mchanga","mchanga","n","3","html-keyboard-response","305","v","bulwawan","false","","4"
"1309.5","","","","","3","html-slider-response","306","","","","1",""
"5088","","","","","3","html-keyboard-response","307","","","","",""
"8390","clock","kartasi,abang,osha,mbwa","mbwa","n","3","html-keyboard-response","308","n","mbwa","true","","4"
"1853.800000011921","","","","","3","html-slider-response","309","","","","1",""
"7311","","","","","3","html-keyboard-response","310","","","","",""
"4966","mirror","sulagma,rangi,kanding,furaha","sulagma","f","3","html-keyboard-response","311","f","sulagma","true","","4"
"1845.6000000238419","","","","","3","html-slider-response","312","","","","1",""
"3775","","","","","3","html-keyboard-response","313","","","","",""
"4990","coffin","barua,tubag,hulma,kioo","kioo","n","3","html-keyboard-response","314","n","kioo","true","","1"
"1798","","","","","3","html-slider-response","315","","","","5",""
"1551","","","","","3","html-keyboard-response","316","","","","",""
"6727","magazine","kiti,gundi,mchawi,bahandi","kiti","f","3","html-keyboard-response","317","j","mchawi","false","","4"
"3093.599999964237","","","","","3","html-slider-response","318","","","","1",""
"2470","","","","","3","html-keyboard-response","319","","","","",""
"4926","column","pundok,dila,ufagio,pala","ufagio","j","3","html-keyboard-response","320","j","ufagio","true","","1"
"1814","","","","","3","html-slider-response","321","","","","5",""
"1751","","","","","3","html-keyboard-response","322","","","","",""
"5838","number","shule,kengele,mundamo,choori","mundamo","j","3","html-keyboard-response","323","j","mundamo","true","","4"
"2110.5","","","","","3","html-slider-response","324","","","","5",""
"2543","","","","","3","html-keyboard-response","325","","","","",""
"7999","rose","singizi,paghalad,mwanake,amani","paghalad","v","3","html-keyboard-response","326","j","mwanake","false","","4"
"1494","","","","","3","html-slider-response","327","","","","1",""
"4016","","","","","3","html-keyboard-response","328","","","","",""
"4997","eel","msumari,ishara,kunywa,kabuang","msumari","f","3","html-keyboard-response","329","f","msumari","true","","4"
"1750.199999988079","","","","","3","html-slider-response","330","","","","1",""
"3799","","","","","3","html-keyboard-response","331","","","","",""
"5110","gift","baba,nyange,baso,pagtawag","pagtawag","n","3","html-keyboard-response","332","n","pagtawag","true","","4"
"1694","","","","","3","html-slider-response","333","","","","1",""
"2736","","","","","3","html-keyboard-response","334","","","","",""
"7990","apple","ukame,kisu,estante,edad","kisu","v","3","html-keyboard-response","335","v","kisu","true","","1"
"1693.5","","","","","3","html-slider-response","336","","","","5",""
"1111","","","","","3","html-keyboard-response","337","","","","",""
"5118","wheel","punda,tawo,baadaye,bafuni","bafuni","n","3","html-keyboard-response","338","n","bafuni","true","","1"
"1502.1000000238419","","","","","3","html-slider-response","339","","","","5",""
"1375","","","","","3","html-keyboard-response","340","","","","",""
"4950","knee","duka,mvuke,kubale,bili","duka","f","3","html-keyboard-response","341","v","mvuke","false","","4"
"1830","","","","","3","html-slider-response","342","","","","1",""
"2095","","","","","3","html-keyboard-response","343","","","","",""
"3142","basket","kumbuka,kumba,utepe,hasira","kumba","v","3","html-keyboard-response","344","v","kumba","true","","1"
"1581.3999999761581","","","","","3","html-slider-response","345","","","","5",""
"2024","","","","","3","html-keyboard-response","346","","","","",""
"5312","park","tambok,pwani,bunifu,ihalas","bunifu","j","3","html-keyboard-response","347","f","tambok","false","","4"
"1950","","","","","3","html-slider-response","348","","","","1",""
"2352","","","","","3","html-keyboard-response","349","","","","",""
"3933","finger","simu,moyo,sufuria,lima","moyo","v","3","html-keyboard-response","350","n","lima","false","","4"
"1670.5","","","","","3","html-slider-response","351","","","","1",""
"1727","","","","","3","html-keyboard-response","352","","","","",""
"7351","boat","hamsi,pombe,kitanda,agalon","agalon","n","3","html-keyboard-response","353","n","agalon","true","","4"
"1653.7999999523163","","","","","3","html-slider-response","354","","","","1",""
"3016","","","","","3","html-keyboard-response","355","","","","",""
"5677","hill","matumbo,kushoto,kukimba,sweta","matumbo","f","3","html-keyboard-response","356","n","sweta","false","","4"
"1462.0999999642372","","","","","3","html-slider-response","357","","","","1",""
"3279","","","","","3","html-keyboard-response","358","","","","",""
"5527","train","sayari,itik,dakika,mungu","sayari","f","3","html-keyboard-response","359","j","dakika","false","","4"
"1486","","","","","3","html-slider-response","360","","","","1",""
"3840","","","","","3","html-keyboard-response","361","","","","",""
"4773","wolf","kaburi,lugha,ndizi,mchuzi","lugha","v","3","html-keyboard-response","362","v","lugha","true","","4"
"1543.6000000238419","","","","","3","html-slider-response","363","","","","1",""
"4208","","","","","3","html-keyboard-response","364","","","","",""
"5006","snake","pagtukod,jansa,karon,mvringo","pagtukod","f","3","html-keyboard-response","365","v","jansa","false","","4"
"1566.300000011921","","","","","3","html-slider-response","366","","","","1",""
"3647","","","","","3","html-keyboard-response","367","","","","",""
"4286","tooth","kijiko,uadui,kabalaka,pahiyum","kabalaka","j","3","html-keyboard-response","368","v","uadui","false","","4"
"1574.5","","","","","3","html-slider-response","369","","","","1",""
"3311","","","","","3","html-keyboard-response","370","","","","",""
"2719","notebook","msitu,kila,mdudu,kemia","kemia","n","3","html-keyboard-response","371","v","kila","false","","4"
"3078.199999988079","","","","","3","html-slider-response","372","","","","4",""
"4904","","","","","3","html-keyboard-response","373","","","","",""
"7191","flag","trekta,ndege,mkate,kawa","trekta","f","3","html-keyboard-response","374","f","trekta","true","","4"
"1613.2000000476837","","","","","3","html-slider-response","375","","","","5",""
"3463","","","","","3","html-keyboard-response","376","","","","",""
"3742","squirrel","mahugaw,hofu,ukweli,kichwa","hofu","v","3","html-keyboard-response","377","n","kichwa","false","","4"
"1511.300000011921","","","","","3","html-slider-response","378","","","","2",""
"3207","","","","","3","html-keyboard-response","379","","","","",""
"4375","door","tena,surali,soko,nyota","surali","v","3","html-keyboard-response","380","v","surali","true","","4"
"1382.300000011921","","","","","3","html-slider-response","381","","","","1",""
"2143","","","","","3","html-keyboard-response","382","","","","",""
"4791","salmon","sensilyo,mzungu,seri,baharia","sensilyo","f","3","html-keyboard-response","383","f","sensilyo","true","","4"
"1749.699999988079","","","","","3","html-slider-response","384","","","","5",""
"1071","","","","","3","html-keyboard-response","385","","","","",""
"3438","shoulder","kelele,ndaniya,guruwe,mkuu","mkuu","n","3","html-keyboard-response","386","v","ndaniya","false","","4"
"1220.9000000357628","","","","","3","html-slider-response","387","","","","1",""
"2720","","","","","3","html-keyboard-response","388","","","","",""
"4277","lamp","afya,daub,bilaska,mbolea","afya","f","3","html-keyboard-response","389","f","afya","true","","4"
"1734.0999999642372","","","","","3","html-slider-response","390","","","","1",""
"2720","","","","","3","html-keyboard-response","391","","","","",""
"4991","shelf","bungtod,kadaot,awit,pamahaw","pamahaw","n","3","html-keyboard-response","392","n","pamahaw","true","","1"
"1837.9000000357628","","","","","3","html-slider-response","393","","","","5",""
"1327","","","","","3","html-keyboard-response","394","","","","",""
"4758","human","bado,kikapu,punguza,tinapay","tinapay","n","3","html-keyboard-response","395","j","punguza","false","","4"
"1358.5999999642372","","","","","3","html-slider-response","396","","","","1",""
"2615","","","","","3","html-keyboard-response","397","","","","",""
"4655","towel","tembo,pagpalit,funzi,pito","pagpalit","v","3","html-keyboard-response","398","v","pagpalit","true","","4"
"1470.5","","","","","3","html-slider-response","399","","","","1",""
"1303","","","","","3","html-keyboard-response","400","","","","",""
"2703","cat","neyemba,baki,akili,paghukom","paghukom","n","3","html-keyboard-response","401","v","baki","false","","4"
"2270.300000011921","","","","","3","html-slider-response","402","","","","1",""
"2399","","","","","3","html-keyboard-response","403","","","","",""
"4782","spider","bunyag,mkboa,kamwe,atop","kamwe","j","3","html-keyboard-response","404","f","bunyag","false","","4"
"1789.9000000357628","","","","","3","html-slider-response","405","","","","1",""
"2655","","","","","3","html-keyboard-response","406","","","","",""
"3598","window","kweli,nanga,kujenga,umaga","kweli","f","3","html-keyboard-response","407","f","kweli","true","","4"
"1414","","","","","3","html-slider-response","408","","","","1",""
"2176","","","","","3","html-keyboard-response","409","","","","",""
"5135","woman","bandari,pagtabon,bituin,kovuli","pagtabon","v","3","html-keyboard-response","410","v","pagtabon","true","","1"
"1782.0999999642372","","","","","3","html-slider-response","411","","","","5",""
"1111","","","","","3","html-keyboard-response","412","","","","",""
"4214","giraffe","mahitabo,daraja,jumatu,hangyo","mahitabo","f","3","html-keyboard-response","413","f","mahitabo","true","","4"
"1421.3999999761581","","","","","3","html-slider-response","414","","","","1",""
"3207","","","","","3","html-keyboard-response","415","","","","",""
"5382","elephant","petye,pagduol,kito,suka","kito","j","3","html-keyboard-response","416","v","pagduol","false","","4"
"1661.800000011921","","","","","3","html-slider-response","417","","","","1",""
"4375","","","","","3","html-keyboard-response","418","","","","",""
"2822","cave","ganti,maisha,kesho,nyundo","kesho","j","3","html-keyboard-response","419","j","kesho","true","","4"
"1438","","","","","3","html-slider-response","420","","","","5",""
"1863","","","","","3","html-keyboard-response","421","","","","",""
"2614","bread","dari,kaili,dizeli,bugas","dari","f","3","html-keyboard-response","422","f","dari","true","","4"
"1614.3999999761581","","","","","3","html-slider-response","423","","","","5",""
"1456","","","","","3","html-keyboard-response","424","","","","",""
"9391","stone","wingi,ulimwengu,mkasi,asili","wingi","f","3","html-keyboard-response","425","f","wingi","true","","4"
"2429.300000011921","","","","","3","html-slider-response","426","","","","2",""
"4728","","","","","3","html-keyboard-response","427","","","","",""
"3526","donkey","elfu,bloke,lalake,rombus","elfu","f","3","html-keyboard-response","428","f","elfu","true","","4"
"1678.1000000238419","","","","","3","html-slider-response","429","","","","5",""
"1999","","","","","3","html-keyboard-response","430","","","","",""
"4943","bridge","sahani,daima,ngono,panya","sahani","f","3","html-keyboard-response","431","f","sahani","true","","4"
"1630.199999988079","","","","","3","html-slider-response","432","","","","2",""
"1863","","","","","3","html-keyboard-response","433","","","","",""
"2919","bonfire","mwezi,mfuko,kusanya,goti","goti","n","3","html-keyboard-response","434","n","goti","true","","4"
"1773.3999999761581","","","","","3","html-slider-response","435","","","","5",""
"1686","","","","","3","html-keyboard-response","436","","","","",""
"4383","book","kuhesa,picha,mali,mara","mali","j","3","html-keyboard-response","437","v","picha","false","","4"
"1270.5","","","","","3","html-slider-response","438","","","","2",""
"1728","","","","","3","html-keyboard-response","439","","","","",""
"3678","fish","bala,baho,buli,imani","buli","j","3","html-keyboard-response","440","n","imani","false","","4"
"1461.800000011921","","","","","3","html-slider-response","441","","","","2",""
"1864","","","","","3","html-keyboard-response","442","","","","",""
"3846","spoon","pagsulod,betri,nzuri,ngazi","pagsulod","f","3","html-keyboard-response","443","n","ngazi","false","","4"
"2374","","","","","3","html-slider-response","444","","","","1",""
"2695","","","","","3","html-keyboard-response","445","","","","",""
"2462","scissors","tanuri,duga,mtawa,suga","tanuri","f","3","html-keyboard-response","446","v","duga","false","","4"
"1455","","","","","3","html-slider-response","447","","","","1",""
"1943","","","","","3","html-keyboard-response","448","","","","",""
"2607","page","wimbo,wakala,ishiri,skina","wimbo","f","3","html-keyboard-response","449","f","wimbo","true","","4"
"1222","","","","","3","html-slider-response","450","","","","4",""
"2000","","","","","3","html-keyboard-response","451","","","","",""
"4238","nose","gubat,kopa,sehemu,kidole","sehemu","j","3","html-keyboard-response","452","j","sehemu","true","","1"
"1685.5","","","","","3","html-slider-response","453","","","","5",""
"1127","","","","","3","html-keyboard-response","454","","","","",""
"5519","ceiling","kugita,kawaida,maua,rayna","maua","j","3","html-keyboard-response","455","f","kugita","false","","4"
"1398.5999999642372","","","","","3","html-slider-response","456","","","","1",""
"4104","","","","","3","html-keyboard-response","457","","","","",""
"5046","bucket","kiatu,baga,ijayo,init","kiatu","f","3","html-keyboard-response","458","v","baga","false","","4"
"1069.800000011921","","","","","3","html-slider-response","459","","","","2",""
"3544","","","","","3","html-keyboard-response","460","","","","",""
"4238","berry","abogado,kofia,nogozi,kinywa","kofia","v","3","html-keyboard-response","461","v","kofia","true","","1"
"1524.699999988079","","","","","3","html-slider-response","462","","","","5",""
"1295","","","","","3","html-keyboard-response","463","","","","",""
"5382","mother","kahawa,mbuzi,jokofu,babaye","babaye","n","3","html-keyboard-response","464","n","babaye","true","","1"
"1677.800000011921","","","","","3","html-slider-response","465","","","","5",""
"2495","","","","","3","html-keyboard-response","466","","","","",""
"6735","mosquito","isda,martilyo,taras,gutom","martilyo","v","3","html-keyboard-response","467","v","martilyo","true","","4"
"1693.7999999523163","","","","","3","html-slider-response","468","","","","2",""
"3431","","","","","3","html-keyboard-response","469","","","","",""
"5006","perfume","bino,sungura,ndogo,katuyoan","katuyoan","n","3","html-keyboard-response","470","v","sungura","false","","4"
"1181.8999999761581","","","","","3","html-slider-response","471","","","","2",""
"2919","","","","","3","html-keyboard-response","472","","","","",""
"3839","sheet","juuya,watu,bililhon,kamantis","bililhon","j","3","html-keyboard-response","473","v","watu","false","","4"
"2190.399999976158","","","","","3","html-slider-response","474","","","","1",""
"2087","","","","","3","html-keyboard-response","475","","","","",""
"5062","puppet","napulo,mazishi,lamok,godoro","mazishi","v","3","html-keyboard-response","476","v","mazishi","true","","1"
"2134","","","","","3","html-slider-response","477","","","","5",""
"1135","","","","","3","html-keyboard-response","478","","","","",""
"3934","poster","madungog,nchi,fedha,kasuko","madungog","f","3","html-keyboard-response","479","v","nchi","false","","4"
"1198.4000000357628","","","","","3","html-slider-response","480","","","","2",""
"4104","","","","","3","html-keyboard-response","481","","","","",""
"4206","music","mraba,baiski,mageho,tumbo","baiski","v","3","html-keyboard-response","482","v","baiski","true","","4"
"1461.800000011921","","","","","3","html-slider-response","483","","","","4",""
"4624","","","","","3","html-keyboard-response","484","","","","",""
"6118","key","chombo,miaka,goma,ahos","chombo","f","3","html-keyboard-response","485","n","ahos","false","","4"
"1877.300000011921","","","","","3","html-slider-response","486","","","","1",""
"2695","","","","","3","html-keyboard-response","487","","","","",""
"3382","sock","ndoora,mamba,kimysa,mtirka","mamba","v","3","html-keyboard-response","488","v","mamba","true","","4"
"1181.7999999523163","","","","","3","html-slider-response","489","","","","2",""
"2423","","","","","3","html-keyboard-response","490","","","","",""
"6055","marker","mapafu,salita,maji,atay","maji","j","3","html-keyboard-response","491","f","mapafu","false","","4"
"1389.5999999642372","","","","","3","html-slider-response","492","","","","1",""
"1576","","","","","3","html-keyboard-response","493","","","","",""
"4086","office","hazini,leso,yatima,kuna","leso","v","3","html-keyboard-response","494","v","leso","true","","4"
"1414.1000000238419","","","","","3","html-slider-response","495","","","","5",""
"2879","","","","","3","html-keyboard-response","496","","","","",""
"5374","shoe","nyeusi,uyoga,hatua,kama","uyoga","v","3","html-keyboard-response","497","j","hatua","false","","4"
"1622.699999988079","","","","","3","html-slider-response","498","","","","1",""
"1975","","","","","3","html-keyboard-response","499","","","","",""
"5118","cop","bustani,mechezo,jikoni,bakus","mechezo","v","3","html-keyboard-response","500","v","mechezo","true","","4"
"1461.9000000357628","","","","","3","html-slider-response","501","","","","1",""
"3376","","","","","3","html-keyboard-response","502","","","","",""
"2478","bank","kudhibi,tualya,silingan,ofisi","silingan","j","3","html-keyboard-response","503","n","ofisi","false","","4"
"1214.6000000238419","","","","","3","html-slider-response","504","","","","5",""
"7191","","","","","3","html-keyboard-response","505","","","","",""
"6519","letter","filimbi,chuma,kifua,uhuru","kifua","j","3","html-keyboard-response","506","j","kifua","true","","1"
"1974.1000000238419","","","","","3","html-slider-response","507","","","","5",""
"9204","","","","","3","html-keyboard-response","508","","","","",""
"8872","dog","lubi,washia,bahari,kalamu","bahari","j","3","html-keyboard-response","509","j","bahari","true","","1"
"7613.900000035763","","","","","3","html-slider-response","510","","","","5",""
"17928","","","","","3","html-keyboard-response","511","","","","",""
"16262","shop","nopya,samaki,kerida,ndezu","samaki","v","3","html-keyboard-response","512","v","samaki","true","","4"
"2710.099999964237","","","","","3","html-slider-response","513","","","","1",""
"2127","","","","","3","html-keyboard-response","514","","","","",""
"49619","flower","tamasha,bega,lobo,usiku","bega","v","3","html-keyboard-response","515","j","lobo","false","","4"
"2029.2000000476837","","","","","3","html-slider-response","516","","","","1",""
"2903","","","","","3","html-keyboard-response","517","","","","",""
"6175","cigar","ndugu,kuta,adhabu,mlango","adhabu","j","3","html-keyboard-response","518","j","adhabu","true","","1"
"1581.3999999761581","","","","","3","html-slider-response","519","","","","5",""
"2663","","","","","3","html-keyboard-response","520","","","","",""
"5800","hammer","mekno,kitovu,layag,napakyas","napakyas","n","3","html-keyboard-response","521","f","mekno","false","","4"
"1798.4000000357628","","","","","3","html-slider-response","522","","","","1",""
"4175","","","","","3","html-keyboard-response","523","","","","",""
"45542","fork","mgonjwa,baboy,paghago,gorisi","mgonjwa","f","3","html-keyboard-response","524","n","gorisi","false","","4"
"2038.199999988079","","","","","3","html-slider-response","525","","","","1",""
"2679","","","","","3","html-keyboard-response","526","","","","",""
"2911","sun","bendi,luha,uongo,basi","basi","n","3","html-keyboard-response","527","n","basi","true","","1"
"1134.5","","","","","3","html-slider-response","528","","","","5",""
"1495","","","","","3","html-keyboard-response","529","","","","",""
"4014","ladder","mashua,mwanga,pangalan,kamba","pangalan","j","3","html-keyboard-response","530","n","kamba","false","","4"
"1694.3999999761581","","","","","3","html-slider-response","531","","","","1",""
"3079","","","","","3","html-keyboard-response","532","","","","",""
"2847","banana","kasamok,hagdan,kazi,twai","kazi","j","3","html-keyboard-response","533","j","kazi","true","","1"
"1245.0999999642372","","","","","3","html-slider-response","534","","","","5",""
"991","","","","","3","html-keyboard-response","535","","","","",""
"5182","pudding","abug,mpishi,aibu,iring","aibu","j","3","html-keyboard-response","536","j","aibu","true","","4"
"1358.199999988079","","","","","3","html-slider-response","537","","","","1",""
"1224","","","","","3","html-keyboard-response","538","","","","",""
"4799","body","nyundu,tindashan,jibini,kununa","tindashan","v","3","html-keyboard-response","539","v","tindashan","true","","4"
"2037.5999999642372","","","","","3","html-slider-response","540","","","","1",""
"2735","","","","","3","html-keyboard-response","541","","","","",""
"5167","bed","kalipay,haraka,starehe,mapintas","mapintas","n","3","html-keyboard-response","542","n","mapintas","true","","4"
"1197.6000000238419","","","","","3","html-slider-response","543","","","","1",""
"1000","","","","","3","html-keyboard-response","544","","","","",""
"9198","tissue","lamigas,kisiwa,katika,ugomvi","ugomvi","n","3","html-keyboard-response","545","j","katika","false","","4"
"1494","","","","","3","html-slider-response","546","","","","1",""
"3857","","","","","3","html-keyboard-response","547","","","","",""
"4014","candle","gabi,geza,farasi,kupanda","geza","v","3","html-keyboard-response","548","v","geza","true","","4"
"1245.4000000357628","","","","","3","html-slider-response","549","","","","1",""
"1144","","","","","3","html-keyboard-response","550","","","","",""
"8591","tomato","chupi,chupa,mvua,takatak","mvua","j","3","html-keyboard-response","551","j","mvua","true","","1"
"1541.3999999761581","","","","","3","html-slider-response","552","","","","5",""
"1735","","","","","3","html-keyboard-response","553","","","","",""
"18696","list","alizeti,kuzama,wingu,kaso","wingu","j","3","html-keyboard-response","554","j","wingu","true","","4"
"1485.2999999523163","","","","","3","html-slider-response","555","","","","5",""
"1023","","","","","3","html-keyboard-response","556","","","","",""
"4735","olive","bata,jiwe,siagi,welder","jiwe","v","3","html-keyboard-response","557","j","siagi","false","","4"
"1461.7999999523163","","","","","3","html-slider-response","558","","","","1",""
"3752","","","","","3","html-keyboard-response","559","","","","",""
"3990","picture","silya,chaki,asin,kubwa","kubwa","n","3","html-keyboard-response","560","n","kubwa","true","","1"
"2109.399999976158","","","","","3","html-slider-response","561","","","","5",""
"1341","","","","","3","html-keyboard-response","562","","","","",""
"5066","page","wakala,wimbo,ishiri,skina","wimbo","v","4","html-keyboard-response","888","v","wimbo","true","",""
"1726.199999988079","","","","","4","html-slider-response","889","","","","5",""
"5816","sheet","juuya,watu,bililhon,kamantis","bililhon","j","4","html-keyboard-response","890","j","bililhon","true","",""
"1853.6000000238419","","","","","4","html-slider-response","891","","","","2",""
"7144","ladder","mashua,pangalan,mwanga,kamba","pangalan","v","4","html-keyboard-response","892","n","kamba","false","",""
"1318.6000000238419","","","","","4","html-slider-response","893","","","","1",""
"6631","door","surali,tena,soko,nyota","surali","f","4","html-keyboard-response","894","f","surali","true","",""
"1485.800000011921","","","","","4","html-slider-response","895","","","","4",""
"3456","spider","bunyag,mkboa,atop,kamwe","kamwe","n","4","html-keyboard-response","896","n","kamwe","true","",""
"1269.6000000238419","","","","","4","html-slider-response","897","","","","5",""
"7207","picture","silya,chaki,kubwa,asin","kubwa","j","4","html-keyboard-response","898","j","kubwa","true","",""
"1149.9000000357628","","","","","4","html-slider-response","899","","","","2",""
"5632","boat","hamsi,pombe,agalon,kitanda","agalon","j","4","html-keyboard-response","900","j","agalon","true","",""
"1277.2999999523163","","","","","4","html-slider-response","901","","","","5",""
"2552","donkey","bloke,elfu,lalake,rombus","elfu","v","4","html-keyboard-response","902","v","elfu","true","",""
"1517.199999988079","","","","","4","html-slider-response","903","","","","5",""
"5672","book","kuhesa,picha,mali,mara","mali","j","4","html-keyboard-response","904","j","mali","true","",""
"2013.1000000238419","","","","","4","html-slider-response","905","","","","4",""
"7239","cup","dagat,matumai,shimoni,jeraha","matumai","v","4","html-keyboard-response","906","v","matumai","true","",""
"1174.1000000238419","","","","","4","html-slider-response","907","","","","2",""
"4303","sun","bendi,luha,uongo,basi","basi","n","4","html-keyboard-response","908","n","basi","true","",""
"1382.3999999761581","","","","","4","html-slider-response","909","","","","5",""
"6479","pudding","aibu,abug,mpishi,iring","aibu","f","4","html-keyboard-response","910","f","aibu","true","",""
"1613.8999999761581","","","","","4","html-slider-response","911","","","","2",""
"3407","human","bado,kikapu,punguza,tinapay","tinapay","n","4","html-keyboard-response","912","n","tinapay","true","",""
"1333.699999988079","","","","","4","html-slider-response","913","","","","2",""
"7312","squirrel","mahugaw,ukweli,hofu,kichwa","hofu","j","4","html-keyboard-response","914","j","hofu","true","",""
"1309.4000000357628","","","","","4","html-slider-response","915","","","","2",""
"3807","park","bunifu,tambok,pwani,ihalas","bunifu","f","4","html-keyboard-response","916","f","bunifu","true","",""
"2712.800000011921","","","","","4","html-slider-response","917","","","","1",""
"4360","poster","nchi,fedha,madungog,kasuko","madungog","j","4","html-keyboard-response","918","v","fedha","false","",""
"1316.8999999761581","","","","","4","html-slider-response","919","","","","1",""
"4151","wolf","lugha,kaburi,ndizi,mchuzi","lugha","f","4","html-keyboard-response","920","f","lugha","true","",""
"2285.800000011921","","","","","4","html-slider-response","921","","","","5",""
"4328","cat","neyemba,baki,paghukom,akili","paghukom","j","4","html-keyboard-response","922","v","baki","false","",""
"1685.5999999642372","","","","","4","html-slider-response","923","","","","2",""
"2599","fish","bala,baho,imani,buli","buli","n","4","html-keyboard-response","924","n","buli","true","",""
"1357.800000011921","","","","","4","html-slider-response","925","","","","5",""
"4991","tooth","kabalaka,kijiko,uadui,pahiyum","kabalaka","f","4","html-keyboard-response","926","j","uadui","false","",""
"1445.3999999761581","","","","","4","html-slider-response","927","","","","2",""
"2023","cave","ganti,maisha,nyundo,kesho","kesho","n","4","html-keyboard-response","928","n","kesho","true","",""
"1478","","","","","4","html-slider-response","929","","","","5",""
"3399","lamp","daub,bilaska,afya,mbolea","afya","j","4","html-keyboard-response","930","j","afya","true","",""
"1478.2999999523163","","","","","4","html-slider-response","931","","","","4",""
"2728","banana","kasamok,kazi,hagdan,twai","kazi","v","4","html-keyboard-response","932","v","kazi","true","",""
"1149.1000000238419","","","","","4","html-slider-response","933","","","","5",""
"2240","bonfire","mwezi,mfuko,goti,kusanya","goti","j","4","html-keyboard-response","934","j","goti","true","",""
"1590.4000000357628","","","","","4","html-slider-response","935","","","","5",""
"3104","cop","bustani,jikoni,mechezo,bakus","mechezo","j","4","html-keyboard-response","936","j","mechezo","true","",""
"1214.0999999642372","","","","","4","html-slider-response","937","","","","5",""
"10255","marker","mapafu,salita,atay,maji","maji","n","4","html-keyboard-response","938","n","maji","true","",""
"1109.5999999642372","","","","","4","html-slider-response","939","","","","4",""
"6559","window","nanga,kujenga,umaga,kweli","kweli","n","4","html-keyboard-response","940","j","umaga","false","",""
"1206.199999988079","","","","","4","html-slider-response","941","","","","2",""
"6968","body","nyundu,tindashan,jibini,kununa","tindashan","v","4","html-keyboard-response","942","v","tindashan","true","",""
"1269","","","","","4","html-slider-response","943","","","","2",""
"2647","apple","ukame,estante,kisu,edad","kisu","j","4","html-keyboard-response","944","j","kisu","true","",""
"1758.0999999642372","","","","","4","html-slider-response","945","","","","5",""
"3047","salmon","sensilyo,mzungu,seri,baharia","sensilyo","f","4","html-keyboard-response","946","f","sensilyo","true","",""
"1229.8999999761581","","","","","4","html-slider-response","947","","","","5",""
"5480","bed","kalipay,haraka,mapintas,starehe","mapintas","j","4","html-keyboard-response","948","j","mapintas","true","",""
"1365.9000000357628","","","","","4","html-slider-response","949","","","","4",""
"2767","berry","kofia,abogado,nogozi,kinywa","kofia","f","4","html-keyboard-response","950","f","kofia","true","",""
"1478","","","","","4","html-slider-response","951","","","","5",""
"5904","mirror","rangi,sulagma,kanding,furaha","sulagma","v","4","html-keyboard-response","952","v","sulagma","true","",""
"1197.9000000357628","","","","","4","html-slider-response","953","","","","4",""
"3144","flag","ndege,trekta,mkate,kawa","trekta","v","4","html-keyboard-response","954","v","trekta","true","",""
"1597.4000000357628","","","","","4","html-slider-response","955","","","","5",""
"4184","shoulder","kelele,mkuu,ndaniya,guruwe","mkuu","v","4","html-keyboard-response","956","v","mkuu","true","",""
"1276.9000000357628","","","","","4","html-slider-response","957","","","","5",""
"9953","tissue","ugomvi,lamigas,kisiwa,katika","ugomvi","f","4","html-keyboard-response","958","n","katika","false","",""
"1293.199999988079","","","","","4","html-slider-response","959","","","","2",""
"6583","notebook","msitu,kila,mdudu,kemia","kemia","n","4","html-keyboard-response","960","n","kemia","true","",""
"1166","","","","","4","html-slider-response","961","","","","4",""
"3838","snake","jansa,pagtukod,karon,mvringo","pagtukod","v","4","html-keyboard-response","962","v","pagtukod","true","",""
"1126.199999988079","","","","","4","html-slider-response","963","","","","5",""
"4360","finger","moyo,simu,sufuria,lima","moyo","f","4","html-keyboard-response","964","f","moyo","true","",""
"1012.6000000238419","","","","","4","html-slider-response","965","","","","4",""
"4768","basket","kumbuka,utepe,hasira,kumba","kumba","n","4","html-keyboard-response","966","f","kumbuka","false","",""
"2589.300000011921","","","","","4","html-slider-response","967","","","","2",""
"5912","curtain","mchanga,lisud,bulwawan,chubani","mchanga","f","4","html-keyboard-response","968","n","chubani","false","",""
"1125.699999988079","","","","","4","html-slider-response","969","","","","2",""
"5744","perfume","katuyoan,bino,sungura,ndogo","katuyoan","f","4","html-keyboard-response","970","f","katuyoan","true","",""
"1381.2999999523163","","","","","4","html-slider-response","971","","","","5",""
"4231","key","miaka,chombo,goma,ahos","chombo","v","4","html-keyboard-response","972","v","chombo","true","",""
"1261.699999988079","","","","","4","html-slider-response","973","","","","5",""
"2792","olive","bata,jiwe,siagi,welder","jiwe","v","4","html-keyboard-response","974","v","jiwe","true","",""
"1293.699999988079","","","","","4","html-slider-response","975","","","","5",""
"4865","rose","singizi,mwanake,paghalad,amani","paghalad","j","4","html-keyboard-response","976","j","paghalad","true","",""
"1117.199999988079","","","","","4","html-slider-response","977","","","","5",""
"7776","bridge","daima,ngono,panya,sahani","sahani","n","4","html-keyboard-response","978","f","daima","false","",""
"1773.8999999761581","","","","","4","html-slider-response","979","","","","2",""
"6256","hill","kushoto,matumbo,kukimba,sweta","matumbo","v","4","html-keyboard-response","980","v","matumbo","true","",""
"1141.9000000357628","","","","","4","html-slider-response","981","","","","4",""
"4880","letter","filimbi,chuma,uhuru,kifua","kifua","n","4","html-keyboard-response","982","n","kifua","true","",""
"1269.699999988079","","","","","4","html-slider-response","983","","","","4",""
"3217","sock","ndoora,kimysa,mamba,mtirka","mamba","j","4","html-keyboard-response","984","j","mamba","true","",""
"1076.0999999642372","","","","","4","html-slider-response","985","","","","4",""
"4816","fork","mgonjwa,baboy,paghago,gorisi","mgonjwa","f","4","html-keyboard-response","986","j","paghago","false","",""
"1676.5","","","","","4","html-slider-response","987","","","","1",""
"2280","box","kuacha,adui,rafiki,kitande","adui","v","4","html-keyboard-response","988","v","adui","true","",""
"1581.6000000238419","","","","","4","html-slider-response","989","","","","5",""
"4848","gift","baba,pagtawag,nyange,baso","pagtawag","v","4","html-keyboard-response","990","v","pagtawag","true","",""
"1221.3999999761581","","","","","4","html-slider-response","991","","","","5",""
"6248","bucket","baga,ijayo,kiatu,init","kiatu","j","4","html-keyboard-response","992","j","kiatu","true","",""
"2390.5","","","","","4","html-slider-response","993","","","","3",""
"7727","shop","nopya,kerida,samaki,ndezu","samaki","j","4","html-keyboard-response","994","j","samaki","true","",""
"1317.800000011921","","","","","4","html-slider-response","995","","","","1",""
"6144","puppet","mazishi,napulo,lamok,godoro","mazishi","f","4","html-keyboard-response","996","n","godoro","false","",""
"1181.800000011921","","","","","4","html-slider-response","997","","","","2",""
"3200","nose","gubat,kopa,sehemu,kidole","sehemu","j","4","html-keyboard-response","998","v","kopa","false","",""
"2133.900000035763","","","","","4","html-slider-response","999","","","","1",""
"2799","music","mraba,baiski,mageho,tumbo","baiski","v","4","html-keyboard-response","1000","v","baiski","true","",""
"1230.699999988079","","","","","4","html-slider-response","1001","","","","5",""
"6216","dog","bahari,lubi,washia,kalamu","bahari","f","4","html-keyboard-response","1002","v","lubi","false","",""
"2477.399999976158","","","","","4","html-slider-response","1003","","","","3",""
"6455","eel","ishara,msumari,kunywa,kabuang","msumari","v","4","html-keyboard-response","1004","v","msumari","true","",""
"1439.300000011921","","","","","4","html-slider-response","1005","","","","2",""
"3240","number","shule,kengele,mundamo,choori","mundamo","j","4","html-keyboard-response","1006","j","mundamo","true","",""
"1173.0999999642372","","","","","4","html-slider-response","1007","","","","5",""
"4960","tomato","chupi,chupa,mvua,takatak","mvua","j","4","html-keyboard-response","1008","j","mvua","true","",""
"1293.2999999523163","","","","","4","html-slider-response","1009","","","","5",""
"2951","coffin","kioo,barua,tubag,hulma","kioo","f","4","html-keyboard-response","1010","f","kioo","true","",""
"1773.699999988079","","","","","4","html-slider-response","1011","","","","5",""
"9487","knee","mvuke,kubale,duka,bili","duka","j","4","html-keyboard-response","1012","f","mvuke","false","",""
"1813.5999999642372","","","","","4","html-slider-response","1013","","","","3",""
"7352","woman","pagtabon,bandari,bituin,kovuli","pagtabon","f","4","html-keyboard-response","1014","f","pagtabon","true","",""
"1077.5","","","","","4","html-slider-response","1015","","","","4",""
"5279","stone","ulimwengu,mkasi,asili,wingi","wingi","n","4","html-keyboard-response","1016","n","wingi","true","",""
"1517.7000000476837","","","","","4","html-slider-response","1017","","","","3",""
"3480","bread","kaili,dizeli,dari,bugas","dari","j","4","html-keyboard-response","1018","j","dari","true","",""
"1925.4000000357628","","","","","4","html-slider-response","1019","","","","5",""
"2849","triangle","kasadpan,kihozi,bentaha,liog","kasadpan","f","4","html-keyboard-response","1020","v","kihozi","false","",""
"1197.699999988079","","","","","4","html-slider-response","1021","","","","1",""
"2967","scissors","duga,mtawa,tanuri,suga","tanuri","j","4","html-keyboard-response","1022","f","duga","false","",""
"998.1999999880791","","","","","4","html-slider-response","1023","","","","2",""
"3639","giraffe","daraja,jumatu,hangyo,mahitabo","mahitabo","n","4","html-keyboard-response","1024","n","mahitabo","true","",""
"1373.699999988079","","","","","4","html-slider-response","1025","","","","4",""
"4992","flower","tamasha,lobo,usiku,bega","bega","n","4","html-keyboard-response","1026","n","bega","true","",""
"1189.5999999642372","","","","","4","html-slider-response","1027","","","","2",""
"3416","candle","gabi,farasi,kupanda,geza","geza","n","4","html-keyboard-response","1028","v","farasi","false","",""
"1245.199999988079","","","","","4","html-slider-response","1029","","","","1",""
"6616","mother","babaye,kahawa,mbuzi,jokofu","babaye","f","4","html-keyboard-response","1030","f","babaye","true","",""
"1406.1000000238419","","","","","4","html-slider-response","1031","","","","4",""
"4287","towel","pagpalit,tembo,funzi,pito","pagpalit","f","4","html-keyboard-response","1032","v","tembo","false","",""
"1422.3999999761581","","","","","4","html-slider-response","1033","","","","2",""
"3984","elephant","petye,kito,pagduol,suka","kito","v","4","html-keyboard-response","1034","v","kito","true","",""
"1333","","","","","4","html-slider-response","1035","","","","4",""
"4919","shelf","bungtod,kadaot,awit,pamahaw","pamahaw","n","4","html-keyboard-response","1036","j","awit","false","",""
"2230.5","","","","","4","html-slider-response","1037","","","","3",""
"2719","mosquito","isda,taras,gutom,martilyo","martilyo","n","4","html-keyboard-response","1038","n","martilyo","true","",""
"1262.199999988079","","","","","4","html-slider-response","1039","","","","5",""
"4591","column","pundok,dila,ufagio,pala","ufagio","j","4","html-keyboard-response","1040","j","ufagio","true","",""
"2125.7000000476837","","","","","4","html-slider-response","1041","","","","5",""
"6383","pants","pintal,haki,chuki,hari","haki","v","4","html-keyboard-response","1042","n","hari","false","",""
"1773.3999999761581","","","","","4","html-slider-response","1043","","","","3",""
"3320","list","alizeti,kuzama,wingu,kaso","wingu","j","4","html-keyboard-response","1044","j","wingu","true","",""
"1277.9000000357628","","","","","4","html-slider-response","1045","","","","5",""
"3216","bank","kudhibi,silingan,tualya,ofisi","silingan","v","4","html-keyboard-response","1046","v","silingan","true","",""
"1333.9000000357628","","","","","4","html-slider-response","1047","","","","5",""
"3223","clock","kartasi,mbwa,abang,osha","mbwa","v","4","html-keyboard-response","1048","v","mbwa","true","",""
"1231.1000000238419","","","","","4","html-slider-response","1049","","","","4",""
"3126","ceiling","kugita,kawaida,maua,rayna","maua","j","4","html-keyboard-response","1050","j","maua","true","",""
"2389.400000035763","","","","","4","html-slider-response","1051","","","","3",""
"4791","train","itik,sayari,dakika,mungu","sayari","v","4","html-keyboard-response","1052","v","sayari","true","",""
"1158.5","","","","","4","html-slider-response","1053","","","","5",""
"2983","magazine","gundi,mchawi,kiti,bahandi","kiti","j","4","html-keyboard-response","1054","j","kiti","true","",""
"2444.899999976158","","","","","4","html-slider-response","1055","","","","3",""
"2976","office","hazini,yatima,kuna,leso","leso","n","4","html-keyboard-response","1056","n","leso","true","",""
"1414.0999999642372","","","","","4","html-slider-response","1057","","","","5",""
"2670","wheel","bafuni,punda,tawo,baadaye","bafuni","f","4","html-keyboard-response","1058","f","bafuni","true","",""
"2029.699999988079","","","","","4","html-slider-response","1059","","","","2",""
"3272","spoon","pagsulod,betri,nzuri,ngazi","pagsulod","f","4","html-keyboard-response","1060","f","pagsulod","true","",""
"1357.6000000238419","","","","","4","html-slider-response","1061","","","","2",""
"4135","hammer","napakyas,mekno,kitovu,layag","napakyas","f","4","html-keyboard-response","1062","v","mekno","false","",""
"1902.0999999642372","","","","","4","html-slider-response","1063","","","","3",""
"6632","cigar","ndugu,adhabu,kuta,mlango","adhabu","v","4","html-keyboard-response","1064","v","adhabu","true","",""
"1644.7000000476837","","","","","4","html-slider-response","1065","","","","3",""
"4751","shoe","nyeusi,hatua,uyoga,kama","uyoga","j","4","html-keyboard-response","1066","v","hatua","false","",""
"2726.2999999523163","","","","","4","html-slider-response","1067","","","","2",""
"4208","list","alizeti,wingu,kuzama,kaso","wingu","v","5","html-keyboard-response","1069","v","wingu","true","",""
"1470.9000000357628","","","","","5","html-slider-response","1070","","","","5",""
"2710","number","mundamo,shule,kengele,choori","mundamo","f","5","html-keyboard-response","1071","f","mundamo","true","",""
"1566.199999988079","","","","","5","html-slider-response","1072","","","","5",""
"5312","apple","ukame,estante,kisu,edad","kisu","j","5","html-keyboard-response","1073","j","kisu","true","",""
"1206.300000011921","","","","","5","html-slider-response","1074","","","","5",""
"3416","knee","mvuke,duka,kubale,bili","duka","v","5","html-keyboard-response","1075","f","mvuke","false","",""
"1581.5","","","","","5","html-slider-response","1076","","","","3",""
"3936","tooth","kabalaka,kijiko,uadui,pahiyum","kabalaka","f","5","html-keyboard-response","1077","v","kijiko","false","",""
"2669.5","","","","","5","html-slider-response","1078","","","","2",""
"2479","berry","abogado,nogozi,kofia,kinywa","kofia","j","5","html-keyboard-response","1079","j","kofia","true","",""
"1614.800000011921","","","","","5","html-slider-response","1080","","","","5",""
"6727","bridge","daima,sahani,ngono,panya","sahani","v","5","html-keyboard-response","1081","v","sahani","true","",""
"1021.5","","","","","5","html-slider-response","1082","","","","2",""
"2631","perfume","katuyoan,bino,sungura,ndogo","katuyoan","f","5","html-keyboard-response","1083","f","katuyoan","true","",""
"1157.5","","","","","5","html-slider-response","1084","","","","5",""
"7424","ladder","pangalan,mashua,mwanga,kamba","pangalan","f","5","html-keyboard-response","1085","j","mwanga","false","",""
"1093.8999999761581","","","","","5","html-slider-response","1086","","","","2",""
"2400","pants","haki,pintal,chuki,hari","haki","f","5","html-keyboard-response","1087","n","hari","false","",""
"1077.6000000238419","","","","","5","html-slider-response","1088","","","","2",""
"2480","salmon","mzungu,seri,sensilyo,baharia","sensilyo","j","5","html-keyboard-response","1089","j","sensilyo","true","",""
"1294","","","","","5","html-slider-response","1090","","","","5",""
"2063","coffin","barua,tubag,hulma,kioo","kioo","n","5","html-keyboard-response","1091","n","kioo","true","",""
"1374.300000011921","","","","","5","html-slider-response","1092","","","","5",""
"4096","park","tambok,bunifu,pwani,ihalas","bunifu","v","5","html-keyboard-response","1093","v","bunifu","true","",""
"1029.6000000238419","","","","","5","html-slider-response","1094","","","","2",""
"4440","giraffe","mahitabo,daraja,jumatu,hangyo","mahitabo","f","5","html-keyboard-response","1095","f","mahitabo","true","",""
"1310.3999999761581","","","","","5","html-slider-response","1096","","","","5",""
"3488","mirror","rangi,kanding,furaha,sulagma","sulagma","n","5","html-keyboard-response","1097","n","sulagma","true","",""
"2341.800000011921","","","","","5","html-slider-response","1098","","","","3",""
"2870","ceiling","kugita,kawaida,maua,rayna","maua","j","5","html-keyboard-response","1099","j","maua","true","",""
"2581.900000035763","","","","","5","html-slider-response","1100","","","","3",""
"6017","marker","mapafu,salita,atay,maji","maji","n","5","html-keyboard-response","1101","n","maji","true","",""
"2148.800000011921","","","","","5","html-slider-response","1102","","","","3",""
"3639","sock","ndoora,kimysa,mtirka,mamba","mamba","n","5","html-keyboard-response","1103","n","mamba","true","",""
"1694.5","","","","","5","html-slider-response","1104","","","","3",""
"2095","cop","bustani,jikoni,bakus,mechezo","mechezo","n","5","html-keyboard-response","1105","n","mechezo","true","",""
"1150.199999988079","","","","","5","html-slider-response","1106","","","","5",""
"3592","gift","baba,pagtawag,nyange,baso","pagtawag","v","5","html-keyboard-response","1107","v","pagtawag","true","",""
"1085","","","","","5","html-slider-response","1108","","","","5",""
"4807","notebook","msitu,kila,mdudu,kemia","kemia","n","5","html-keyboard-response","1109","n","kemia","true","",""
"1046.199999988079","","","","","5","html-slider-response","1110","","","","4",""
"2511","bank","kudhibi,tualya,ofisi,silingan","silingan","n","5","html-keyboard-response","1111","n","silingan","true","",""
"1238.199999988079","","","","","5","html-slider-response","1112","","","","5",""
"5702","letter","filimbi,chuma,kifua,uhuru","kifua","j","5","html-keyboard-response","1113","j","kifua","true","",""
"1286.7999999523163","","","","","5","html-slider-response","1114","","","","5",""
"7224","candle","gabi,geza,farasi,kupanda","geza","v","5","html-keyboard-response","1115","n","kupanda","false","",""
"2517.600000023842","","","","","5","html-slider-response","1116","","","","1",""
"1759","bread","kaili,dizeli,dari,bugas","dari","j","5","html-keyboard-response","1117","j","dari","true","",""
"1141.699999988079","","","","","5","html-slider-response","1118","","","","5",""
"3190","snake","jansa,pagtukod,karon,mvringo","pagtukod","v","5","html-keyboard-response","1119","v","pagtukod","true","",""
"1231","","","","","5","html-slider-response","1120","","","","4",""
"4920","rose","singizi,mwanake,amani,paghalad","paghalad","n","5","html-keyboard-response","1121","n","paghalad","true","",""
"1365.4000000357628","","","","","5","html-slider-response","1122","","","","5",""
"2688","hill","kushoto,kukimba,sweta,matumbo","matumbo","n","5","html-keyboard-response","1123","n","matumbo","true","",""
"1357.300000011921","","","","","5","html-slider-response","1124","","","","5",""
"3111","train","itik,dakika,sayari,mungu","sayari","j","5","html-keyboard-response","1125","j","sayari","true","",""
"1070","","","","","5","html-slider-response","1126","","","","5",""
"5199","shop","nopya,samaki,kerida,ndezu","samaki","v","5","html-keyboard-response","1127","v","samaki","true","",""
"2109.800000011921","","","","","5","html-slider-response","1128","","","","1",""
"5967","nose","gubat,sehemu,kopa,kidole","sehemu","v","5","html-keyboard-response","1129","j","kopa","false","",""
"1605.6000000238419","","","","","5","html-slider-response","1130","","","","1",""
"2784","boat","hamsi,pombe,kitanda,agalon","agalon","n","5","html-keyboard-response","1131","n","agalon","true","",""
"1094.5","","","","","5","html-slider-response","1132","","","","5",""
"3487","body","nyundu,tindashan,jibini,kununa","tindashan","v","5","html-keyboard-response","1133","v","tindashan","true","",""
"1862.699999988079","","","","","5","html-slider-response","1134","","","","2",""
"3247","bed","kalipay,haraka,mapintas,starehe","mapintas","j","5","html-keyboard-response","1135","j","mapintas","true","",""
"1118.199999988079","","","","","5","html-slider-response","1136","","","","4",""
"4215","squirrel","hofu,mahugaw,ukweli,kichwa","hofu","f","5","html-keyboard-response","1137","n","kichwa","false","",""
"1558","","","","","5","html-slider-response","1138","","","","2",""
"8055","window","nanga,kujenga,umaga,kweli","kweli","n","5","html-keyboard-response","1139","j","umaga","false","",""
"1342.7000000476837","","","","","5","html-slider-response","1140","","","","2",""
"2415","bonfire","goti,mwezi,mfuko,kusanya","goti","f","5","html-keyboard-response","1141","f","goti","true","",""
"1414.5","","","","","5","html-slider-response","1142","","","","5",""
"2135","fish","bala,buli,baho,imani","buli","v","5","html-keyboard-response","1143","v","buli","true","",""
"1286.2999999523163","","","","","5","html-slider-response","1144","","","","5",""
"10592","cat","neyemba,baki,akili,paghukom","paghukom","n","5","html-keyboard-response","1145","n","paghukom","true","",""
"1029.699999988079","","","","","5","html-slider-response","1146","","","","2",""
"5111","spider","bunyag,mkboa,kamwe,atop","kamwe","j","5","html-keyboard-response","1147","j","kamwe","true","",""
"1718.0999999642372","","","","","5","html-slider-response","1148","","","","3",""
"4079","eel","ishara,kunywa,kabuang,msumari","msumari","n","5","html-keyboard-response","1149","n","msumari","true","",""
"997.6999999880791","","","","","5","html-slider-response","1150","","","","2",""
"3127","woman","bandari,pagtabon,bituin,kovuli","pagtabon","v","5","html-keyboard-response","1151","v","pagtabon","true","",""
"949.4000000357628","","","","","5","html-slider-response","1152","","","","4",""
"4055","magazine","kiti,gundi,mchawi,bahandi","kiti","f","5","html-keyboard-response","1153","f","kiti","true","",""
"1229.5999999642372","","","","","5","html-slider-response","1154","","","","5",""
"2959","pudding","abug,mpishi,iring,aibu","aibu","n","5","html-keyboard-response","1155","n","aibu","true","",""
"1030.2000000476837","","","","","5","html-slider-response","1156","","","","4",""
"3896","lamp","daub,bilaska,mbolea,afya","afya","n","5","html-keyboard-response","1157","n","afya","true","",""
"1021.8000000119209","","","","","5","html-slider-response","1158","","","","5",""
"3543","cave","kesho,ganti,maisha,nyundo","kesho","f","5","html-keyboard-response","1159","f","kesho","true","",""
"1437.7000000476837","","","","","5","html-slider-response","1160","","","","5",""
"3176","shoulder","mkuu,kelele,ndaniya,guruwe","mkuu","f","5","html-keyboard-response","1161","f","mkuu","true","",""
"1069.699999988079","","","","","5","html-slider-response","1162","","","","5",""
"6400","stone","ulimwengu,mkasi,asili,wingi","wingi","n","5","html-keyboard-response","1163","n","wingi","true","",""
"1709.1000000238419","","","","","5","html-slider-response","1164","","","","3",""
"2288","column","pundok,dila,pala,ufagio","ufagio","n","5","html-keyboard-response","1165","n","ufagio","true","",""
"1453.800000011921","","","","","5","html-slider-response","1166","","","","5",""
"4527","page","wimbo,wakala,ishiri,skina","wimbo","f","5","html-keyboard-response","1167","f","wimbo","true","",""
"1349.9000000357628","","","","","5","html-slider-response","1168","","","","5",""
"5415","shoe","uyoga,nyeusi,hatua,kama","uyoga","f","5","html-keyboard-response","1169","j","hatua","false","",""
"1046","","","","","5","html-slider-response","1170","","","","2",""
"3439","clock","kartasi,abang,mbwa,osha","mbwa","j","5","html-keyboard-response","1171","j","mbwa","true","",""
"1605.3999999761581","","","","","5","html-slider-response","1172","","","","5",""
"9056","towel","tembo,pagpalit,funzi,pito","pagpalit","v","5","html-keyboard-response","1173","j","funzi","false","",""
"1133.4000000357628","","","","","5","html-slider-response","1174","","","","1",""
"3991","tomato","chupi,chupa,takatak,mvua","mvua","n","5","html-keyboard-response","1175","n","mvua","true","",""
"1574","","","","","5","html-slider-response","1176","","","","5",""
"3984","bucket","kiatu,baga,ijayo,init","kiatu","f","5","html-keyboard-response","1177","f","kiatu","true","",""
"1533","","","","","5","html-slider-response","1178","","","","3",""
"3328","finger","moyo,simu,sufuria,lima","moyo","f","5","html-keyboard-response","1179","f","moyo","true","",""
"965.4000000357628","","","","","5","html-slider-response","1180","","","","4",""
"2792","mother","kahawa,babaye,mbuzi,jokofu","babaye","v","5","html-keyboard-response","1181","v","babaye","true","",""
"1815","","","","","5","html-slider-response","1182","","","","5",""
"3103","human","bado,kikapu,punguza,tinapay","tinapay","n","5","html-keyboard-response","1183","n","tinapay","true","",""
"1613.9000000357628","","","","","5","html-slider-response","1184","","","","2",""
"3688","sun","bendi,luha,uongo,basi","basi","n","5","html-keyboard-response","1185","v","luha","false","",""
"2229.800000011921","","","","","5","html-slider-response","1186","","","","5",""
"5711","fork","baboy,mgonjwa,paghago,gorisi","mgonjwa","v","5","html-keyboard-response","1187","j","paghago","false","",""
"1157.8999999761581","","","","","5","html-slider-response","1188","","","","2",""
"2048","donkey","bloke,elfu,lalake,rombus","elfu","v","5","html-keyboard-response","1189","v","elfu","true","",""
"1246.1000000238419","","","","","5","html-slider-response","1190","","","","5",""
"2639","wolf","kaburi,ndizi,mchuzi,lugha","lugha","n","5","html-keyboard-response","1191","n","lugha","true","",""
"1565.5","","","","","5","html-slider-response","1192","","","","5",""
"4575","cigar","ndugu,kuta,adhabu,mlango","adhabu","j","5","html-keyboard-response","1193","j","adhabu","true","",""
"1214.300000011921","","","","","5","html-slider-response","1194","","","","4",""
"3327","olive","bata,siagi,jiwe,welder","jiwe","j","5","html-keyboard-response","1195","j","jiwe","true","",""
"1357.800000011921","","","","","5","html-slider-response","1196","","","","5",""
"5048","key","chombo,miaka,goma,ahos","chombo","f","5","html-keyboard-response","1197","f","chombo","true","",""
"1757.4000000357628","","","","","5","html-slider-response","1198","","","","4",""
"3607","door","surali,tena,soko,nyota","surali","f","5","html-keyboard-response","1199","f","surali","true","",""
"1374","","","","","5","html-slider-response","1200","","","","5",""
"3016","wheel","punda,tawo,bafuni,baadaye","bafuni","j","5","html-keyboard-response","1201","f","punda","false","",""
"1037.699999988079","","","","","5","html-slider-response","1202","","","","2",""
"6639","basket","kumbuka,kumba,utepe,hasira","kumba","v","5","html-keyboard-response","1203","v","kumba","true","",""
"2877.199999988079","","","","","5","html-slider-response","1204","","","","2",""
"4400","elephant","petye,kito,pagduol,suka","kito","v","5","html-keyboard-response","1205","v","kito","true","",""
"1173.9000000357628","","","","","5","html-slider-response","1206","","","","2",""
"4135","office","hazini,leso,yatima,kuna","leso","v","5","html-keyboard-response","1207","v","leso","true","",""
"1101.1000000238419","","","","","5","html-slider-response","1208","","","","5",""
"2592","music","mraba,mageho,baiski,tumbo","baiski","j","5","html-keyboard-response","1209","j","baiski","true","",""
"1382.1000000238419","","","","","5","html-slider-response","1210","","","","5",""
"7767","tissue","lamigas,kisiwa,katika,ugomvi","ugomvi","n","5","html-keyboard-response","1211","j","katika","false","",""
"1326.300000011921","","","","","5","html-slider-response","1212","","","","2",""
"4119","curtain","mchanga,lisud,bulwawan,chubani","mchanga","f","5","html-keyboard-response","1213","f","mchanga","true","",""
"1310.199999988079","","","","","5","html-slider-response","1214","","","","2",""
"2359","flag","trekta,ndege,mkate,kawa","trekta","f","5","html-keyboard-response","1215","f","trekta","true","",""
"1189.800000011921","","","","","5","html-slider-response","1216","","","","5",""
"5575","dog","lubi,washia,kalamu,bahari","bahari","n","5","html-keyboard-response","1217","f","lubi","false","",""
"1485.6000000238419","","","","","5","html-slider-response","1218","","","","2",""
"8096","cup","dagat,shimoni,matumai,jeraha","matumai","j","5","html-keyboard-response","1219","j","matumai","true","",""
"1357.8999999761581","","","","","5","html-slider-response","1220","","","","2",""
"4319","sheet","juuya,bililhon,watu,kamantis","bililhon","v","5","html-keyboard-response","1221","v","bililhon","true","",""
"949.1999999880791","","","","","5","html-slider-response","1222","","","","2",""
"4471","spoon","betri,pagsulod,nzuri,ngazi","pagsulod","v","5","html-keyboard-response","1223","v","pagsulod","true","",""
"1461.199999988079","","","","","5","html-slider-response","1224","","","","1",""
"7159","flower","tamasha,lobo,bega,usiku","bega","j","5","html-keyboard-response","1225","n","usiku","false","",""
"1718.699999988079","","","","","5","html-slider-response","1226","","","","1",""
"4688","picture","silya,chaki,kubwa,asin","kubwa","j","5","html-keyboard-response","1227","j","kubwa","true","",""
"1563.699999988079","","","","","5","html-slider-response","1228","","","","1",""
"4008","puppet","napulo,lamok,godoro,mazishi","mazishi","n","5","html-keyboard-response","1229","v","lamok","false","",""
"1261.800000011921","","","","","5","html-slider-response","1230","","","","1",""
"1919","banana","kasamok,hagdan,twai,kazi","kazi","n","5","html-keyboard-response","1231","n","kazi","true","",""
"1094.2000000476837","","","","","5","html-slider-response","1232","","","","5",""
"4063","book","mali,kuhesa,picha,mara","mali","f","5","html-keyboard-response","1233","f","mali","true","",""
"1174.0999999642372","","","","","5","html-slider-response","1234","","","","5",""
"5119","triangle","kihozi,bentaha,kasadpan,liog","kasadpan","j","5","html-keyboard-response","1235","f","kihozi","false","",""
"1557.5","","","","","5","html-slider-response","1236","","","","1",""
"4831","poster","nchi,fedha,kasuko,madungog","madungog","n","5","html-keyboard-response","1237","f","nchi","false","",""
"1126.5999999642372","","","","","5","html-slider-response","1238","","","","2",""
"1992","box","kuacha,adui,rafiki,kitande","adui","v","5","html-keyboard-response","1239","v","adui","true","",""
"1350.4000000357628","","","","","5","html-slider-response","1240","","","","5",""
"3047","mosquito","martilyo,isda,taras,gutom","martilyo","f","5","html-keyboard-response","1241","f","martilyo","true","",""
"1350.1000000238419","","","","","5","html-slider-response","1242","","","","5",""
"4127","shelf","bungtod,pamahaw,kadaot,awit","pamahaw","v","5","html-keyboard-response","1243","j","kadaot","false","",""
"1061.699999988079","","","","","5","html-slider-response","1244","","","","2",""
"4239","scissors","duga,mtawa,tanuri,suga","tanuri","j","5","html-keyboard-response","1245","v","mtawa","false","",""
"1950.5","","","","","5","html-slider-response","1246","","","","2",""
"3415","hammer","napakyas,mekno,kitovu,layag","napakyas","f","5","html-keyboard-response","1247","v","mekno","false","",""
"1550","","","","","5","html-slider-response","1248","","","","3",""
