"rt","en_word","options","swa_word","correct_answer","phase","trial_type","trial_index","input_answer","input_word","accuracy","certainty","amt_choices"
"8033","bonfire","goti,mwezi,mfuko,kusanya","goti","f","2","html-keyboard-response","106","f","goti","true","",""
"7390.5","","","","","2","html-slider-response","107","","","","2",""
"4633","flower","tamasha,lobo,bega,usiku","bega","j","2","html-keyboard-response","108","n","usiku","false","",""
"3104.2999999988824","","","","","2","html-slider-response","109","","","","2",""
"3834","column","ufagio,pundok,dila,pala","ufagio","f","2","html-keyboard-response","110","v","pundok","false","",""
"2216","","","","","2","html-slider-response","111","","","","2",""
"5972","music","mraba,mageho,baiski,tumbo","baiski","j","2","html-keyboard-response","112","j","baiski","true","",""
"5275.5999999996275","","","","","2","html-slider-response","113","","","","3",""
"5657","spider","bunyag,kamwe,mkboa,atop","kamwe","v","2","html-keyboard-response","114","v","kamwe","true","",""
"4218.200000001118","","","","","2","html-slider-response","115","","","","3",""
"5758","fork","baboy,paghago,mgonjwa,gorisi","mgonjwa","j","2","html-keyboard-response","116","f","baboy","false","",""
"3183.5","","","","","2","html-slider-response","117","","","","3",""
"2990","mosquito","martilyo,isda,taras,gutom","martilyo","f","2","html-keyboard-response","118","f","martilyo","true","",""
"2260.7000000011176","","","","","2","html-slider-response","119","","","","5",""
"6220","banana","kasamok,hagdan,kazi,twai","kazi","j","2","html-keyboard-response","120","j","kazi","true","",""
"2394.300000000745","","","","","2","html-slider-response","121","","","","5",""
"5262","cup","dagat,shimoni,jeraha,matumai","matumai","n","2","html-keyboard-response","122","n","matumai","true","",""
"3385.800000000745","","","","","2","html-slider-response","123","","","","3",""
"11237","shop","samaki,nopya,kerida,ndezu","samaki","f","2","html-keyboard-response","124","j","kerida","false","",""
"3970.699999999255","","","","","2","html-slider-response","125","","","","3",""
"3610","elephant","kito,petye,pagduol,suka","kito","f","2","html-keyboard-response","126","f","kito","true","",""
"3521.0999999996275","","","","","2","html-slider-response","127","","","","5",""
"3362","bucket","kiatu,baga,ijayo,init","kiatu","f","2","html-keyboard-response","128","f","kiatu","true","",""
"2351.0999999996275","","","","","2","html-slider-response","129","","","","4",""
"2844","book","kuhesa,picha,mara,mali","mali","n","2","html-keyboard-response","130","n","mali","true","",""
"2756.2999999988824","","","","","2","html-slider-response","131","","","","5",""
"3519","mirror","sulagma,rangi,kanding,furaha","sulagma","f","2","html-keyboard-response","132","f","sulagma","true","",""
"2126.2000000011176","","","","","2","html-slider-response","133","","","","5",""
"2968","office","hazini,yatima,leso,kuna","leso","j","2","html-keyboard-response","134","j","leso","true","",""
"2070","","","","","2","html-slider-response","135","","","","5",""
"3497","body","tindashan,nyundu,jibini,kununa","tindashan","f","2","html-keyboard-response","136","f","tindashan","true","",""
"3104.5999999996275","","","","","2","html-slider-response","137","","","","5",""
"5050","perfume","katuyoan,bino,sungura,ndogo","katuyoan","f","2","html-keyboard-response","138","j","sungura","false","",""
"3453.2999999988824","","","","","2","html-slider-response","139","","","","3",""
"2382","olive","bata,siagi,jiwe,welder","jiwe","j","2","html-keyboard-response","140","j","jiwe","true","",""
"2170.7999999988824","","","","","2","html-slider-response","141","","","","5",""
"7006","magazine","kiti,gundi,mchawi,bahandi","kiti","f","2","html-keyboard-response","142","f","kiti","true","",""
"4296.799999998882","","","","","2","html-slider-response","143","","","","3",""
"7547","bread","kaili,dizeli,dari,bugas","dari","j","2","html-keyboard-response","144","j","dari","true","",""
"2418","","","","","2","html-slider-response","145","","","","2",""
"6354","cave","ganti,kesho,maisha,nyundo","kesho","v","2","html-keyboard-response","146","v","kesho","true","",""
"2192.9000000003725","","","","","2","html-slider-response","147","","","","4",""
"4363","ladder","mashua,pangalan,mwanga,kamba","pangalan","v","2","html-keyboard-response","148","v","pangalan","true","",""
"3003.0999999996275","","","","","2","html-slider-response","149","","","","3",""
"3148","human","tinapay,bado,kikapu,punguza","tinapay","f","2","html-keyboard-response","150","f","tinapay","true","",""
"1901","","","","","2","html-slider-response","151","","","","5",""
"4948","clock","kartasi,mbwa,abang,osha","mbwa","v","2","html-keyboard-response","152","v","mbwa","true","",""
"1777.4000000003725","","","","","2","html-slider-response","153","","","","4",""
"5635","shelf","bungtod,kadaot,pamahaw,awit","pamahaw","j","2","html-keyboard-response","154","j","pamahaw","true","",""
"3520.5999999996275","","","","","2","html-slider-response","155","","","","3",""
"6366","salmon","mzungu,sensilyo,seri,baharia","sensilyo","v","2","html-keyboard-response","156","v","sensilyo","true","",""
"2913.4000000003725","","","","","2","html-slider-response","157","","","","3",""
"4632","coffin","barua,tubag,hulma,kioo","kioo","n","2","html-keyboard-response","158","n","kioo","true","",""
"3172","","","","","2","html-slider-response","159","","","","2",""
"5421","notebook","msitu,kemia,kila,mdudu","kemia","v","2","html-keyboard-response","160","f","msitu","false","",""
"3036.9000000003725","","","","","2","html-slider-response","161","","","","2",""
"3891","shoulder","mkuu,kelele,ndaniya,guruwe","mkuu","f","2","html-keyboard-response","162","f","mkuu","true","",""
"3352","","","","","2","html-slider-response","163","","","","1",""
"3666","park","tambok,bunifu,pwani,ihalas","bunifu","v","2","html-keyboard-response","164","v","bunifu","true","",""
"2395.7000000011176","","","","","2","html-slider-response","165","","","","2",""
"2338","number","shule,mundamo,kengele,choori","mundamo","v","2","html-keyboard-response","166","v","mundamo","true","",""
"2069.7000000011176","","","","","2","html-slider-response","167","","","","5",""
"4891","apple","ukame,kisu,estante,edad","kisu","v","2","html-keyboard-response","168","v","kisu","true","",""
"2249.699999999255","","","","","2","html-slider-response","169","","","","1",""
"5814","letter","kifua,filimbi,chuma,uhuru","kifua","f","2","html-keyboard-response","170","f","kifua","true","",""
"2215.5","","","","","2","html-slider-response","171","","","","1",""
"8728","eel","msumari,ishara,kunywa,kabuang","msumari","f","2","html-keyboard-response","172","f","msumari","true","",""
"2170.5","","","","","2","html-slider-response","173","","","","1",""
"3159","cop","bustani,mechezo,jikoni,bakus","mechezo","v","2","html-keyboard-response","174","v","mechezo","true","",""
"1653.4000000003725","","","","","2","html-slider-response","175","","","","4",""
"6287","wolf","lugha,kaburi,ndizi,mchuzi","lugha","f","2","html-keyboard-response","176","n","mchuzi","false","",""
"3576.699999999255","","","","","2","html-slider-response","177","","","","1",""
"4824","squirrel","mahugaw,ukweli,hofu,kichwa","hofu","j","2","html-keyboard-response","178","n","kichwa","false","",""
"1788.4000000003725","","","","","2","html-slider-response","179","","","","1",""
"4015","nose","gubat,kopa,kidole,sehemu","sehemu","n","2","html-keyboard-response","180","v","kopa","false","",""
"1799.699999999255","","","","","2","html-slider-response","181","","","","1",""
"3361","sock","mamba,ndoora,kimysa,mtirka","mamba","f","2","html-keyboard-response","182","f","mamba","true","",""
"2125.9000000003725","","","","","2","html-slider-response","183","","","","5",""
"3125","bank","kudhibi,silingan,tualya,ofisi","silingan","v","2","html-keyboard-response","184","n","ofisi","false","",""
"1687.2999999988824","","","","","2","html-slider-response","185","","","","4",""
"2630","donkey","bloke,elfu,lalake,rombus","elfu","v","2","html-keyboard-response","186","v","elfu","true","",""
"2609.5999999996275","","","","","2","html-slider-response","187","","","","5",""
"4566","poster","nchi,fedha,kasuko,madungog","madungog","n","2","html-keyboard-response","188","n","madungog","true","",""
"1889.5","","","","","2","html-slider-response","189","","","","2",""
"4161","puppet","napulo,lamok,mazishi,godoro","mazishi","j","2","html-keyboard-response","190","j","mazishi","true","",""
"1821.800000000745","","","","","2","html-slider-response","191","","","","2",""
"6984","hill","matumbo,kushoto,kukimba,sweta","matumbo","f","2","html-keyboard-response","192","v","kushoto","false","",""
"2305.800000000745","","","","","2","html-slider-response","193","","","","1",""
"4790","tooth","kijiko,kabalaka,uadui,pahiyum","kabalaka","v","2","html-keyboard-response","194","v","kabalaka","true","",""
"3025.699999999255","","","","","2","html-slider-response","195","","","","1",""
"11867","woman","pagtabon,bandari,bituin,kovuli","pagtabon","f","2","html-keyboard-response","196","v","bandari","false","",""
"2586.9000000003725","","","","","2","html-slider-response","197","","","","1",""
"2720","wheel","punda,tawo,bafuni,baadaye","bafuni","j","2","html-keyboard-response","198","j","bafuni","true","",""
"1799.8999999985099","","","","","2","html-slider-response","199","","","","4",""
"3058","mother","babaye,kahawa,mbuzi,jokofu","babaye","f","2","html-keyboard-response","200","f","babaye","true","",""
"1777","","","","","2","html-slider-response","201","","","","5",""
"9921","bed","mapintas,kalipay,haraka,starehe","mapintas","f","2","html-keyboard-response","202","n","starehe","false","",""
"2935.800000000745","","","","","2","html-slider-response","203","","","","1",""
"3969","key","miaka,chombo,goma,ahos","chombo","v","2","html-keyboard-response","204","f","miaka","false","",""
"1945.699999999255","","","","","2","html-slider-response","205","","","","1",""
"5218","page","wakala,wimbo,ishiri,skina","wimbo","v","2","html-keyboard-response","206","j","ishiri","false","",""
"2732.7999999988824","","","","","2","html-slider-response","207","","","","1",""
"3756","pants","pintal,chuki,haki,hari","haki","j","2","html-keyboard-response","208","v","chuki","false","",""
"3464.0999999996275","","","","","2","html-slider-response","209","","","","1",""
"5218","sun","bendi,luha,uongo,basi","basi","n","2","html-keyboard-response","210","n","basi","true","",""
"4307.9000000003725","","","","","2","html-slider-response","211","","","","2",""
"7187","finger","simu,sufuria,moyo,lima","moyo","j","2","html-keyboard-response","212","j","moyo","true","",""
"1585.800000000745","","","","","2","html-slider-response","213","","","","2",""
"3654","shoe","nyeusi,hatua,kama,uyoga","uyoga","n","2","html-keyboard-response","214","n","uyoga","true","",""
"2058.60000000149","","","","","2","html-slider-response","215","","","","5",""
"9708","giraffe","daraja,mahitabo,jumatu,hangyo","mahitabo","v","2","html-keyboard-response","216","v","mahitabo","true","",""
"2271.800000000745","","","","","2","html-slider-response","217","","","","2",""
"4296","dog","lubi,washia,kalamu,bahari","bahari","n","2","html-keyboard-response","218","j","kalamu","false","",""
"1900.9000000003725","","","","","2","html-slider-response","219","","","","2",""
"3553","box","kuacha,rafiki,kitande,adui","adui","n","2","html-keyboard-response","220","n","adui","true","",""
"4195.699999999255","","","","","2","html-slider-response","221","","","","2",""
"3159","scissors","duga,mtawa,tanuri,suga","tanuri","j","2","html-keyboard-response","222","v","mtawa","false","",""
"2227.5999999996275","","","","","2","html-slider-response","223","","","","1",""
"3699","cat","neyemba,paghukom,baki,akili","paghukom","v","2","html-keyboard-response","224","j","baki","false","",""
"2463.0999999996275","","","","","2","html-slider-response","225","","","","2",""
"3260","basket","kumba,kumbuka,utepe,hasira","kumba","f","2","html-keyboard-response","226","v","kumbuka","false","",""
"2665.7999999988824","","","","","2","html-slider-response","227","","","","1",""
"6208","snake","jansa,pagtukod,karon,mvringo","pagtukod","v","2","html-keyboard-response","228","v","pagtukod","true","",""
"2429.4000000003725","","","","","2","html-slider-response","229","","","","2",""
"3992","gift","pagtawag,baba,nyange,baso","pagtawag","f","2","html-keyboard-response","230","f","pagtawag","true","",""
"2373","","","","","2","html-slider-response","231","","","","1",""
"10224","train","itik,dakika,sayari,mungu","sayari","j","2","html-keyboard-response","232","v","dakika","false","",""
"2451.7999999988824","","","","","2","html-slider-response","233","","","","1",""
"5083","pudding","aibu,abug,mpishi,iring","aibu","f","2","html-keyboard-response","234","f","aibu","true","",""
"2249.4000000003725","","","","","2","html-slider-response","235","","","","1",""
"5983","tomato","chupi,mvua,chupa,takatak","mvua","v","2","html-keyboard-response","236","j","chupa","false","",""
"1788.1000000014901","","","","","2","html-slider-response","237","","","","1",""
"4081","stone","wingi,ulimwengu,mkasi,asili","wingi","f","2","html-keyboard-response","238","f","wingi","true","",""
"2103.199999999255","","","","","2","html-slider-response","239","","","","1",""
"3081","hammer","mekno,kitovu,layag,napakyas","napakyas","n","2","html-keyboard-response","240","j","layag","false","",""
"2631.9000000003725","","","","","2","html-slider-response","241","","","","1",""
"3835","knee","mvuke,kubale,duka,bili","duka","j","2","html-keyboard-response","242","n","bili","false","",""
"2058.199999999255","","","","","2","html-slider-response","243","","","","1",""
"3812","ceiling","maua,kugita,kawaida,rayna","maua","f","2","html-keyboard-response","244","f","maua","true","",""
"2002.1000000014901","","","","","2","html-slider-response","245","","","","1",""
"3530","spoon","betri,pagsulod,nzuri,ngazi","pagsulod","v","2","html-keyboard-response","246","v","pagsulod","true","",""
"1687.1000000014901","","","","","2","html-slider-response","247","","","","4",""
"2416","marker","mapafu,salita,maji,atay","maji","j","2","html-keyboard-response","248","j","maji","true","",""
"1788.699999999255","","","","","2","html-slider-response","249","","","","5",""
"2586","candle","gabi,geza,farasi,kupanda","geza","v","2","html-keyboard-response","250","v","geza","true","",""
"1946","","","","","2","html-slider-response","251","","","","5",""
"3024","tissue","lamigas,ugomvi,kisiwa,katika","ugomvi","v","2","html-keyboard-response","252","j","kisiwa","false","",""
"1777.2999999988824","","","","","2","html-slider-response","253","","","","1",""
"9763","bridge","sahani,daima,ngono,panya","sahani","f","2","html-keyboard-response","254","j","ngono","false","",""
"1562.800000000745","","","","","2","html-slider-response","255","","","","2",""
"4239","berry","abogado,kofia,nogozi,kinywa","kofia","v","2","html-keyboard-response","256","v","kofia","true","",""
"1799.800000000745","","","","","2","html-slider-response","257","","","","2",""
"3700","triangle","kihozi,kasadpan,bentaha,liog","kasadpan","v","2","html-keyboard-response","258","v","kasadpan","true","",""
"2587","","","","","2","html-slider-response","259","","","","1",""
"4014","door","tena,soko,nyota,surali","surali","n","2","html-keyboard-response","260","f","tena","false","",""
"1765.8999999985099","","","","","2","html-slider-response","261","","","","1",""
"5375","fish","bala,baho,imani,buli","buli","n","2","html-keyboard-response","262","n","buli","true","",""
"2226.9000000003725","","","","","2","html-slider-response","263","","","","1",""
"3452","curtain","lisud,bulwawan,chubani,mchanga","mchanga","n","2","html-keyboard-response","264","j","chubani","false","",""
"1664.3999999985099","","","","","2","html-slider-response","265","","","","1",""
"2990","flag","trekta,ndege,mkate,kawa","trekta","f","2","html-keyboard-response","266","f","trekta","true","",""
"1765.699999999255","","","","","2","html-slider-response","267","","","","1",""
"3631","boat","hamsi,pombe,kitanda,agalon","agalon","n","2","html-keyboard-response","268","j","kitanda","false","",""
"2125.4000000003725","","","","","2","html-slider-response","269","","","","1",""
"3407","rose","paghalad,singizi,mwanake,amani","paghalad","f","2","html-keyboard-response","270","n","amani","false","",""
"1663.699999999255","","","","","2","html-slider-response","271","","","","1",""
"4937","lamp","daub,afya,bilaska,mbolea","afya","v","2","html-keyboard-response","272","n","mbolea","false","",""
"1956.699999999255","","","","","2","html-slider-response","273","","","","1",""
"2169","cigar","ndugu,adhabu,kuta,mlango","adhabu","v","2","html-keyboard-response","274","n","mlango","false","",""
"2654.5","","","","","2","html-slider-response","275","","","","1",""
"3137","list","alizeti,kuzama,wingu,kaso","wingu","j","2","html-keyboard-response","276","f","alizeti","false","",""
"1810.9000000003725","","","","","2","html-slider-response","277","","","","1",""
"3857","sheet","bililhon,juuya,watu,kamantis","bililhon","f","2","html-keyboard-response","278","v","juuya","false","",""
"1754.4000000003725","","","","","2","html-slider-response","279","","","","1",""
"3744","picture","silya,chaki,asin,kubwa","kubwa","n","2","html-keyboard-response","280","j","asin","false","",""
"1574.800000000745","","","","","2","html-slider-response","281","","","","1",""
"3092","towel","tembo,funzi,pagpalit,pito","pagpalit","j","2","html-keyboard-response","282","j","pagpalit","true","",""
"1417.199999999255","","","","","2","html-slider-response","283","","","","1",""
"4330","window","kweli,nanga,kujenga,umaga","kweli","f","2","html-keyboard-response","284","j","kujenga","false","",""
"1506.9000000003725","","","","","2","html-slider-response","285","","","","1",""
"6389","box","kuacha,adui,rafiki,kitande","adui","v","3","html-keyboard-response","293","n","kitande","false","","4"
"4387","","","","","3","html-slider-response","294","","","","1",""
"20956","","","","","3","html-keyboard-response","295","","","","",""
"4194","pants","haki,pintal,chuki,hari","haki","f","3","html-keyboard-response","296","v","pintal","false","","4"
"2981","","","","","3","html-slider-response","297","","","","1",""
"12925","","","","","3","html-keyboard-response","298","","","","",""
"4610","cup","dagat,matumai,shimoni,jeraha","matumai","v","3","html-keyboard-response","299","n","jeraha","false","","4"
"2429.800000000745","","","","","3","html-slider-response","300","","","","1",""
"23972","","","","","3","html-keyboard-response","301","","","","",""
"8695","triangle","kasadpan,kihozi,bentaha,liog","kasadpan","f","3","html-keyboard-response","302","n","liog","false","","4"
"2913.2999999988824","","","","","3","html-slider-response","303","","","","2",""
"22712","","","","","3","html-keyboard-response","304","","","","",""
"3204","curtain","mchanga,lisud,bulwawan,chubani","mchanga","f","3","html-keyboard-response","305","n","chubani","false","","4"
"3071","","","","","3","html-slider-response","306","","","","1",""
"7041","","","","","3","html-keyboard-response","307","","","","",""
"6422","clock","kartasi,mbwa,abang,osha","mbwa","v","3","html-keyboard-response","308","n","osha","false","","4"
"3678.2999999988824","","","","","3","html-slider-response","309","","","","1",""
"14251","","","","","3","html-keyboard-response","310","","","","",""
"9257","mirror","rangi,sulagma,kanding,furaha","sulagma","v","3","html-keyboard-response","311","v","sulagma","true","","4"
"2777.800000000745","","","","","3","html-slider-response","312","","","","4",""
"10607","","","","","3","html-keyboard-response","313","","","","",""
"17538","coffin","barua,tubag,kioo,hulma","kioo","j","3","html-keyboard-response","314","j","kioo","true","","1"
"4937.9000000003725","","","","","3","html-slider-response","315","","","","5",""
"3440","","","","","3","html-keyboard-response","316","","","","",""
"8414","magazine","kiti,gundi,mchawi,bahandi","kiti","f","3","html-keyboard-response","317","v","gundi","false","","4"
"2215.699999999255","","","","","3","html-slider-response","318","","","","1",""
"11192","","","","","3","html-keyboard-response","319","","","","",""
"2451","column","pundok,dila,pala,ufagio","ufagio","n","3","html-keyboard-response","320","n","ufagio","true","","1"
"2666.2000000011176","","","","","3","html-slider-response","321","","","","5",""
"7333","","","","","3","html-keyboard-response","322","","","","",""
"4409","number","shule,mundamo,kengele,choori","mundamo","v","3","html-keyboard-response","323","v","mundamo","true","","4"
"2024.7000000011176","","","","","3","html-slider-response","324","","","","5",""
"4363","","","","","3","html-keyboard-response","325","","","","",""
"3543","rose","paghalad,singizi,mwanake,amani","paghalad","f","3","html-keyboard-response","326","n","amani","false","","4"
"2553.300000000745","","","","","3","html-slider-response","327","","","","1",""
"9538","","","","","3","html-keyboard-response","328","","","","",""
"6558","eel","ishara,kunywa,msumari,kabuang","msumari","j","3","html-keyboard-response","329","v","kunywa","false","","4"
"2272.4000000003725","","","","","3","html-slider-response","330","","","","1",""
"10124","","","","","3","html-keyboard-response","331","","","","",""
"4453","gift","baba,nyange,baso,pagtawag","pagtawag","n","3","html-keyboard-response","332","v","nyange","false","","4"
"2767","","","","","3","html-slider-response","333","","","","1",""
"10483","","","","","3","html-keyboard-response","334","","","","",""
"4330","apple","ukame,estante,kisu,edad","kisu","j","3","html-keyboard-response","335","j","kisu","true","","1"
"2643.4000000003725","","","","","3","html-slider-response","336","","","","5",""
"4577","","","","","3","html-keyboard-response","337","","","","",""
"4634","wheel","punda,tawo,bafuni,baadaye","bafuni","j","3","html-keyboard-response","338","j","bafuni","true","","1"
"3183.2999999988824","","","","","3","html-slider-response","339","","","","5",""
"18853","","","","","3","html-keyboard-response","340","","","","",""
"2394","knee","mvuke,kubale,bili,duka","duka","n","3","html-keyboard-response","341","n","duka","true","","4"
"2823.5","","","","","3","html-slider-response","342","","","","1",""
"11248","","","","","3","html-keyboard-response","343","","","","",""
"4477","basket","kumbuka,kumba,utepe,hasira","kumba","v","3","html-keyboard-response","344","v","kumba","true","","1"
"2227.199999999255","","","","","3","html-slider-response","345","","","","5",""
"8155","","","","","3","html-keyboard-response","346","","","","",""
"5095","park","tambok,pwani,bunifu,ihalas","bunifu","j","3","html-keyboard-response","347","f","tambok","false","","4"
"3037.10000000149","","","","","3","html-slider-response","348","","","","1",""
"11799","","","","","3","html-keyboard-response","349","","","","",""
"4229","finger","moyo,simu,sufuria,lima","moyo","f","3","html-keyboard-response","350","n","lima","false","","4"
"1957.300000000745","","","","","3","html-slider-response","351","","","","1",""
"13734","","","","","3","html-keyboard-response","352","","","","",""
"13072","boat","agalon,hamsi,pombe,kitanda","agalon","f","3","html-keyboard-response","353","f","agalon","true","","4"
"2204.4000000003725","","","","","3","html-slider-response","354","","","","1",""
"5409","","","","","3","html-keyboard-response","355","","","","",""
"17313","hill","kushoto,kukimba,sweta,matumbo","matumbo","n","3","html-keyboard-response","356","j","sweta","false","","4"
"2609.2000000011176","","","","","3","html-slider-response","357","","","","1",""
"12115","","","","","3","html-keyboard-response","358","","","","",""
"11451","train","itik,dakika,sayari,mungu","sayari","j","3","html-keyboard-response","359","f","itik","false","","4"
"2012.9000000003725","","","","","3","html-slider-response","360","","","","1",""
"13510","","","","","3","html-keyboard-response","361","","","","",""
"2991","wolf","lugha,kaburi,ndizi,mchuzi","lugha","f","3","html-keyboard-response","362","f","lugha","true","","4"
"2429.5","","","","","3","html-slider-response","363","","","","1",""
"8886","","","","","3","html-keyboard-response","364","","","","",""
"3295","snake","jansa,pagtukod,karon,mvringo","pagtukod","v","3","html-keyboard-response","365","v","pagtukod","true","","4"
"3273.300000000745","","","","","3","html-slider-response","366","","","","3",""
"7963","","","","","3","html-keyboard-response","367","","","","",""
"3678","tooth","kijiko,uadui,pahiyum,kabalaka","kabalaka","n","3","html-keyboard-response","368","f","kijiko","false","","4"
"2091.7999999988824","","","","","3","html-slider-response","369","","","","1",""
"9021","","","","","3","html-keyboard-response","370","","","","",""
"4139","notebook","msitu,kila,kemia,mdudu","kemia","j","3","html-keyboard-response","371","n","mdudu","false","","4"
"2350.699999999255","","","","","3","html-slider-response","372","","","","1",""
"8346","","","","","3","html-keyboard-response","373","","","","",""
"6310","flag","trekta,ndege,mkate,kawa","trekta","f","3","html-keyboard-response","374","v","ndege","false","","4"
"2024.5","","","","","3","html-slider-response","375","","","","1",""
"4386","","","","","3","html-keyboard-response","376","","","","",""
"2575","squirrel","mahugaw,hofu,ukweli,kichwa","hofu","v","3","html-keyboard-response","377","v","hofu","true","","4"
"1979.9000000003725","","","","","3","html-slider-response","378","","","","1",""
"6872","","","","","3","html-keyboard-response","379","","","","",""
"7818","door","surali,tena,soko,nyota","surali","f","3","html-keyboard-response","380","j","soko","false","","4"
"2317.0999999996275","","","","","3","html-slider-response","381","","","","1",""
"8042","","","","","3","html-keyboard-response","382","","","","",""
"3262","salmon","sensilyo,mzungu,seri,baharia","sensilyo","f","3","html-keyboard-response","383","f","sensilyo","true","","4"
"2069.7000000011176","","","","","3","html-slider-response","384","","","","1",""
"4317","","","","","3","html-keyboard-response","385","","","","",""
"4420","shoulder","kelele,ndaniya,mkuu,guruwe","mkuu","j","3","html-keyboard-response","386","j","mkuu","true","","4"
"3453","","","","","3","html-slider-response","387","","","","1",""
"4577","","","","","3","html-keyboard-response","388","","","","",""
"3812","lamp","daub,afya,bilaska,mbolea","afya","v","3","html-keyboard-response","389","f","daub","false","","4"
"2001.7999999988824","","","","","3","html-slider-response","390","","","","1",""
"8053","","","","","3","html-keyboard-response","391","","","","",""
"2699","shelf","bungtod,kadaot,awit,pamahaw","pamahaw","n","3","html-keyboard-response","392","n","pamahaw","true","","1"
"3048.5","","","","","3","html-slider-response","393","","","","5",""
"8987","","","","","3","html-keyboard-response","394","","","","",""
"3048","human","tinapay,bado,kikapu,punguza","tinapay","f","3","html-keyboard-response","395","f","tinapay","true","","4"
"1901","","","","","3","html-slider-response","396","","","","5",""
"2056","","","","","3","html-keyboard-response","397","","","","",""
"2969","towel","pagpalit,tembo,funzi,pito","pagpalit","f","3","html-keyboard-response","398","v","tembo","false","","4"
"2182.2000000011176","","","","","3","html-slider-response","399","","","","1",""
"7873","","","","","3","html-keyboard-response","400","","","","",""
"2801","cat","neyemba,baki,paghukom,akili","paghukom","j","3","html-keyboard-response","401","n","akili","false","","4"
"2137.10000000149","","","","","3","html-slider-response","402","","","","1",""
"11080","","","","","3","html-keyboard-response","403","","","","",""
"3250","spider","bunyag,mkboa,atop,kamwe","kamwe","n","3","html-keyboard-response","404","n","kamwe","true","","4"
"1889.800000000745","","","","","3","html-slider-response","405","","","","1",""
"3868","","","","","3","html-keyboard-response","406","","","","",""
"6209","window","nanga,kujenga,kweli,umaga","kweli","j","3","html-keyboard-response","407","n","umaga","false","","4"
"5152.200000001118","","","","","3","html-slider-response","408","","","","1",""
"6511","","","","","3","html-keyboard-response","409","","","","",""
"9572","woman","bandari,bituin,kovuli,pagtabon","pagtabon","n","3","html-keyboard-response","410","n","pagtabon","true","","1"
"3689.5","","","","","3","html-slider-response","411","","","","5",""
"3744","","","","","3","html-keyboard-response","412","","","","",""
"2563","giraffe","daraja,jumatu,mahitabo,hangyo","mahitabo","j","3","html-keyboard-response","413","n","hangyo","false","","4"
"2407.2000000011176","","","","","3","html-slider-response","414","","","","1",""
"12880","","","","","3","html-keyboard-response","415","","","","",""
"3643","elephant","petye,kito,pagduol,suka","kito","v","3","html-keyboard-response","416","v","kito","true","","4"
"2126.0999999996275","","","","","3","html-slider-response","417","","","","5",""
"1483","","","","","3","html-keyboard-response","418","","","","",""
"2350","cave","ganti,maisha,kesho,nyundo","kesho","j","3","html-keyboard-response","419","j","kesho","true","","4"
"2002.300000000745","","","","","3","html-slider-response","420","","","","5",""
"1314","","","","","3","html-keyboard-response","421","","","","",""
"3003","bread","kaili,dari,dizeli,bugas","dari","v","3","html-keyboard-response","422","v","dari","true","","4"
"4274.799999998882","","","","","3","html-slider-response","423","","","","3",""
"1922","","","","","3","html-keyboard-response","424","","","","",""
"4903","stone","ulimwengu,mkasi,asili,wingi","wingi","n","3","html-keyboard-response","425","n","wingi","true","","4"
"2913.2999999988824","","","","","3","html-slider-response","426","","","","1",""
"5240","","","","","3","html-keyboard-response","427","","","","",""
"3554","donkey","bloke,lalake,elfu,rombus","elfu","j","3","html-keyboard-response","428","j","elfu","true","","4"
"2013.2999999988824","","","","","3","html-slider-response","429","","","","5",""
"1989","","","","","3","html-keyboard-response","430","","","","",""
"3723","bridge","daima,sahani,ngono,panya","sahani","v","3","html-keyboard-response","431","n","panya","false","","4"
"2384.699999999255","","","","","3","html-slider-response","432","","","","1",""
"9516","","","","","3","html-keyboard-response","433","","","","",""
"2372","bonfire","mwezi,mfuko,kusanya,goti","goti","n","3","html-keyboard-response","434","n","goti","true","","4"
"1777.5","","","","","3","html-slider-response","435","","","","4",""
"7119","","","","","3","html-keyboard-response","436","","","","",""
"4240","book","kuhesa,picha,mara,mali","mali","n","3","html-keyboard-response","437","n","mali","true","","4"
"1957.5","","","","","3","html-slider-response","438","","","","5",""
"1314","","","","","3","html-keyboard-response","439","","","","",""
"2565","fish","buli,bala,baho,imani","buli","f","3","html-keyboard-response","440","j","baho","false","","4"
"1900.9000000003725","","","","","3","html-slider-response","441","","","","4",""
"7681","","","","","3","html-keyboard-response","442","","","","",""
"2721","spoon","betri,nzuri,ngazi,pagsulod","pagsulod","n","3","html-keyboard-response","443","n","pagsulod","true","","4"
"2339.5999999996275","","","","","3","html-slider-response","444","","","","4",""
"7896","","","","","3","html-keyboard-response","445","","","","",""
"2924","scissors","duga,mtawa,suga,tanuri","tanuri","n","3","html-keyboard-response","446","v","mtawa","false","","4"
"1923.2999999988824","","","","","3","html-slider-response","447","","","","1",""
"10674","","","","","3","html-keyboard-response","448","","","","",""
"8931","page","wimbo,wakala,ishiri,skina","wimbo","f","3","html-keyboard-response","449","f","wimbo","true","","4"
"2598.300000000745","","","","","3","html-slider-response","450","","","","1",""
"6354","","","","","3","html-keyboard-response","451","","","","",""
"3182","nose","gubat,kopa,kidole,sehemu","sehemu","n","3","html-keyboard-response","452","n","sehemu","true","","1"
"5804.199999999255","","","","","3","html-slider-response","453","","","","5",""
"7108","","","","","3","html-keyboard-response","454","","","","",""
"3621","ceiling","kugita,kawaida,maua,rayna","maua","j","3","html-keyboard-response","455","n","rayna","false","","4"
"2159.4000000003725","","","","","3","html-slider-response","456","","","","1",""
"10078","","","","","3","html-keyboard-response","457","","","","",""
"6602","bucket","baga,kiatu,ijayo,init","kiatu","v","3","html-keyboard-response","458","v","kiatu","true","","4"
"2474.4000000003725","","","","","3","html-slider-response","459","","","","1",""
"9200","","","","","3","html-keyboard-response","460","","","","",""
"1990","berry","kofia,abogado,nogozi,kinywa","kofia","f","3","html-keyboard-response","461","f","kofia","true","","1"
"2013.4000000003725","","","","","3","html-slider-response","462","","","","5",""
"15647","","","","","3","html-keyboard-response","463","","","","",""
"2643","mother","babaye,kahawa,mbuzi,jokofu","babaye","f","3","html-keyboard-response","464","f","babaye","true","","1"
"2801","","","","","3","html-slider-response","465","","","","5",""
"2090","","","","","3","html-keyboard-response","466","","","","",""
"2441","mosquito","isda,taras,gutom,martilyo","martilyo","n","3","html-keyboard-response","467","n","martilyo","true","","4"
"2936.5","","","","","3","html-slider-response","468","","","","5",""
"3114","","","","","3","html-keyboard-response","469","","","","",""
"3228","perfume","bino,katuyoan,sungura,ndogo","katuyoan","v","3","html-keyboard-response","470","j","sungura","false","","4"
"4117.0999999996275","","","","","3","html-slider-response","471","","","","4",""
"7974","","","","","3","html-keyboard-response","472","","","","",""
"6209","sheet","juuya,bililhon,watu,kamantis","bililhon","v","3","html-keyboard-response","473","f","juuya","false","","4"
"2024.300000000745","","","","","3","html-slider-response","474","","","","1",""
"3384","","","","","3","html-keyboard-response","475","","","","",""
"2788","puppet","mazishi,napulo,lamok,godoro","mazishi","f","3","html-keyboard-response","476","f","mazishi","true","","1"
"3003.5","","","","","3","html-slider-response","477","","","","5",""
"8998","","","","","3","html-keyboard-response","478","","","","",""
"3272","poster","madungog,nchi,fedha,kasuko","madungog","f","3","html-keyboard-response","479","f","madungog","true","","4"
"2575.699999999255","","","","","3","html-slider-response","480","","","","2",""
"6309","","","","","3","html-keyboard-response","481","","","","",""
"5219","music","mraba,mageho,baiski,tumbo","baiski","j","3","html-keyboard-response","482","f","mraba","false","","4"
"2800.10000000149","","","","","3","html-slider-response","483","","","","2",""
"5320","","","","","3","html-keyboard-response","484","","","","",""
"4510","key","miaka,goma,chombo,ahos","chombo","j","3","html-keyboard-response","485","v","goma","false","","4"
"2687.9000000003725","","","","","3","html-slider-response","486","","","","2",""
"6410","","","","","3","html-keyboard-response","487","","","","",""
"2766","sock","mamba,ndoora,kimysa,mtirka","mamba","f","3","html-keyboard-response","488","f","mamba","true","","4"
"3745.7000000011176","","","","","3","html-slider-response","489","","","","5",""
"2259","","","","","3","html-keyboard-response","490","","","","",""
"2192","marker","maji,mapafu,salita,atay","maji","f","3","html-keyboard-response","491","f","maji","true","","4"
"2260.9000000003725","","","","","3","html-slider-response","492","","","","5",""
"1291","","","","","3","html-keyboard-response","493","","","","",""
"2272","office","hazini,yatima,kuna,leso","leso","n","3","html-keyboard-response","494","n","leso","true","","4"
"2992","","","","","3","html-slider-response","495","","","","5",""
"1133","","","","","3","html-keyboard-response","496","","","","",""
"4184","shoe","nyeusi,hatua,uyoga,kama","uyoga","j","3","html-keyboard-response","497","j","uyoga","true","","4"
"1956.9000000003725","","","","","3","html-slider-response","498","","","","5",""
"1652","","","","","3","html-keyboard-response","499","","","","",""
"2991","cop","mechezo,bustani,jikoni,bakus","mechezo","f","3","html-keyboard-response","500","f","mechezo","true","","4"
"2114.5999999996275","","","","","3","html-slider-response","501","","","","5",""
"1742","","","","","3","html-keyboard-response","502","","","","",""
"2755","bank","kudhibi,tualya,ofisi,silingan","silingan","n","3","html-keyboard-response","503","j","ofisi","false","","4"
"2317.5999999996275","","","","","3","html-slider-response","504","","","","5",""
"9640","","","","","3","html-keyboard-response","505","","","","",""
"3655","letter","filimbi,chuma,kifua,uhuru","kifua","j","3","html-keyboard-response","506","j","kifua","true","","1"
"2835","","","","","3","html-slider-response","507","","","","5",""
"7356","","","","","3","html-keyboard-response","508","","","","",""
"4993","dog","bahari,lubi,washia,kalamu","bahari","f","3","html-keyboard-response","509","f","bahari","true","","1"
"2486.199999999255","","","","","3","html-slider-response","510","","","","5",""
"5195","","","","","3","html-keyboard-response","511","","","","",""
"3238","shop","nopya,kerida,ndezu,samaki","samaki","n","3","html-keyboard-response","512","v","kerida","false","","4"
"2441.0999999996275","","","","","3","html-slider-response","513","","","","1",""
"5240","","","","","3","html-keyboard-response","514","","","","",""
"3959","flower","tamasha,lobo,usiku,bega","bega","n","3","html-keyboard-response","515","n","bega","true","","4"
"2305.7999999988824","","","","","3","html-slider-response","516","","","","1",""
"4880","","","","","3","html-keyboard-response","517","","","","",""
"2260","cigar","ndugu,kuta,mlango,adhabu","adhabu","n","3","html-keyboard-response","518","n","adhabu","true","","1"
"3116.300000000745","","","","","3","html-slider-response","519","","","","5",""
"6320","","","","","3","html-keyboard-response","520","","","","",""
"6175","hammer","mekno,napakyas,kitovu,layag","napakyas","v","3","html-keyboard-response","521","j","kitovu","false","","4"
"2328.199999999255","","","","","3","html-slider-response","522","","","","1",""
"5544","","","","","3","html-keyboard-response","523","","","","",""
"3002","fork","mgonjwa,baboy,paghago,gorisi","mgonjwa","f","3","html-keyboard-response","524","v","baboy","false","","4"
"2126","","","","","3","html-slider-response","525","","","","1",""
"11271","","","","","3","html-keyboard-response","526","","","","",""
"6962","sun","bendi,luha,basi,uongo","basi","j","3","html-keyboard-response","527","j","basi","true","","1"
"2203.699999999255","","","","","3","html-slider-response","528","","","","5",""
"2248","","","","","3","html-keyboard-response","529","","","","",""
"2867","ladder","mashua,pangalan,mwanga,kamba","pangalan","v","3","html-keyboard-response","530","v","pangalan","true","","4"
"1889.800000000745","","","","","3","html-slider-response","531","","","","1",""
"6726","","","","","3","html-keyboard-response","532","","","","",""
"9843","banana","kasamok,hagdan,twai,kazi","kazi","n","3","html-keyboard-response","533","n","kazi","true","","1"
"2621.0999999996275","","","","","3","html-slider-response","534","","","","5",""
"1472","","","","","3","html-keyboard-response","535","","","","",""
"2351","pudding","aibu,abug,mpishi,iring","aibu","f","3","html-keyboard-response","536","v","abug","false","","4"
"2756.300000000745","","","","","3","html-slider-response","537","","","","4",""
"7716","","","","","3","html-keyboard-response","538","","","","",""
"2800","body","nyundu,jibini,kununa,tindashan","tindashan","n","3","html-keyboard-response","539","n","tindashan","true","","4"
"1743.7000000011176","","","","","3","html-slider-response","540","","","","5",""
"2147","","","","","3","html-keyboard-response","541","","","","",""
"3284","bed","mapintas,kalipay,haraka,starehe","mapintas","f","3","html-keyboard-response","542","j","haraka","false","","4"
"1968.5","","","","","3","html-slider-response","543","","","","1",""
"10843","","","","","3","html-keyboard-response","544","","","","",""
"3689","tissue","ugomvi,lamigas,kisiwa,katika","ugomvi","f","3","html-keyboard-response","545","n","katika","false","","4"
"2002.4000000003725","","","","","3","html-slider-response","546","","","","2",""
"7064","","","","","3","html-keyboard-response","547","","","","",""
"2642","candle","gabi,farasi,kupanda,geza","geza","n","3","html-keyboard-response","548","n","geza","true","","4"
"2339.5","","","","","3","html-slider-response","549","","","","5",""
"1224","","","","","3","html-keyboard-response","550","","","","",""
"8370","tomato","mvua,chupi,chupa,takatak","mvua","f","3","html-keyboard-response","551","f","mvua","true","","1"
"2339.4000000003725","","","","","3","html-slider-response","552","","","","5",""
"6759","","","","","3","html-keyboard-response","553","","","","",""
"4307","list","alizeti,wingu,kuzama,kaso","wingu","v","3","html-keyboard-response","554","n","kaso","false","","4"
"1912.300000000745","","","","","3","html-slider-response","555","","","","1",""
"7693","","","","","3","html-keyboard-response","556","","","","",""
"5320","olive","jiwe,bata,siagi,welder","jiwe","f","3","html-keyboard-response","557","f","jiwe","true","","4"
"2564.7999999988824","","","","","3","html-slider-response","558","","","","5",""
"2732","","","","","3","html-keyboard-response","559","","","","",""
"3677","picture","silya,chaki,asin,kubwa","kubwa","n","3","html-keyboard-response","560","n","kubwa","true","","1"
"2249.4000000003725","","","","","3","html-slider-response","561","","","","5",""
"9066","","","","","3","html-keyboard-response","562","","","","",""
"6593","page","wakala,wimbo,ishiri,skina","wimbo","v","4","html-keyboard-response","888","v","wimbo","true","",""
"5579.0999999996275","","","","","4","html-slider-response","889","","","","3",""
"4205","sheet","juuya,bililhon,watu,kamantis","bililhon","v","4","html-keyboard-response","890","v","bililhon","true","",""
"3667","","","","","4","html-slider-response","891","","","","5",""
"5622","ladder","mashua,mwanga,pangalan,kamba","pangalan","j","4","html-keyboard-response","892","j","pangalan","true","",""
"3869.2999999988824","","","","","4","html-slider-response","893","","","","3",""
"17807","door","surali,tena,soko,nyota","surali","f","4","html-keyboard-response","894","f","surali","true","",""
"2328","","","","","4","html-slider-response","895","","","","5",""
"4116","spider","bunyag,mkboa,atop,kamwe","kamwe","n","4","html-keyboard-response","896","n","kamwe","true","",""
"3464.10000000149","","","","","4","html-slider-response","897","","","","5",""
"7041","picture","silya,chaki,asin,kubwa","kubwa","n","4","html-keyboard-response","898","n","kubwa","true","",""
"2226.9000000003725","","","","","4","html-slider-response","899","","","","5",""
"9718","boat","hamsi,pombe,agalon,kitanda","agalon","j","4","html-keyboard-response","900","j","agalon","true","",""
"1878","","","","","4","html-slider-response","901","","","","5",""
"2101","donkey","bloke,lalake,rombus,elfu","elfu","n","4","html-keyboard-response","902","n","elfu","true","",""
"1889.800000000745","","","","","4","html-slider-response","903","","","","5",""
"4475","book","kuhesa,mali,picha,mara","mali","v","4","html-keyboard-response","904","v","mali","true","",""
"1878.2000000011176","","","","","4","html-slider-response","905","","","","5",""
"4171","cup","dagat,matumai,shimoni,jeraha","matumai","v","4","html-keyboard-response","906","v","matumai","true","",""
"1878.300000000745","","","","","4","html-slider-response","907","","","","5",""
"2113","sun","bendi,luha,basi,uongo","basi","j","4","html-keyboard-response","908","j","basi","true","",""
"1878","","","","","4","html-slider-response","909","","","","5",""
"3002","pudding","abug,mpishi,aibu,iring","aibu","j","4","html-keyboard-response","910","j","aibu","true","",""
"2800.7000000011176","","","","","4","html-slider-response","911","","","","5",""
"2012","human","bado,kikapu,tinapay,punguza","tinapay","j","4","html-keyboard-response","912","j","tinapay","true","",""
"1945.7000000011176","","","","","4","html-slider-response","913","","","","5",""
"5578","squirrel","hofu,mahugaw,ukweli,kichwa","hofu","f","4","html-keyboard-response","914","f","hofu","true","",""
"1911.9000000003725","","","","","4","html-slider-response","915","","","","5",""
"2349","park","tambok,pwani,bunifu,ihalas","bunifu","j","4","html-keyboard-response","916","j","bunifu","true","",""
"1866.800000000745","","","","","4","html-slider-response","917","","","","5",""
"14702","poster","nchi,fedha,madungog,kasuko","madungog","j","4","html-keyboard-response","918","j","madungog","true","",""
"2845.7999999988824","","","","","4","html-slider-response","919","","","","2",""
"3654","wolf","kaburi,lugha,ndizi,mchuzi","lugha","v","4","html-keyboard-response","920","v","lugha","true","",""
"1844.4000000003725","","","","","4","html-slider-response","921","","","","5",""
"6591","cat","neyemba,paghukom,baki,akili","paghukom","v","4","html-keyboard-response","922","v","paghukom","true","",""
"2823.300000000745","","","","","4","html-slider-response","923","","","","2",""
"2574","fish","bala,baho,buli,imani","buli","j","4","html-keyboard-response","924","j","buli","true","",""
"2013","","","","","4","html-slider-response","925","","","","5",""
"3621","tooth","kijiko,uadui,pahiyum,kabalaka","kabalaka","n","4","html-keyboard-response","926","n","kabalaka","true","",""
"2013.300000000745","","","","","4","html-slider-response","927","","","","5",""
"1967","cave","ganti,maisha,nyundo,kesho","kesho","n","4","html-keyboard-response","928","n","kesho","true","",""
"1765.9000000003725","","","","","4","html-slider-response","929","","","","5",""
"11338","lamp","afya,daub,bilaska,mbolea","afya","f","4","html-keyboard-response","930","f","afya","true","",""
"2721.800000000745","","","","","4","html-slider-response","931","","","","4",""
"3012","banana","kazi,kasamok,hagdan,twai","kazi","f","4","html-keyboard-response","932","f","kazi","true","",""
"1675.800000000745","","","","","4","html-slider-response","933","","","","5",""
"2709","bonfire","mwezi,mfuko,goti,kusanya","goti","j","4","html-keyboard-response","934","j","goti","true","",""
"1574.5","","","","","4","html-slider-response","935","","","","5",""
"3058","cop","bustani,jikoni,mechezo,bakus","mechezo","j","4","html-keyboard-response","936","j","mechezo","true","",""
"1585.300000000745","","","","","4","html-slider-response","937","","","","5",""
"2079","marker","maji,mapafu,salita,atay","maji","f","4","html-keyboard-response","938","f","maji","true","",""
"2170.7999999988824","","","","","4","html-slider-response","939","","","","5",""
"3958","window","nanga,kujenga,umaga,kweli","kweli","n","4","html-keyboard-response","940","n","kweli","true","",""
"1675.9000000003725","","","","","4","html-slider-response","941","","","","5",""
"2652","body","nyundu,jibini,kununa,tindashan","tindashan","n","4","html-keyboard-response","942","n","tindashan","true","",""
"1856.0999999996275","","","","","4","html-slider-response","943","","","","5",""
"3496","apple","ukame,estante,edad,kisu","kisu","n","4","html-keyboard-response","944","n","kisu","true","",""
"2058.10000000149","","","","","4","html-slider-response","945","","","","5",""
"10788","salmon","sensilyo,mzungu,seri,baharia","sensilyo","f","4","html-keyboard-response","946","f","sensilyo","true","",""
"1607.2999999988824","","","","","4","html-slider-response","947","","","","4",""
"15006","bed","kalipay,haraka,mapintas,starehe","mapintas","j","4","html-keyboard-response","948","j","mapintas","true","",""
"1799.2999999988824","","","","","4","html-slider-response","949","","","","5",""
"2844","berry","abogado,kofia,nogozi,kinywa","kofia","v","4","html-keyboard-response","950","v","kofia","true","",""
"1821.7000000011176","","","","","4","html-slider-response","951","","","","5",""
"2844","mirror","rangi,kanding,sulagma,furaha","sulagma","j","4","html-keyboard-response","952","j","sulagma","true","",""
"2474.300000000745","","","","","4","html-slider-response","953","","","","5",""
"2529","flag","ndege,mkate,kawa,trekta","trekta","n","4","html-keyboard-response","954","n","trekta","true","",""
"2159.60000000149","","","","","4","html-slider-response","955","","","","5",""
"3484","shoulder","mkuu,kelele,ndaniya,guruwe","mkuu","f","4","html-keyboard-response","956","f","mkuu","true","",""
"2024.5","","","","","4","html-slider-response","957","","","","5",""
"9797","tissue","lamigas,kisiwa,ugomvi,katika","ugomvi","j","4","html-keyboard-response","958","j","ugomvi","true","",""
"1776.699999999255","","","","","4","html-slider-response","959","","","","5",""
"21103","notebook","msitu,kemia,kila,mdudu","kemia","v","4","html-keyboard-response","960","j","kila","false","",""
"2181.5999999996275","","","","","4","html-slider-response","961","","","","2",""
"8525","snake","jansa,pagtukod,karon,mvringo","pagtukod","v","4","html-keyboard-response","962","v","pagtukod","true","",""
"2879.5","","","","","4","html-slider-response","963","","","","3",""
"3193","finger","moyo,simu,sufuria,lima","moyo","f","4","html-keyboard-response","964","f","moyo","true","",""
"2350.699999999255","","","","","4","html-slider-response","965","","","","5",""
"4847","basket","kumbuka,kumba,utepe,hasira","kumba","v","4","html-keyboard-response","966","v","kumba","true","",""
"2147.7999999988824","","","","","4","html-slider-response","967","","","","5",""
"4093","curtain","lisud,bulwawan,mchanga,chubani","mchanga","j","4","html-keyboard-response","968","j","mchanga","true","",""
"1844.0999999996275","","","","","4","html-slider-response","969","","","","5",""
"6152","perfume","katuyoan,bino,sungura,ndogo","katuyoan","f","4","html-keyboard-response","970","j","sungura","false","",""
"1855.5999999996275","","","","","4","html-slider-response","971","","","","4",""
"3182","key","miaka,chombo,goma,ahos","chombo","v","4","html-keyboard-response","972","v","chombo","true","",""
"1900.800000000745","","","","","4","html-slider-response","973","","","","5",""
"2697","olive","bata,jiwe,siagi,welder","jiwe","v","4","html-keyboard-response","974","v","jiwe","true","",""
"2317.300000000745","","","","","4","html-slider-response","975","","","","5",""
"3766","rose","singizi,mwanake,amani,paghalad","paghalad","n","4","html-keyboard-response","976","n","paghalad","true","",""
"1957","","","","","4","html-slider-response","977","","","","5",""
"8402","bridge","daima,sahani,ngono,panya","sahani","v","4","html-keyboard-response","978","v","sahani","true","",""
"2429.2999999988824","","","","","4","html-slider-response","979","","","","5",""
"24827","hill","matumbo,kushoto,kukimba,sweta","matumbo","f","4","html-keyboard-response","980","f","matumbo","true","",""
"2350.300000000745","","","","","4","html-slider-response","981","","","","2",""
"2473","letter","filimbi,chuma,uhuru,kifua","kifua","n","4","html-keyboard-response","982","n","kifua","true","",""
"1867","","","","","4","html-slider-response","983","","","","5",""
"3216","sock","ndoora,mamba,kimysa,mtirka","mamba","v","4","html-keyboard-response","984","v","mamba","true","",""
"1889.2999999988824","","","","","4","html-slider-response","985","","","","5",""
"8379","fork","mgonjwa,baboy,paghago,gorisi","mgonjwa","f","4","html-keyboard-response","986","j","paghago","false","",""
"1967.7999999988824","","","","","4","html-slider-response","987","","","","2",""
"6456","box","kuacha,rafiki,adui,kitande","adui","j","4","html-keyboard-response","988","j","adui","true","",""
"2417.9000000003725","","","","","4","html-slider-response","989","","","","4",""
"3834","gift","baba,nyange,pagtawag,baso","pagtawag","j","4","html-keyboard-response","990","j","pagtawag","true","",""
"2485.5","","","","","4","html-slider-response","991","","","","4",""
"9268","bucket","baga,kiatu,ijayo,init","kiatu","v","4","html-keyboard-response","992","v","kiatu","true","",""
"1720.5999999996275","","","","","4","html-slider-response","993","","","","2",""
"6805","shop","nopya,kerida,samaki,ndezu","samaki","j","4","html-keyboard-response","994","j","samaki","true","",""
"2463.199999999255","","","","","4","html-slider-response","995","","","","5",""
"4813","puppet","napulo,lamok,mazishi,godoro","mazishi","j","4","html-keyboard-response","996","j","mazishi","true","",""
"2227","","","","","4","html-slider-response","997","","","","5",""
"3666","nose","sehemu,gubat,kopa,kidole","sehemu","f","4","html-keyboard-response","998","f","sehemu","true","",""
"1934.4000000003725","","","","","4","html-slider-response","999","","","","5",""
"2765","music","baiski,mraba,mageho,tumbo","baiski","f","4","html-keyboard-response","1000","f","baiski","true","",""
"2845.7999999988824","","","","","4","html-slider-response","1001","","","","5",""
"3599","dog","lubi,bahari,washia,kalamu","bahari","v","4","html-keyboard-response","1002","v","bahari","true","",""
"1957","","","","","4","html-slider-response","1003","","","","5",""
"6388","eel","ishara,kunywa,kabuang,msumari","msumari","n","4","html-keyboard-response","1004","n","msumari","true","",""
"2408.300000000745","","","","","4","html-slider-response","1005","","","","2",""
"2168","number","mundamo,shule,kengele,choori","mundamo","f","4","html-keyboard-response","1006","f","mundamo","true","",""
"1833.5","","","","","4","html-slider-response","1007","","","","5",""
"5274","tomato","chupi,mvua,chupa,takatak","mvua","v","4","html-keyboard-response","1008","v","mvua","true","",""
"1877.300000000745","","","","","4","html-slider-response","1009","","","","5",""
"2056","coffin","barua,kioo,tubag,hulma","kioo","v","4","html-keyboard-response","1010","v","kioo","true","",""
"2272.199999999255","","","","","4","html-slider-response","1011","","","","5",""
"3609","knee","mvuke,kubale,duka,bili","duka","j","4","html-keyboard-response","1012","j","duka","true","",""
"2080.7999999988824","","","","","4","html-slider-response","1013","","","","5",""
"4183","woman","pagtabon,bandari,bituin,kovuli","pagtabon","f","4","html-keyboard-response","1014","f","pagtabon","true","",""
"1889.5","","","","","4","html-slider-response","1015","","","","5",""
"2394","stone","ulimwengu,mkasi,wingi,asili","wingi","j","4","html-keyboard-response","1016","j","wingi","true","",""
"2519.4000000003725","","","","","4","html-slider-response","1017","","","","5",""
"2507","bread","kaili,dizeli,bugas,dari","dari","n","4","html-keyboard-response","1018","n","dari","true","",""
"2294.4000000003725","","","","","4","html-slider-response","1019","","","","5",""
"2743","triangle","kihozi,bentaha,liog,kasadpan","kasadpan","n","4","html-keyboard-response","1020","n","kasadpan","true","",""
"2373.300000000745","","","","","4","html-slider-response","1021","","","","5",""
"4711","scissors","tanuri,duga,mtawa,suga","tanuri","f","4","html-keyboard-response","1022","f","tanuri","true","",""
"2406.5999999996275","","","","","4","html-slider-response","1023","","","","4",""
"4206","giraffe","daraja,jumatu,hangyo,mahitabo","mahitabo","n","4","html-keyboard-response","1024","n","mahitabo","true","",""
"1754","","","","","4","html-slider-response","1025","","","","4",""
"3271","flower","tamasha,bega,lobo,usiku","bega","v","4","html-keyboard-response","1026","v","bega","true","",""
"1743.199999999255","","","","","4","html-slider-response","1027","","","","5",""
"2147","candle","geza,gabi,farasi,kupanda","geza","f","4","html-keyboard-response","1028","f","geza","true","",""
"2317.2000000011176","","","","","4","html-slider-response","1029","","","","5",""
"2529","mother","kahawa,mbuzi,babaye,jokofu","babaye","j","4","html-keyboard-response","1030","j","babaye","true","",""
"1676.0999999996275","","","","","4","html-slider-response","1031","","","","5",""
"4712","towel","tembo,funzi,pito,pagpalit","pagpalit","n","4","html-keyboard-response","1032","n","pagpalit","true","",""
"1687.0999999996275","","","","","4","html-slider-response","1033","","","","4",""
"1843","elephant","petye,pagduol,suka,kito","kito","n","4","html-keyboard-response","1034","n","kito","true","",""
"2216","","","","","4","html-slider-response","1035","","","","5",""
"3676","shelf","bungtod,kadaot,awit,pamahaw","pamahaw","n","4","html-keyboard-response","1036","n","pamahaw","true","",""
"1811","","","","","4","html-slider-response","1037","","","","4",""
"3575","mosquito","isda,martilyo,taras,gutom","martilyo","v","4","html-keyboard-response","1038","v","martilyo","true","",""
"1811.0999999996275","","","","","4","html-slider-response","1039","","","","5",""
"5713","column","ufagio,pundok,dila,pala","ufagio","f","4","html-keyboard-response","1040","f","ufagio","true","",""
"2058.199999999255","","","","","4","html-slider-response","1041","","","","5",""
"4925","pants","haki,pintal,chuki,hari","haki","f","4","html-keyboard-response","1042","f","haki","true","",""
"2193.199999999255","","","","","4","html-slider-response","1043","","","","5",""
"6669","list","wingu,alizeti,kuzama,kaso","wingu","f","4","html-keyboard-response","1044","v","alizeti","false","",""
"1788.0999999996275","","","","","4","html-slider-response","1045","","","","2",""
"9898","bank","kudhibi,silingan,tualya,ofisi","silingan","v","4","html-keyboard-response","1046","v","silingan","true","",""
"1832.9000000003725","","","","","4","html-slider-response","1047","","","","2",""
"4745","clock","kartasi,mbwa,abang,osha","mbwa","v","4","html-keyboard-response","1048","v","mbwa","true","",""
"1878.2999999988824","","","","","4","html-slider-response","1049","","","","5",""
"16615","ceiling","kugita,maua,kawaida,rayna","maua","v","4","html-keyboard-response","1050","v","maua","true","",""
"1968.0999999996275","","","","","4","html-slider-response","1051","","","","2",""
"5712","train","itik,dakika,sayari,mungu","sayari","j","4","html-keyboard-response","1052","j","sayari","true","",""
"1866.7000000011176","","","","","4","html-slider-response","1053","","","","5",""
"2417","magazine","kiti,gundi,mchawi,bahandi","kiti","f","4","html-keyboard-response","1054","f","kiti","true","",""
"1923.2000000011176","","","","","4","html-slider-response","1055","","","","5",""
"2191","office","hazini,yatima,kuna,leso","leso","n","4","html-keyboard-response","1056","n","leso","true","",""
"1720.9000000003725","","","","","4","html-slider-response","1057","","","","5",""
"3248","wheel","bafuni,punda,tawo,baadaye","bafuni","f","4","html-keyboard-response","1058","f","bafuni","true","",""
"1980","","","","","4","html-slider-response","1059","","","","4",""
"2574","spoon","betri,nzuri,ngazi,pagsulod","pagsulod","n","4","html-keyboard-response","1060","n","pagsulod","true","",""
"1800","","","","","4","html-slider-response","1061","","","","5",""
"3744","hammer","mekno,napakyas,kitovu,layag","napakyas","v","4","html-keyboard-response","1062","v","napakyas","true","",""
"1754.699999999255","","","","","4","html-slider-response","1063","","","","5",""
"4047","cigar","adhabu,ndugu,kuta,mlango","adhabu","f","4","html-keyboard-response","1064","f","adhabu","true","",""
"1957.2000000011176","","","","","4","html-slider-response","1065","","","","2",""
"4183","shoe","uyoga,nyeusi,hatua,kama","uyoga","f","4","html-keyboard-response","1066","f","uyoga","true","",""
"1709.3999999985099","","","","","4","html-slider-response","1067","","","","5",""
"9132","list","alizeti,kuzama,wingu,kaso","wingu","j","5","html-keyboard-response","1069","j","wingu","true","",""
"2226.89999999851","","","","","5","html-slider-response","1070","","","","2",""
"1877","number","shule,kengele,choori,mundamo","mundamo","n","5","html-keyboard-response","1071","n","mundamo","true","",""
"2823.300000000745","","","","","5","html-slider-response","1072","","","","5",""
"2135","apple","kisu,ukame,estante,edad","kisu","f","5","html-keyboard-response","1073","f","kisu","true","",""
"1934.4000000003725","","","","","5","html-slider-response","1074","","","","5",""
"2079","knee","mvuke,kubale,duka,bili","duka","j","5","html-keyboard-response","1075","j","duka","true","",""
"2160","","","","","5","html-slider-response","1076","","","","5",""
"2935","tooth","kabalaka,kijiko,uadui,pahiyum","kabalaka","f","5","html-keyboard-response","1077","f","kabalaka","true","",""
"2024.5","","","","","5","html-slider-response","1078","","","","5",""
"1708","berry","abogado,nogozi,kinywa,kofia","kofia","n","5","html-keyboard-response","1079","n","kofia","true","",""
"1687.0999999996275","","","","","5","html-slider-response","1080","","","","5",""
"3587","bridge","daima,ngono,panya,sahani","sahani","n","5","html-keyboard-response","1081","n","sahani","true","",""
"1563.300000000745","","","","","5","html-slider-response","1082","","","","5",""
"14387","perfume","bino,katuyoan,sungura,ndogo","katuyoan","v","5","html-keyboard-response","1083","j","sungura","false","",""
"2418.10000000149","","","","","5","html-slider-response","1084","","","","1",""
"9268","ladder","mashua,mwanga,kamba,pangalan","pangalan","n","5","html-keyboard-response","1085","n","pangalan","true","",""
"3610.5999999996275","","","","","5","html-slider-response","1086","","","","1",""
"2169","pants","pintal,chuki,hari,haki","haki","n","5","html-keyboard-response","1087","n","haki","true","",""
"1945.6000000014901","","","","","5","html-slider-response","1088","","","","5",""
"2247","salmon","mzungu,seri,sensilyo,baharia","sensilyo","j","5","html-keyboard-response","1089","j","sensilyo","true","",""
"2564.5999999996275","","","","","5","html-slider-response","1090","","","","5",""
"1955","coffin","kioo,barua,tubag,hulma","kioo","f","5","html-keyboard-response","1091","f","kioo","true","",""
"1788.199999999255","","","","","5","html-slider-response","1092","","","","5",""
"3485","park","tambok,bunifu,pwani,ihalas","bunifu","v","5","html-keyboard-response","1093","v","bunifu","true","",""
"1686.7000000011176","","","","","5","html-slider-response","1094","","","","5",""
"4194","giraffe","daraja,jumatu,mahitabo,hangyo","mahitabo","j","5","html-keyboard-response","1095","j","mahitabo","true","",""
"1518.199999999255","","","","","5","html-slider-response","1096","","","","4",""
"3193","mirror","rangi,kanding,sulagma,furaha","sulagma","j","5","html-keyboard-response","1097","j","sulagma","true","",""
"1664.699999999255","","","","","5","html-slider-response","1098","","","","5",""
"3868","ceiling","kugita,kawaida,maua,rayna","maua","j","5","html-keyboard-response","1099","j","maua","true","",""
"2272","","","","","5","html-slider-response","1100","","","","2",""
"2372","marker","mapafu,maji,salita,atay","maji","v","5","html-keyboard-response","1101","v","maji","true","",""
"1776.800000000745","","","","","5","html-slider-response","1102","","","","5",""
"2057","sock","ndoora,mamba,kimysa,mtirka","mamba","v","5","html-keyboard-response","1103","v","mamba","true","",""
"2204.5999999996275","","","","","5","html-slider-response","1104","","","","5",""
"1899","cop","bustani,mechezo,jikoni,bakus","mechezo","v","5","html-keyboard-response","1105","v","mechezo","true","",""
"1799.9000000003725","","","","","5","html-slider-response","1106","","","","5",""
"4622","gift","baba,pagtawag,nyange,baso","pagtawag","v","5","html-keyboard-response","1107","v","pagtawag","true","",""
"1574.199999999255","","","","","5","html-slider-response","1108","","","","5",""
"8357","notebook","kemia,msitu,kila,mdudu","kemia","f","5","html-keyboard-response","1109","n","mdudu","false","",""
"2474.4000000003725","","","","","5","html-slider-response","1110","","","","1",""
"4858","bank","kudhibi,tualya,silingan,ofisi","silingan","j","5","html-keyboard-response","1111","j","silingan","true","",""
"2496.60000000149","","","","","5","html-slider-response","1112","","","","1",""
"2585","letter","filimbi,kifua,chuma,uhuru","kifua","v","5","html-keyboard-response","1113","v","kifua","true","",""
"2440.5","","","","","5","html-slider-response","1114","","","","5",""
"2406","candle","gabi,geza,farasi,kupanda","geza","v","5","html-keyboard-response","1115","v","geza","true","",""
"1889.5","","","","","5","html-slider-response","1116","","","","5",""
"2461","bread","kaili,dizeli,bugas,dari","dari","n","5","html-keyboard-response","1117","n","dari","true","",""
"2587.0999999996275","","","","","5","html-slider-response","1118","","","","5",""
"3047","snake","jansa,pagtukod,karon,mvringo","pagtukod","v","5","html-keyboard-response","1119","v","pagtukod","true","",""
"1630.5999999996275","","","","","5","html-slider-response","1120","","","","4",""
"2844","rose","singizi,mwanake,paghalad,amani","paghalad","j","5","html-keyboard-response","1121","j","paghalad","true","",""
"2103.4000000003725","","","","","5","html-slider-response","1122","","","","5",""
"8188","hill","kushoto,kukimba,matumbo,sweta","matumbo","j","5","html-keyboard-response","1123","n","sweta","false","",""
"2541.39999999851","","","","","5","html-slider-response","1124","","","","1",""
"2754","train","sayari,itik,dakika,mungu","sayari","f","5","html-keyboard-response","1125","f","sayari","true","",""
"2013","","","","","5","html-slider-response","1126","","","","5",""
"2518","shop","nopya,samaki,kerida,ndezu","samaki","v","5","html-keyboard-response","1127","v","samaki","true","",""
"2507.5","","","","","5","html-slider-response","1128","","","","5",""
"4385","nose","sehemu,gubat,kopa,kidole","sehemu","f","5","html-keyboard-response","1129","f","sehemu","true","",""
"1754.5","","","","","5","html-slider-response","1130","","","","5",""
"3249","boat","agalon,hamsi,pombe,kitanda","agalon","f","5","html-keyboard-response","1131","f","agalon","true","",""
"1630.9000000003725","","","","","5","html-slider-response","1132","","","","5",""
"1989","body","nyundu,jibini,tindashan,kununa","tindashan","j","5","html-keyboard-response","1133","j","tindashan","true","",""
"1529.7000000011176","","","","","5","html-slider-response","1134","","","","5",""
"3699","bed","kalipay,mapintas,haraka,starehe","mapintas","v","5","html-keyboard-response","1135","v","mapintas","true","",""
"2170.7999999988824","","","","","5","html-slider-response","1136","","","","5",""
"2101","squirrel","mahugaw,ukweli,kichwa,hofu","hofu","n","5","html-keyboard-response","1137","n","hofu","true","",""
"1732.4000000003725","","","","","5","html-slider-response","1138","","","","5",""
"3373","window","kweli,nanga,kujenga,umaga","kweli","f","5","html-keyboard-response","1139","f","kweli","true","",""
"3082","","","","","5","html-slider-response","1140","","","","5",""
"1719","bonfire","mwezi,mfuko,goti,kusanya","goti","j","5","html-keyboard-response","1141","j","goti","true","",""
"1799.800000000745","","","","","5","html-slider-response","1142","","","","5",""
"1854","fish","bala,baho,buli,imani","buli","j","5","html-keyboard-response","1143","j","buli","true","",""
"1889.5","","","","","5","html-slider-response","1144","","","","5",""
"4183","cat","paghukom,neyemba,baki,akili","paghukom","f","5","html-keyboard-response","1145","f","paghukom","true","",""
"2361.4000000003725","","","","","5","html-slider-response","1146","","","","4",""
"1753","spider","bunyag,mkboa,kamwe,atop","kamwe","j","5","html-keyboard-response","1147","j","kamwe","true","",""
"2361.89999999851","","","","","5","html-slider-response","1148","","","","5",""
"4285","eel","ishara,msumari,kunywa,kabuang","msumari","v","5","html-keyboard-response","1149","v","msumari","true","",""
"1978.9000000003725","","","","","5","html-slider-response","1150","","","","2",""
"1921","woman","bandari,bituin,pagtabon,kovuli","pagtabon","j","5","html-keyboard-response","1151","j","pagtabon","true","",""
"1833.300000000745","","","","","5","html-slider-response","1152","","","","5",""
"2316","magazine","kiti,gundi,mchawi,bahandi","kiti","f","5","html-keyboard-response","1153","f","kiti","true","",""
"1563.5","","","","","5","html-slider-response","1154","","","","5",""
"4059","pudding","abug,mpishi,iring,aibu","aibu","n","5","html-keyboard-response","1155","n","aibu","true","",""
"3981.7000000011176","","","","","5","html-slider-response","1156","","","","3",""
"2146","lamp","daub,bilaska,mbolea,afya","afya","n","5","html-keyboard-response","1157","n","afya","true","",""
"1822","","","","","5","html-slider-response","1158","","","","4",""
"1730","cave","ganti,maisha,kesho,nyundo","kesho","j","5","html-keyboard-response","1159","j","kesho","true","",""
"1709.4000000003725","","","","","5","html-slider-response","1160","","","","5",""
"2293","shoulder","mkuu,kelele,ndaniya,guruwe","mkuu","f","5","html-keyboard-response","1161","f","mkuu","true","",""
"2362","","","","","5","html-slider-response","1162","","","","5",""
"1843","stone","ulimwengu,mkasi,asili,wingi","wingi","n","5","html-keyboard-response","1163","n","wingi","true","",""
"2125.7999999988824","","","","","5","html-slider-response","1164","","","","5",""
"2282","column","ufagio,pundok,dila,pala","ufagio","f","5","html-keyboard-response","1165","f","ufagio","true","",""
"1788.4000000003725","","","","","5","html-slider-response","1166","","","","5",""
"5161","page","wakala,ishiri,skina,wimbo","wimbo","n","5","html-keyboard-response","1167","n","wimbo","true","",""
"2092.0999999996275","","","","","5","html-slider-response","1168","","","","2",""
"2765","shoe","uyoga,nyeusi,hatua,kama","uyoga","f","5","html-keyboard-response","1169","f","uyoga","true","",""
"1766","","","","","5","html-slider-response","1170","","","","5",""
"2585","clock","mbwa,kartasi,abang,osha","mbwa","f","5","html-keyboard-response","1171","f","mbwa","true","",""
"2215.5","","","","","5","html-slider-response","1172","","","","5",""
"4150","towel","tembo,funzi,pagpalit,pito","pagpalit","j","5","html-keyboard-response","1173","j","pagpalit","true","",""
"2148.2000000011176","","","","","5","html-slider-response","1174","","","","4",""
"2146","tomato","chupi,chupa,mvua,takatak","mvua","j","5","html-keyboard-response","1175","j","mvua","true","",""
"2046.8999999985099","","","","","5","html-slider-response","1176","","","","5",""
"4858","bucket","baga,kiatu,ijayo,init","kiatu","v","5","html-keyboard-response","1177","v","kiatu","true","",""
"1653.0999999996275","","","","","5","html-slider-response","1178","","","","1",""
"2428","finger","simu,moyo,sufuria,lima","moyo","v","5","html-keyboard-response","1179","v","moyo","true","",""
"1687.0999999996275","","","","","5","html-slider-response","1180","","","","5",""
"2112","mother","kahawa,babaye,mbuzi,jokofu","babaye","v","5","html-keyboard-response","1181","v","babaye","true","",""
"2137","","","","","5","html-slider-response","1182","","","","5",""
"2304","human","bado,kikapu,tinapay,punguza","tinapay","j","5","html-keyboard-response","1183","j","tinapay","true","",""
"1765.7999999988824","","","","","5","html-slider-response","1184","","","","5",""
"2146","sun","bendi,luha,uongo,basi","basi","n","5","html-keyboard-response","1185","n","basi","true","",""
"1776.8999999985099","","","","","5","html-slider-response","1186","","","","5",""
"6658","fork","baboy,paghago,gorisi,mgonjwa","mgonjwa","n","5","html-keyboard-response","1187","v","paghago","false","",""
"2282.7000000011176","","","","","5","html-slider-response","1188","","","","2",""
"1719","donkey","bloke,lalake,elfu,rombus","elfu","j","5","html-keyboard-response","1189","j","elfu","true","",""
"1597.0999999996275","","","","","5","html-slider-response","1190","","","","5",""
"3361","wolf","kaburi,ndizi,lugha,mchuzi","lugha","j","5","html-keyboard-response","1191","j","lugha","true","",""
"2451.7000000011176","","","","","5","html-slider-response","1192","","","","5",""
"5004","cigar","ndugu,adhabu,kuta,mlango","adhabu","v","5","html-keyboard-response","1193","v","adhabu","true","",""
"2273.2000000011176","","","","","5","html-slider-response","1194","","","","2",""
"2067","olive","bata,siagi,jiwe,welder","jiwe","j","5","html-keyboard-response","1195","j","jiwe","true","",""
"1978.9000000003725","","","","","5","html-slider-response","1196","","","","5",""
"2731","key","chombo,miaka,goma,ahos","chombo","f","5","html-keyboard-response","1197","f","chombo","true","",""
"1743.0999999996275","","","","","5","html-slider-response","1198","","","","5",""
"2304","door","tena,soko,nyota,surali","surali","n","5","html-keyboard-response","1199","n","surali","true","",""
"3048","","","","","5","html-slider-response","1200","","","","5",""
"2822","wheel","bafuni,punda,tawo,baadaye","bafuni","f","5","html-keyboard-response","1201","f","bafuni","true","",""
"2238.4000000003725","","","","","5","html-slider-response","1202","","","","4",""
"2720","basket","kumbuka,kumba,utepe,hasira","kumba","v","5","html-keyboard-response","1203","v","kumba","true","",""
"1833.3999999985099","","","","","5","html-slider-response","1204","","","","5",""
"2934","elephant","petye,pagduol,suka,kito","kito","n","5","html-keyboard-response","1205","n","kito","true","",""
"1810.9000000003725","","","","","5","html-slider-response","1206","","","","5",""
"4396","office","leso,hazini,yatima,kuna","leso","f","5","html-keyboard-response","1207","f","leso","true","",""
"1878.4000000003725","","","","","5","html-slider-response","1208","","","","5",""
"2878","music","mraba,baiski,mageho,tumbo","baiski","v","5","html-keyboard-response","1209","v","baiski","true","",""
"2136.89999999851","","","","","5","html-slider-response","1210","","","","5",""
"3643","tissue","lamigas,ugomvi,kisiwa,katika","ugomvi","v","5","html-keyboard-response","1211","v","ugomvi","true","",""
"1934.7000000011176","","","","","5","html-slider-response","1212","","","","5",""
"2180","curtain","lisud,bulwawan,chubani,mchanga","mchanga","n","5","html-keyboard-response","1213","n","mchanga","true","",""
"2553.300000000745","","","","","5","html-slider-response","1214","","","","5",""
"1956","flag","ndege,mkate,kawa,trekta","trekta","n","5","html-keyboard-response","1215","n","trekta","true","",""
"1855.699999999255","","","","","5","html-slider-response","1216","","","","5",""
"2348","dog","lubi,washia,bahari,kalamu","bahari","j","5","html-keyboard-response","1217","j","bahari","true","",""
"1709.5","","","","","5","html-slider-response","1218","","","","5",""
"2619","cup","dagat,shimoni,jeraha,matumai","matumai","n","5","html-keyboard-response","1219","n","matumai","true","",""
"1889.9000000003725","","","","","5","html-slider-response","1220","","","","5",""
"2000","sheet","juuya,bililhon,watu,kamantis","bililhon","v","5","html-keyboard-response","1221","v","bililhon","true","",""
"1687.2000000011176","","","","","5","html-slider-response","1222","","","","5",""
"2102","spoon","betri,nzuri,ngazi,pagsulod","pagsulod","n","5","html-keyboard-response","1223","n","pagsulod","true","",""
"2418.0999999996275","","","","","5","html-slider-response","1224","","","","4",""
"1854","flower","tamasha,lobo,usiku,bega","bega","n","5","html-keyboard-response","1225","n","bega","true","",""
"1732.2000000011176","","","","","5","html-slider-response","1226","","","","5",""
"7525","picture","kubwa,silya,chaki,asin","kubwa","f","5","html-keyboard-response","1227","n","asin","false","",""
"2484.60000000149","","","","","5","html-slider-response","1228","","","","1",""
"3170","puppet","napulo,mazishi,lamok,godoro","mazishi","v","5","html-keyboard-response","1229","v","mazishi","true","",""
"1990.699999999255","","","","","5","html-slider-response","1230","","","","5",""
"1584","banana","kasamok,hagdan,twai,kazi","kazi","n","5","html-keyboard-response","1231","n","kazi","true","",""
"1788.300000000745","","","","","5","html-slider-response","1232","","","","5",""
"2731","book","kuhesa,picha,mali,mara","mali","j","5","html-keyboard-response","1233","j","mali","true","",""
"2429.300000000745","","","","","5","html-slider-response","1234","","","","5",""
"2574","triangle","kasadpan,kihozi,bentaha,liog","kasadpan","f","5","html-keyboard-response","1235","f","kasadpan","true","",""
"1991","","","","","5","html-slider-response","1236","","","","5",""
"3969","poster","nchi,fedha,kasuko,madungog","madungog","n","5","html-keyboard-response","1237","n","madungog","true","",""
"1878.4000000003725","","","","","5","html-slider-response","1238","","","","1",""
"3643","box","kuacha,adui,rafiki,kitande","adui","v","5","html-keyboard-response","1239","v","adui","true","",""
"1608","","","","","5","html-slider-response","1240","","","","4",""
"1978","mosquito","isda,taras,martilyo,gutom","martilyo","j","5","html-keyboard-response","1241","j","martilyo","true","",""
"1743.699999999255","","","","","5","html-slider-response","1242","","","","5",""
"2619","shelf","bungtod,pamahaw,kadaot,awit","pamahaw","v","5","html-keyboard-response","1243","v","pamahaw","true","",""
"1675.9000000003725","","","","","5","html-slider-response","1244","","","","5",""
"1720","scissors","duga,mtawa,tanuri,suga","tanuri","j","5","html-keyboard-response","1245","j","tanuri","true","",""
"2429.7000000011176","","","","","5","html-slider-response","1246","","","","4",""
"3035","hammer","napakyas,mekno,kitovu,layag","napakyas","f","5","html-keyboard-response","1247","f","napakyas","true","",""
"2260.9000000003725","","","","","5","html-slider-response","1248","","","","5",""
