"rt","en_word","options","swa_word","correct_answer","phase","trial_type","trial_index","input_answer","input_word","accuracy","certainty","amt_choices"
"2573","bonfire","mwezi,goti,mfuko,kusanya","goti","v","2","html-keyboard-response","106","v","goti","true","",""
"3138","","","","","2","html-slider-response","107","","","","2",""
"4977","flower","tamasha,lobo,bega,usiku","bega","j","2","html-keyboard-response","108","j","bega","true","",""
"4097.799999982119","","","","","2","html-slider-response","109","","","","3",""
"9318","column","pundok,ufagio,dila,pala","ufagio","v","2","html-keyboard-response","110","j","dila","false","",""
"2507.9000000059605","","","","","2","html-slider-response","111","","","","2",""
"2681","music","mraba,mageho,tumbo,baiski","baiski","n","2","html-keyboard-response","112","n","baiski","true","",""
"3140.4000000059605","","","","","2","html-slider-response","113","","","","5",""
"10481","spider","bunyag,mkboa,atop,kamwe","kamwe","n","2","html-keyboard-response","114","n","kamwe","true","",""
"3445.7999999821186","","","","","2","html-slider-response","115","","","","4",""
"3953","fork","mgonjwa,baboy,paghago,gorisi","mgonjwa","f","2","html-keyboard-response","116","f","mgonjwa","true","",""
"3327.300000011921","","","","","2","html-slider-response","117","","","","5",""
"3744","mosquito","isda,taras,martilyo,gutom","martilyo","j","2","html-keyboard-response","118","j","martilyo","true","",""
"3130.800000011921","","","","","2","html-slider-response","119","","","","5",""
"3040","banana","kasamok,kazi,hagdan,twai","kazi","v","2","html-keyboard-response","120","v","kazi","true","",""
"2993.399999976158","","","","","2","html-slider-response","121","","","","5",""
"3436","cup","dagat,shimoni,jeraha,matumai","matumai","n","2","html-keyboard-response","122","n","matumai","true","",""
"2723.5","","","","","2","html-slider-response","123","","","","5",""
"2534","shop","samaki,nopya,kerida,ndezu","samaki","f","2","html-keyboard-response","124","f","samaki","true","",""
"3362.2000000178814","","","","","2","html-slider-response","125","","","","4",""
"3425","elephant","petye,pagduol,kito,suka","kito","j","2","html-keyboard-response","126","v","pagduol","false","",""
"2776.4000000059605","","","","","2","html-slider-response","127","","","","1",""
"7757","bucket","kiatu,baga,ijayo,init","kiatu","f","2","html-keyboard-response","128","n","init","false","",""
"2945.4000000059605","","","","","2","html-slider-response","129","","","","2",""
"7853","book","kuhesa,picha,mara,mali","mali","n","2","html-keyboard-response","130","n","mali","true","",""
"3224.300000011921","","","","","2","html-slider-response","131","","","","2",""
"4202","mirror","rangi,sulagma,kanding,furaha","sulagma","v","2","html-keyboard-response","132","v","sulagma","true","",""
"2848.9000000059605","","","","","2","html-slider-response","133","","","","4",""
"3704","office","hazini,yatima,kuna,leso","leso","n","2","html-keyboard-response","134","n","leso","true","",""
"3404.4000000059605","","","","","2","html-slider-response","135","","","","4",""
"3963","body","nyundu,jibini,tindashan,kununa","tindashan","j","2","html-keyboard-response","136","f","nyundu","false","",""
"3009","","","","","2","html-slider-response","137","","","","2",""
"4725","perfume","bino,sungura,katuyoan,ndogo","katuyoan","j","2","html-keyboard-response","138","j","katuyoan","true","",""
"2707.199999988079","","","","","2","html-slider-response","139","","","","1",""
"4196","olive","bata,jiwe,siagi,welder","jiwe","v","2","html-keyboard-response","140","f","bata","false","",""
"3921.199999988079","","","","","2","html-slider-response","141","","","","1",""
"8135","magazine","gundi,kiti,mchawi,bahandi","kiti","v","2","html-keyboard-response","142","n","bahandi","false","",""
"2681.5","","","","","2","html-slider-response","143","","","","2",""
"6052","bread","kaili,dari,dizeli,bugas","dari","v","2","html-keyboard-response","144","n","bugas","false","",""
"2897.199999988079","","","","","2","html-slider-response","145","","","","2",""
"3200","cave","ganti,kesho,maisha,nyundo","kesho","v","2","html-keyboard-response","146","n","nyundo","false","",""
"2550.0999999940395","","","","","2","html-slider-response","147","","","","1",""
"3694","ladder","mashua,mwanga,kamba,pangalan","pangalan","n","2","html-keyboard-response","148","n","pangalan","true","",""
"3136.2000000178814","","","","","2","html-slider-response","149","","","","1",""
"4403","human","bado,tinapay,kikapu,punguza","tinapay","v","2","html-keyboard-response","150","j","kikapu","false","",""
"3276.699999988079","","","","","2","html-slider-response","151","","","","1",""
"21025","clock","kartasi,abang,osha,mbwa","mbwa","n","2","html-keyboard-response","152","j","osha","false","",""
"2435.399999976158","","","","","2","html-slider-response","153","","","","2",""
"4369","shelf","bungtod,kadaot,pamahaw,awit","pamahaw","j","2","html-keyboard-response","154","f","bungtod","false","",""
"3307.199999988079","","","","","2","html-slider-response","155","","","","1",""
"3913","salmon","mzungu,sensilyo,seri,baharia","sensilyo","v","2","html-keyboard-response","156","v","sensilyo","true","",""
"3208.5","","","","","2","html-slider-response","157","","","","5",""
"9154","coffin","barua,tubag,kioo,hulma","kioo","j","2","html-keyboard-response","158","v","tubag","false","",""
"3582.7000000178814","","","","","2","html-slider-response","159","","","","2",""
"9896","notebook","kemia,msitu,kila,mdudu","kemia","f","2","html-keyboard-response","160","f","kemia","true","",""
"2929.0999999940395","","","","","2","html-slider-response","161","","","","2",""
"5499","shoulder","kelele,ndaniya,guruwe,mkuu","mkuu","n","2","html-keyboard-response","162","j","guruwe","false","",""
"2904.699999988079","","","","","2","html-slider-response","163","","","","2",""
"18084","park","tambok,bunifu,pwani,ihalas","bunifu","v","2","html-keyboard-response","164","f","tambok","false","",""
"3220.5999999940395","","","","","2","html-slider-response","165","","","","2",""
"4266","number","shule,mundamo,kengele,choori","mundamo","v","2","html-keyboard-response","166","j","kengele","false","",""
"2878.7999999821186","","","","","2","html-slider-response","167","","","","2",""
"5527","apple","kisu,ukame,estante,edad","kisu","f","2","html-keyboard-response","168","v","ukame","false","",""
"3327.5","","","","","2","html-slider-response","169","","","","1",""
"4439","letter","filimbi,chuma,kifua,uhuru","kifua","j","2","html-keyboard-response","170","j","kifua","true","",""
"2614.199999988079","","","","","2","html-slider-response","171","","","","4",""
"15377","eel","ishara,msumari,kunywa,kabuang","msumari","v","2","html-keyboard-response","172","v","msumari","true","",""
"3677.5999999940395","","","","","2","html-slider-response","173","","","","4",""
"5007","cop","bustani,jikoni,bakus,mechezo","mechezo","n","2","html-keyboard-response","174","f","bustani","false","",""
"2393.5","","","","","2","html-slider-response","175","","","","1",""
"7049","wolf","lugha,kaburi,ndizi,mchuzi","lugha","f","2","html-keyboard-response","176","n","mchuzi","false","",""
"3111.899999976158","","","","","2","html-slider-response","177","","","","1",""
"8563","squirrel","mahugaw,ukweli,hofu,kichwa","hofu","j","2","html-keyboard-response","178","j","hofu","true","",""
"2278.0999999940395","","","","","2","html-slider-response","179","","","","2",""
"4679","nose","gubat,kopa,sehemu,kidole","sehemu","j","2","html-keyboard-response","180","f","gubat","false","",""
"2996.9000000059605","","","","","2","html-slider-response","181","","","","2",""
"4182","sock","ndoora,kimysa,mtirka,mamba","mamba","n","2","html-keyboard-response","182","j","mtirka","false","",""
"2712.4000000059605","","","","","2","html-slider-response","183","","","","1",""
"30958","bank","kudhibi,tualya,silingan,ofisi","silingan","j","2","html-keyboard-response","184","f","kudhibi","false","",""
"3088.0999999940395","","","","","2","html-slider-response","185","","","","2",""
"2522","donkey","bloke,elfu,lalake,rombus","elfu","v","2","html-keyboard-response","186","v","elfu","true","",""
"2434.0999999940395","","","","","2","html-slider-response","187","","","","5",""
"5366","poster","madungog,nchi,fedha,kasuko","madungog","f","2","html-keyboard-response","188","j","fedha","false","",""
"2445.199999988079","","","","","2","html-slider-response","189","","","","1",""
"3908","puppet","napulo,lamok,godoro,mazishi","mazishi","n","2","html-keyboard-response","190","j","godoro","false","",""
"2687.2000000178814","","","","","2","html-slider-response","191","","","","1",""
"2280","hill","kushoto,kukimba,matumbo,sweta","matumbo","j","2","html-keyboard-response","192","j","matumbo","true","",""
"2490.0999999940395","","","","","2","html-slider-response","193","","","","5",""
"3953","tooth","kijiko,uadui,kabalaka,pahiyum","kabalaka","j","2","html-keyboard-response","194","n","pahiyum","false","",""
"5011.300000011921","","","","","2","html-slider-response","195","","","","3",""
"4895","woman","bandari,bituin,pagtabon,kovuli","pagtabon","j","2","html-keyboard-response","196","v","bituin","false","",""
"3761.2999999821186","","","","","2","html-slider-response","197","","","","2",""
"4374","wheel","punda,bafuni,tawo,baadaye","bafuni","v","2","html-keyboard-response","198","n","baadaye","false","",""
"3043.699999988079","","","","","2","html-slider-response","199","","","","1",""
"5681","mother","babaye,kahawa,mbuzi,jokofu","babaye","f","2","html-keyboard-response","200","f","babaye","true","",""
"2720.7999999821186","","","","","2","html-slider-response","201","","","","5",""
"5950","bed","kalipay,haraka,mapintas,starehe","mapintas","j","2","html-keyboard-response","202","f","kalipay","false","",""
"5203.299999982119","","","","","2","html-slider-response","203","","","","1",""
"4899","key","chombo,miaka,goma,ahos","chombo","f","2","html-keyboard-response","204","n","ahos","false","",""
"2320","","","","","2","html-slider-response","205","","","","1",""
"5792","page","wakala,wimbo,ishiri,skina","wimbo","v","2","html-keyboard-response","206","n","skina","false","",""
"2719.199999988079","","","","","2","html-slider-response","207","","","","2",""
"3828","pants","pintal,chuki,haki,hari","haki","j","2","html-keyboard-response","208","v","chuki","false","",""
"3148.9000000059605","","","","","2","html-slider-response","209","","","","2",""
"2855","sun","bendi,basi,luha,uongo","basi","v","2","html-keyboard-response","210","j","luha","false","",""
"7385.299999982119","","","","","2","html-slider-response","211","","","","3",""
"7649","finger","simu,sufuria,lima,moyo","moyo","n","2","html-keyboard-response","212","f","simu","false","",""
"3119.5","","","","","2","html-slider-response","213","","","","3",""
"7111","shoe","nyeusi,uyoga,hatua,kama","uyoga","v","2","html-keyboard-response","214","v","uyoga","true","",""
"2385.7999999821186","","","","","2","html-slider-response","215","","","","2",""
"6034","giraffe","mahitabo,daraja,jumatu,hangyo","mahitabo","f","2","html-keyboard-response","216","v","daraja","false","",""
"1885.2999999821186","","","","","2","html-slider-response","217","","","","2",""
"4796","dog","lubi,bahari,washia,kalamu","bahari","v","2","html-keyboard-response","218","f","lubi","false","",""
"1876.0999999940395","","","","","2","html-slider-response","219","","","","2",""
"4123","box","kuacha,adui,rafiki,kitande","adui","v","2","html-keyboard-response","220","n","kitande","false","",""
"1660.4000000059605","","","","","2","html-slider-response","221","","","","1",""
"4308","scissors","duga,mtawa,suga,tanuri","tanuri","n","2","html-keyboard-response","222","n","tanuri","true","",""
"2581.699999988079","","","","","2","html-slider-response","223","","","","1",""
"2145","cat","neyemba,baki,akili,paghukom","paghukom","n","2","html-keyboard-response","224","v","baki","false","",""
"2009","","","","","2","html-slider-response","225","","","","2",""
"5302","basket","kumbuka,utepe,hasira,kumba","kumba","n","2","html-keyboard-response","226","v","utepe","false","",""
"1711.7999999821186","","","","","2","html-slider-response","227","","","","2",""
"4700","snake","pagtukod,jansa,karon,mvringo","pagtukod","f","2","html-keyboard-response","228","n","mvringo","false","",""
"1625.699999988079","","","","","2","html-slider-response","229","","","","2",""
"3528","gift","baba,nyange,baso,pagtawag","pagtawag","n","2","html-keyboard-response","230","n","pagtawag","true","",""
"2147.399999976158","","","","","2","html-slider-response","231","","","","2",""
"5613","train","itik,dakika,sayari,mungu","sayari","j","2","html-keyboard-response","232","v","dakika","false","",""
"2388.399999976158","","","","","2","html-slider-response","233","","","","3",""
"11285","pudding","aibu,abug,mpishi,iring","aibu","f","2","html-keyboard-response","234","v","abug","false","",""
"2276","","","","","2","html-slider-response","235","","","","1",""
"3147","tomato","chupi,mvua,chupa,takatak","mvua","v","2","html-keyboard-response","236","f","chupi","false","",""
"2380","","","","","2","html-slider-response","237","","","","2",""
"4511","stone","ulimwengu,mkasi,wingi,asili","wingi","j","2","html-keyboard-response","238","f","ulimwengu","false","",""
"2858.5999999940395","","","","","2","html-slider-response","239","","","","1",""
"4653","hammer","napakyas,mekno,kitovu,layag","napakyas","f","2","html-keyboard-response","240","n","layag","false","",""
"2066.9000000059605","","","","","2","html-slider-response","241","","","","1",""
"2575","knee","mvuke,kubale,duka,bili","duka","j","2","html-keyboard-response","242","v","kubale","false","",""
"2113.699999988079","","","","","2","html-slider-response","243","","","","1",""
"4718","ceiling","maua,kugita,kawaida,rayna","maua","f","2","html-keyboard-response","244","v","kugita","false","",""
"2181.800000011921","","","","","2","html-slider-response","245","","","","1",""
"2882","spoon","betri,nzuri,pagsulod,ngazi","pagsulod","j","2","html-keyboard-response","246","f","betri","false","",""
"1459.3999999761581","","","","","2","html-slider-response","247","","","","2",""
"4607","marker","mapafu,maji,salita,atay","maji","v","2","html-keyboard-response","248","n","atay","false","",""
"2104.7999999821186","","","","","2","html-slider-response","249","","","","1",""
"2259","candle","gabi,geza,farasi,kupanda","geza","v","2","html-keyboard-response","250","v","geza","true","",""
"2025.5999999940395","","","","","2","html-slider-response","251","","","","1",""
"4045","tissue","lamigas,ugomvi,kisiwa,katika","ugomvi","v","2","html-keyboard-response","252","f","lamigas","false","",""
"1785.199999988079","","","","","2","html-slider-response","253","","","","2",""
"5927","bridge","daima,ngono,panya,sahani","sahani","n","2","html-keyboard-response","254","v","ngono","false","",""
"3564.0999999940395","","","","","2","html-slider-response","255","","","","1",""
"6111","berry","abogado,nogozi,kinywa,kofia","kofia","n","2","html-keyboard-response","256","n","kofia","true","",""
"2218","","","","","2","html-slider-response","257","","","","2",""
"4194","triangle","kihozi,bentaha,liog,kasadpan","kasadpan","n","2","html-keyboard-response","258","v","bentaha","false","",""
"1931.4000000059605","","","","","2","html-slider-response","259","","","","1",""
"3440","door","tena,soko,nyota,surali","surali","n","2","html-keyboard-response","260","v","soko","false","",""
"2834.2999999821186","","","","","2","html-slider-response","261","","","","1",""
"3533","fish","bala,baho,buli,imani","buli","j","2","html-keyboard-response","262","f","bala","false","",""
"1563.9000000059605","","","","","2","html-slider-response","263","","","","2",""
"4092","curtain","mchanga,lisud,bulwawan,chubani","mchanga","f","2","html-keyboard-response","264","n","chubani","false","",""
"2567.699999988079","","","","","2","html-slider-response","265","","","","1",""
"3502","flag","ndege,mkate,trekta,kawa","trekta","j","2","html-keyboard-response","266","n","kawa","false","",""
"2112.699999988079","","","","","2","html-slider-response","267","","","","1",""
"4475","boat","hamsi,agalon,pombe,kitanda","agalon","v","2","html-keyboard-response","268","n","kitanda","false","",""
"5075","","","","","2","html-slider-response","269","","","","3",""
"4561","rose","singizi,paghalad,mwanake,amani","paghalad","v","2","html-keyboard-response","270","f","singizi","false","",""
"2630.0999999940395","","","","","2","html-slider-response","271","","","","1",""
"2582","lamp","daub,bilaska,mbolea,afya","afya","n","2","html-keyboard-response","272","f","daub","false","",""
"2814.399999976158","","","","","2","html-slider-response","273","","","","2",""
"19028","cigar","ndugu,kuta,mlango,adhabu","adhabu","n","2","html-keyboard-response","274","n","adhabu","true","",""
"1561.7000000178814","","","","","2","html-slider-response","275","","","","2",""
"2121","list","alizeti,wingu,kuzama,kaso","wingu","v","2","html-keyboard-response","276","v","wingu","true","",""
"2256.5","","","","","2","html-slider-response","277","","","","1",""
"10980","sheet","juuya,bililhon,watu,kamantis","bililhon","v","2","html-keyboard-response","278","j","watu","false","",""
"1868.5999999940395","","","","","2","html-slider-response","279","","","","1",""
"4500","picture","silya,chaki,asin,kubwa","kubwa","n","2","html-keyboard-response","280","v","chaki","false","",""
"2108","","","","","2","html-slider-response","281","","","","2",""
"2380","towel","pagpalit,tembo,funzi,pito","pagpalit","f","2","html-keyboard-response","282","f","pagpalit","true","",""
"1893.699999988079","","","","","2","html-slider-response","283","","","","1",""
"3128","window","nanga,kujenga,kweli,umaga","kweli","j","2","html-keyboard-response","284","v","kujenga","false","",""
"2607.800000011921","","","","","2","html-slider-response","285","","","","2",""
"4596","box","kuacha,rafiki,adui,kitande","adui","j","3","html-keyboard-response","293","n","kitande","false","","4"
"2637.7000000178814","","","","","3","html-slider-response","294","","","","2",""
"5493","","","","","3","html-keyboard-response","295","","","","",""
"3834","pants","haki,pintal,chuki,hari","haki","f","3","html-keyboard-response","296","j","chuki","false","","4"
"2311.800000011921","","","","","3","html-slider-response","297","","","","2",""
"5751","","","","","3","html-keyboard-response","298","","","","",""
"2429","cup","matumai,dagat,shimoni,jeraha","matumai","f","3","html-keyboard-response","299","f","matumai","true","","4"
"1863.3999999761581","","","","","3","html-slider-response","300","","","","5",""
"1734","","","","","3","html-keyboard-response","301","","","","",""
"3062","triangle","kasadpan,kihozi,bentaha,liog","kasadpan","f","3","html-keyboard-response","302","j","bentaha","false","","4"
"2192.4000000059605","","","","","3","html-slider-response","303","","","","1",""
"6079","","","","","3","html-keyboard-response","304","","","","",""
"3502","curtain","lisud,mchanga,bulwawan,chubani","mchanga","v","3","html-keyboard-response","305","j","bulwawan","false","","4"
"3074.9000000059605","","","","","3","html-slider-response","306","","","","1",""
"3597","","","","","3","html-keyboard-response","307","","","","",""
"3721","clock","kartasi,abang,osha,mbwa","mbwa","n","3","html-keyboard-response","308","j","osha","false","","4"
"2131.800000011921","","","","","3","html-slider-response","309","","","","1",""
"6583","","","","","3","html-keyboard-response","310","","","","",""
"2997","mirror","rangi,sulagma,kanding,furaha","sulagma","v","3","html-keyboard-response","311","v","sulagma","true","","4"
"2626","","","","","3","html-slider-response","312","","","","5",""
"1233","","","","","3","html-keyboard-response","313","","","","",""
"1698","coffin","barua,kioo,tubag,hulma","kioo","v","3","html-keyboard-response","314","v","kioo","true","","1"
"2629.399999976158","","","","","3","html-slider-response","315","","","","5",""
"3668","","","","","3","html-keyboard-response","316","","","","",""
"4330","magazine","kiti,gundi,mchawi,bahandi","kiti","f","3","html-keyboard-response","317","f","kiti","true","","4"
"2153.0999999940395","","","","","3","html-slider-response","318","","","","2",""
"4025","","","","","3","html-keyboard-response","319","","","","",""
"1811","column","ufagio,pundok,dila,pala","ufagio","f","3","html-keyboard-response","320","f","ufagio","true","","1"
"2344.600000023842","","","","","3","html-slider-response","321","","","","5",""
"4637","","","","","3","html-keyboard-response","322","","","","",""
"3682","number","shule,kengele,choori,mundamo","mundamo","n","3","html-keyboard-response","323","n","mundamo","true","","4"
"2519.5","","","","","3","html-slider-response","324","","","","1",""
"3686","","","","","3","html-keyboard-response","325","","","","",""
"4140","rose","paghalad,singizi,mwanake,amani","paghalad","f","3","html-keyboard-response","326","n","amani","false","","4"
"2328.7000000178814","","","","","3","html-slider-response","327","","","","2",""
"7770","","","","","3","html-keyboard-response","328","","","","",""
"10095","eel","msumari,ishara,kunywa,kabuang","msumari","f","3","html-keyboard-response","329","f","msumari","true","","4"
"5681.700000017881","","","","","3","html-slider-response","330","","","","3",""
"1837","","","","","3","html-keyboard-response","331","","","","",""
"6516","gift","baba,nyange,pagtawag,baso","pagtawag","j","3","html-keyboard-response","332","j","pagtawag","true","","4"
"2655","","","","","3","html-slider-response","333","","","","2",""
"2819","","","","","3","html-keyboard-response","334","","","","",""
"1760","apple","kisu,ukame,estante,edad","kisu","f","3","html-keyboard-response","335","f","kisu","true","","1"
"2578","","","","","3","html-slider-response","336","","","","5",""
"2783","","","","","3","html-keyboard-response","337","","","","",""
"1841","wheel","punda,bafuni,tawo,baadaye","bafuni","v","3","html-keyboard-response","338","v","bafuni","true","","1"
"2172.7999999821186","","","","","3","html-slider-response","339","","","","5",""
"6376","","","","","3","html-keyboard-response","340","","","","",""
"6585","knee","mvuke,duka,kubale,bili","duka","v","3","html-keyboard-response","341","v","duka","true","","4"
"2220.5","","","","","3","html-slider-response","342","","","","1",""
"4182","","","","","3","html-keyboard-response","343","","","","",""
"1816","basket","kumbuka,kumba,utepe,hasira","kumba","v","3","html-keyboard-response","344","v","kumba","true","","1"
"2047.2000000178814","","","","","3","html-slider-response","345","","","","5",""
"3539","","","","","3","html-keyboard-response","346","","","","",""
"4324","park","tambok,bunifu,pwani,ihalas","bunifu","v","3","html-keyboard-response","347","f","tambok","false","","4"
"2485.5999999940395","","","","","3","html-slider-response","348","","","","2",""
"4107","","","","","3","html-keyboard-response","349","","","","",""
"4776","finger","simu,sufuria,moyo,lima","moyo","j","3","html-keyboard-response","350","n","lima","false","","4"
"1705.0999999940395","","","","","3","html-slider-response","351","","","","2",""
"3746","","","","","3","html-keyboard-response","352","","","","",""
"5869","boat","hamsi,agalon,pombe,kitanda","agalon","v","3","html-keyboard-response","353","v","agalon","true","","4"
"1760.5999999940395","","","","","3","html-slider-response","354","","","","2",""
"4075","","","","","3","html-keyboard-response","355","","","","",""
"2348","hill","kushoto,kukimba,matumbo,sweta","matumbo","j","3","html-keyboard-response","356","j","matumbo","true","","4"
"1769.5999999940395","","","","","3","html-slider-response","357","","","","5",""
"1562","","","","","3","html-keyboard-response","358","","","","",""
"4137","train","itik,sayari,dakika,mungu","sayari","v","3","html-keyboard-response","359","j","dakika","false","","4"
"2064.9000000059605","","","","","3","html-slider-response","360","","","","2",""
"3967","","","","","3","html-keyboard-response","361","","","","",""
"5454","wolf","kaburi,ndizi,lugha,mchuzi","lugha","j","3","html-keyboard-response","362","j","lugha","true","","4"
"2187.7999999821186","","","","","3","html-slider-response","363","","","","2",""
"2989","","","","","3","html-keyboard-response","364","","","","",""
"3843","snake","jansa,pagtukod,karon,mvringo","pagtukod","v","3","html-keyboard-response","365","n","mvringo","false","","4"
"1949.7000000178814","","","","","3","html-slider-response","366","","","","2",""
"9056","","","","","3","html-keyboard-response","367","","","","",""
"4850","tooth","kijiko,kabalaka,uadui,pahiyum","kabalaka","v","3","html-keyboard-response","368","v","kabalaka","true","","4"
"1632.199999988079","","","","","3","html-slider-response","369","","","","2",""
"2853","","","","","3","html-keyboard-response","370","","","","",""
"6431","notebook","msitu,kila,mdudu,kemia","kemia","n","3","html-keyboard-response","371","f","msitu","false","","4"
"1706.9000000059605","","","","","3","html-slider-response","372","","","","2",""
"3571","","","","","3","html-keyboard-response","373","","","","",""
"6113","flag","ndege,mkate,trekta,kawa","trekta","j","3","html-keyboard-response","374","f","ndege","false","","4"
"2084.699999988079","","","","","3","html-slider-response","375","","","","2",""
"2191","","","","","3","html-keyboard-response","376","","","","",""
"3537","squirrel","mahugaw,ukweli,kichwa,hofu","hofu","n","3","html-keyboard-response","377","j","kichwa","false","","4"
"2285.5999999940395","","","","","3","html-slider-response","378","","","","2",""
"3152","","","","","3","html-keyboard-response","379","","","","",""
"6669","door","tena,soko,nyota,surali","surali","n","3","html-keyboard-response","380","j","nyota","false","","4"
"1678.7999999821186","","","","","3","html-slider-response","381","","","","2",""
"2367","","","","","3","html-keyboard-response","382","","","","",""
"2838","salmon","sensilyo,mzungu,seri,baharia","sensilyo","f","3","html-keyboard-response","383","f","sensilyo","true","","4"
"2474.0999999940395","","","","","3","html-slider-response","384","","","","5",""
"983","","","","","3","html-keyboard-response","385","","","","",""
"5690","shoulder","kelele,ndaniya,guruwe,mkuu","mkuu","n","3","html-keyboard-response","386","v","ndaniya","false","","4"
"3202.300000011921","","","","","3","html-slider-response","387","","","","2",""
"8146","","","","","3","html-keyboard-response","388","","","","",""
"3986","lamp","afya,daub,bilaska,mbolea","afya","f","3","html-keyboard-response","389","v","daub","false","","4"
"1761.4000000059605","","","","","3","html-slider-response","390","","","","2",""
"2945","","","","","3","html-keyboard-response","391","","","","",""
"1796","shelf","pamahaw,bungtod,kadaot,awit","pamahaw","f","3","html-keyboard-response","392","f","pamahaw","true","","1"
"3282.2999999821186","","","","","3","html-slider-response","393","","","","5",""
"6606","","","","","3","html-keyboard-response","394","","","","",""
"4605","human","bado,tinapay,kikapu,punguza","tinapay","v","3","html-keyboard-response","395","j","kikapu","false","","4"
"1674.5999999940395","","","","","3","html-slider-response","396","","","","2",""
"2897","","","","","3","html-keyboard-response","397","","","","",""
"9771","towel","tembo,funzi,pagpalit,pito","pagpalit","j","3","html-keyboard-response","398","j","pagpalit","true","","4"
"3548.199999988079","","","","","3","html-slider-response","399","","","","3",""
"9831","","","","","3","html-keyboard-response","400","","","","",""
"3801","cat","neyemba,paghukom,baki,akili","paghukom","v","3","html-keyboard-response","401","j","baki","false","","4"
"4127.899999976158","","","","","3","html-slider-response","402","","","","3",""
"7376","","","","","3","html-keyboard-response","403","","","","",""
"11332","spider","kamwe,bunyag,mkboa,atop","kamwe","f","3","html-keyboard-response","404","f","kamwe","true","","4"
"2493.300000011921","","","","","3","html-slider-response","405","","","","3",""
"3507","","","","","3","html-keyboard-response","406","","","","",""
"5513","window","nanga,kujenga,kweli,umaga","kweli","j","3","html-keyboard-response","407","v","kujenga","false","","4"
"2720.9000000059605","","","","","3","html-slider-response","408","","","","2",""
"4722","","","","","3","html-keyboard-response","409","","","","",""
"1719","woman","bandari,bituin,kovuli,pagtabon","pagtabon","n","3","html-keyboard-response","410","n","pagtabon","true","","1"
"2785.7000000178814","","","","","3","html-slider-response","411","","","","5",""
"6684","","","","","3","html-keyboard-response","412","","","","",""
"5356","giraffe","mahitabo,daraja,jumatu,hangyo","mahitabo","f","3","html-keyboard-response","413","v","daraja","false","","4"
"3244.0999999940395","","","","","3","html-slider-response","414","","","","3",""
"5983","","","","","3","html-keyboard-response","415","","","","",""
"14120","elephant","petye,pagduol,suka,kito","kito","n","3","html-keyboard-response","416","v","pagduol","false","","4"
"4242","","","","","3","html-slider-response","417","","","","3",""
"2158","","","","","3","html-keyboard-response","418","","","","",""
"4836","cave","ganti,maisha,nyundo,kesho","kesho","n","3","html-keyboard-response","419","n","kesho","true","","4"
"2608.800000011921","","","","","3","html-slider-response","420","","","","3",""
"1230","","","","","3","html-keyboard-response","421","","","","",""
"7629","bread","dari,kaili,dizeli,bugas","dari","f","3","html-keyboard-response","422","n","bugas","false","","4"
"2684.300000011921","","","","","3","html-slider-response","423","","","","3",""
"4684","","","","","3","html-keyboard-response","424","","","","",""
"9807","stone","wingi,ulimwengu,mkasi,asili","wingi","f","3","html-keyboard-response","425","j","mkasi","false","","4"
"2682.800000011921","","","","","3","html-slider-response","426","","","","2",""
"2906","","","","","3","html-keyboard-response","427","","","","",""
"1900","donkey","elfu,bloke,lalake,rombus","elfu","f","3","html-keyboard-response","428","f","elfu","true","","4"
"1918.0999999940395","","","","","3","html-slider-response","429","","","","5",""
"1115","","","","","3","html-keyboard-response","430","","","","",""
"3378","bridge","daima,ngono,sahani,panya","sahani","j","3","html-keyboard-response","431","v","ngono","false","","4"
"1988.800000011921","","","","","3","html-slider-response","432","","","","2",""
"4419","","","","","3","html-keyboard-response","433","","","","",""
"4857","bonfire","mwezi,goti,mfuko,kusanya","goti","v","3","html-keyboard-response","434","f","mwezi","false","","4"
"1905.5","","","","","3","html-slider-response","435","","","","2",""
"4855","","","","","3","html-keyboard-response","436","","","","",""
"15933","book","kuhesa,mali,picha,mara","mali","v","3","html-keyboard-response","437","j","picha","false","","4"
"1636.9000000059605","","","","","3","html-slider-response","438","","","","2",""
"7941","","","","","3","html-keyboard-response","439","","","","",""
"5083","fish","bala,baho,imani,buli","buli","n","3","html-keyboard-response","440","j","imani","false","","4"
"1848.7000000178814","","","","","3","html-slider-response","441","","","","1",""
"2333","","","","","3","html-keyboard-response","442","","","","",""
"5801","spoon","pagsulod,betri,nzuri,ngazi","pagsulod","f","3","html-keyboard-response","443","f","pagsulod","true","","4"
"2342.699999988079","","","","","3","html-slider-response","444","","","","2",""
"5303","","","","","3","html-keyboard-response","445","","","","",""
"14645","scissors","duga,tanuri,mtawa,suga","tanuri","v","3","html-keyboard-response","446","j","mtawa","false","","4"
"2336.5999999940395","","","","","3","html-slider-response","447","","","","2",""
"20240","","","","","3","html-keyboard-response","448","","","","",""
"8709","page","wimbo,wakala,ishiri,skina","wimbo","f","3","html-keyboard-response","449","v","wakala","false","","4"
"1938.1000000238419","","","","","3","html-slider-response","450","","","","2",""
"8112","","","","","3","html-keyboard-response","451","","","","",""
"1483","nose","gubat,kopa,kidole,sehemu","sehemu","n","3","html-keyboard-response","452","n","sehemu","true","","1"
"1730.199999988079","","","","","3","html-slider-response","453","","","","5",""
"923","","","","","3","html-keyboard-response","454","","","","",""
"6438","ceiling","maua,kugita,kawaida,rayna","maua","f","3","html-keyboard-response","455","n","rayna","false","","4"
"1529.199999988079","","","","","3","html-slider-response","456","","","","2",""
"9778","","","","","3","html-keyboard-response","457","","","","",""
"6372","bucket","baga,ijayo,kiatu,init","kiatu","j","3","html-keyboard-response","458","n","init","false","","4"
"1856.0999999940395","","","","","3","html-slider-response","459","","","","1",""
"7160","","","","","3","html-keyboard-response","460","","","","",""
"1738","berry","abogado,nogozi,kinywa,kofia","kofia","n","3","html-keyboard-response","461","n","kofia","true","","1"
"2508.7000000178814","","","","","3","html-slider-response","462","","","","5",""
"4941","","","","","3","html-keyboard-response","463","","","","",""
"2211","mother","kahawa,mbuzi,jokofu,babaye","babaye","n","3","html-keyboard-response","464","n","babaye","true","","1"
"2375.800000011921","","","","","3","html-slider-response","465","","","","5",""
"1099","","","","","3","html-keyboard-response","466","","","","",""
"2253","mosquito","isda,taras,martilyo,gutom","martilyo","j","3","html-keyboard-response","467","j","martilyo","true","","4"
"2291.5999999940395","","","","","3","html-slider-response","468","","","","5",""
"801","","","","","3","html-keyboard-response","469","","","","",""
"4230","perfume","bino,sungura,katuyoan,ndogo","katuyoan","j","3","html-keyboard-response","470","v","sungura","false","","4"
"2102.7999999821186","","","","","3","html-slider-response","471","","","","2",""
"5601","","","","","3","html-keyboard-response","472","","","","",""
"12685","sheet","bililhon,juuya,watu,kamantis","bililhon","f","3","html-keyboard-response","473","n","kamantis","false","","4"
"2063.5","","","","","3","html-slider-response","474","","","","1",""
"6307","","","","","3","html-keyboard-response","475","","","","",""
"3064","puppet","napulo,mazishi,lamok,godoro","mazishi","v","3","html-keyboard-response","476","v","mazishi","true","","1"
"2284","","","","","3","html-slider-response","477","","","","5",""
"701","","","","","3","html-keyboard-response","478","","","","",""
"3541","poster","nchi,fedha,kasuko,madungog","madungog","n","3","html-keyboard-response","479","n","madungog","true","","4"
"2356.4000000059605","","","","","3","html-slider-response","480","","","","3",""
"11190","","","","","3","html-keyboard-response","481","","","","",""
"2930","music","baiski,mraba,mageho,tumbo","baiski","f","3","html-keyboard-response","482","f","baiski","true","","4"
"2173.5999999940395","","","","","3","html-slider-response","483","","","","5",""
"1645","","","","","3","html-keyboard-response","484","","","","",""
"4740","key","miaka,chombo,goma,ahos","chombo","v","3","html-keyboard-response","485","f","miaka","false","","4"
"2009.0999999940395","","","","","3","html-slider-response","486","","","","2",""
"12175","","","","","3","html-keyboard-response","487","","","","",""
"4508","sock","ndoora,kimysa,mamba,mtirka","mamba","j","3","html-keyboard-response","488","j","mamba","true","","4"
"1784.699999988079","","","","","3","html-slider-response","489","","","","2",""
"2532","","","","","3","html-keyboard-response","490","","","","",""
"5391","marker","mapafu,salita,atay,maji","maji","n","3","html-keyboard-response","491","n","maji","true","","4"
"2890.4000000059605","","","","","3","html-slider-response","492","","","","3",""
"3120","","","","","3","html-keyboard-response","493","","","","",""
"2419","office","hazini,leso,yatima,kuna","leso","v","3","html-keyboard-response","494","v","leso","true","","4"
"2848.699999988079","","","","","3","html-slider-response","495","","","","4",""
"929","","","","","3","html-keyboard-response","496","","","","",""
"7305","shoe","nyeusi,hatua,kama,uyoga","uyoga","n","3","html-keyboard-response","497","v","hatua","false","","4"
"3695.5999999940395","","","","","3","html-slider-response","498","","","","3",""
"1590","","","","","3","html-keyboard-response","499","","","","",""
"9992","cop","mechezo,bustani,jikoni,bakus","mechezo","f","3","html-keyboard-response","500","n","bakus","false","","4"
"2256.600000023842","","","","","3","html-slider-response","501","","","","2",""
"6994","","","","","3","html-keyboard-response","502","","","","",""
"20352","bank","silingan,kudhibi,tualya,ofisi","silingan","f","3","html-keyboard-response","503","f","silingan","true","","4"
"2820.699999988079","","","","","3","html-slider-response","504","","","","2",""
"3715","","","","","3","html-keyboard-response","505","","","","",""
"1521","letter","kifua,filimbi,chuma,uhuru","kifua","f","3","html-keyboard-response","506","f","kifua","true","","1"
"2209.5999999940395","","","","","3","html-slider-response","507","","","","5",""
"5525","","","","","3","html-keyboard-response","508","","","","",""
"1432","dog","lubi,washia,kalamu,bahari","bahari","n","3","html-keyboard-response","509","n","bahari","true","","1"
"2225.5","","","","","3","html-slider-response","510","","","","5",""
"2477","","","","","3","html-keyboard-response","511","","","","",""
"3723","shop","nopya,kerida,samaki,ndezu","samaki","j","3","html-keyboard-response","512","j","samaki","true","","4"
"2061.5","","","","","3","html-slider-response","513","","","","5",""
"522","","","","","3","html-keyboard-response","514","","","","",""
"5711","flower","tamasha,lobo,usiku,bega","bega","n","3","html-keyboard-response","515","v","lobo","false","","4"
"2247.0999999940395","","","","","3","html-slider-response","516","","","","3",""
"3038","","","","","3","html-keyboard-response","517","","","","",""
"1491","cigar","ndugu,kuta,adhabu,mlango","adhabu","j","3","html-keyboard-response","518","j","adhabu","true","","1"
"2040.199999988079","","","","","3","html-slider-response","519","","","","5",""
"4631","","","","","3","html-keyboard-response","520","","","","",""
"7726","hammer","mekno,napakyas,kitovu,layag","napakyas","v","3","html-keyboard-response","521","v","napakyas","true","","4"
"1694.800000011921","","","","","3","html-slider-response","522","","","","4",""
"1371","","","","","3","html-keyboard-response","523","","","","",""
"5785","fork","baboy,mgonjwa,paghago,gorisi","mgonjwa","v","3","html-keyboard-response","524","j","paghago","false","","4"
"3807.7999999821186","","","","","3","html-slider-response","525","","","","3",""
"1899","","","","","3","html-keyboard-response","526","","","","",""
"2464","sun","basi,bendi,luha,uongo","basi","f","3","html-keyboard-response","527","f","basi","true","","1"
"2217.800000011921","","","","","3","html-slider-response","528","","","","5",""
"782","","","","","3","html-keyboard-response","529","","","","",""
"3689","ladder","mashua,mwanga,kamba,pangalan","pangalan","n","3","html-keyboard-response","530","n","pangalan","true","","4"
"2799.2000000178814","","","","","3","html-slider-response","531","","","","3",""
"6199","","","","","3","html-keyboard-response","532","","","","",""
"1768","banana","kasamok,hagdan,kazi,twai","kazi","j","3","html-keyboard-response","533","j","kazi","true","","1"
"1908.699999988079","","","","","3","html-slider-response","534","","","","5",""
"586","","","","","3","html-keyboard-response","535","","","","",""
"10526","pudding","abug,mpishi,iring,aibu","aibu","n","3","html-keyboard-response","536","v","mpishi","false","","4"
"3107.9000000059605","","","","","3","html-slider-response","537","","","","3",""
"3136","","","","","3","html-keyboard-response","538","","","","",""
"3854","body","tindashan,nyundu,jibini,kununa","tindashan","f","3","html-keyboard-response","539","f","tindashan","true","","4"
"2064.800000011921","","","","","3","html-slider-response","540","","","","2",""
"4615","","","","","3","html-keyboard-response","541","","","","",""
"8972","bed","kalipay,haraka,mapintas,starehe","mapintas","j","3","html-keyboard-response","542","v","haraka","false","","4"
"1747.5","","","","","3","html-slider-response","543","","","","2",""
"1635","","","","","3","html-keyboard-response","544","","","","",""
"10151","tissue","lamigas,ugomvi,kisiwa,katika","ugomvi","v","3","html-keyboard-response","545","j","kisiwa","false","","4"
"1571","","","","","3","html-slider-response","546","","","","2",""
"5467","","","","","3","html-keyboard-response","547","","","","",""
"4911","candle","gabi,geza,farasi,kupanda","geza","v","3","html-keyboard-response","548","v","geza","true","","4"
"1941.199999988079","","","","","3","html-slider-response","549","","","","2",""
"3157","","","","","3","html-keyboard-response","550","","","","",""
"1325","tomato","chupi,chupa,takatak,mvua","mvua","n","3","html-keyboard-response","551","n","mvua","true","","1"
"2015.7000000178814","","","","","3","html-slider-response","552","","","","5",""
"4479","","","","","3","html-keyboard-response","553","","","","",""
"15061","list","alizeti,kuzama,kaso,wingu","wingu","n","3","html-keyboard-response","554","f","alizeti","false","","4"
"3920.7000000178814","","","","","3","html-slider-response","555","","","","3",""
"2931","","","","","3","html-keyboard-response","556","","","","",""
"7823","olive","jiwe,bata,siagi,welder","jiwe","f","3","html-keyboard-response","557","v","bata","false","","4"
"1568.300000011921","","","","","3","html-slider-response","558","","","","2",""
"1558","","","","","3","html-keyboard-response","559","","","","",""
"1622","picture","kubwa,silya,chaki,asin","kubwa","f","3","html-keyboard-response","560","f","kubwa","true","","1"
"1995.699999988079","","","","","3","html-slider-response","561","","","","5",""
"4178","","","","","3","html-keyboard-response","562","","","","",""
"6149","page","wimbo,wakala,ishiri,skina","wimbo","f","4","html-keyboard-response","888","f","wimbo","true","",""
"1776.5999999940395","","","","","4","html-slider-response","889","","","","4",""
"10550","sheet","juuya,watu,bililhon,kamantis","bililhon","j","4","html-keyboard-response","890","j","bililhon","true","",""
"3311.300000011921","","","","","4","html-slider-response","891","","","","3",""
"2042","ladder","mashua,pangalan,mwanga,kamba","pangalan","v","4","html-keyboard-response","892","v","pangalan","true","",""
"1730","","","","","4","html-slider-response","893","","","","5",""
"8285","door","tena,soko,surali,nyota","surali","j","4","html-keyboard-response","894","j","surali","true","",""
"2026.0999999940395","","","","","4","html-slider-response","895","","","","5",""
"4097","spider","bunyag,kamwe,mkboa,atop","kamwe","v","4","html-keyboard-response","896","v","kamwe","true","",""
"2253.199999988079","","","","","4","html-slider-response","897","","","","5",""
"10248","picture","silya,chaki,asin,kubwa","kubwa","n","4","html-keyboard-response","898","j","asin","false","",""
"2182.0999999940395","","","","","4","html-slider-response","899","","","","3",""
"2479","boat","hamsi,agalon,pombe,kitanda","agalon","v","4","html-keyboard-response","900","v","agalon","true","",""
"1545.5","","","","","4","html-slider-response","901","","","","5",""
"3381","donkey","bloke,lalake,rombus,elfu","elfu","n","4","html-keyboard-response","902","n","elfu","true","",""
"1662","","","","","4","html-slider-response","903","","","","5",""
"9449","book","kuhesa,picha,mara,mali","mali","n","4","html-keyboard-response","904","j","mara","false","",""
"2681.4000000059605","","","","","4","html-slider-response","905","","","","2",""
"2165","cup","dagat,matumai,shimoni,jeraha","matumai","v","4","html-keyboard-response","906","v","matumai","true","",""
"1317","","","","","4","html-slider-response","907","","","","5",""
"3678","sun","bendi,luha,basi,uongo","basi","j","4","html-keyboard-response","908","j","basi","true","",""
"7047.699999988079","","","","","4","html-slider-response","909","","","","4",""
"9898","pudding","abug,mpishi,aibu,iring","aibu","j","4","html-keyboard-response","910","v","mpishi","false","",""
"3256.4000000059605","","","","","4","html-slider-response","911","","","","2",""
"4273","human","bado,kikapu,punguza,tinapay","tinapay","n","4","html-keyboard-response","912","n","tinapay","true","",""
"1606.0999999940395","","","","","4","html-slider-response","913","","","","5",""
"13426","squirrel","mahugaw,ukweli,kichwa,hofu","hofu","n","4","html-keyboard-response","914","n","hofu","true","",""
"1744","","","","","4","html-slider-response","915","","","","2",""
"19570","park","tambok,pwani,bunifu,ihalas","bunifu","j","4","html-keyboard-response","916","j","bunifu","true","",""
"3492.199999988079","","","","","4","html-slider-response","917","","","","5",""
"6900","poster","nchi,fedha,madungog,kasuko","madungog","j","4","html-keyboard-response","918","j","madungog","true","",""
"2734.2999999821186","","","","","4","html-slider-response","919","","","","3",""
"2847","wolf","kaburi,ndizi,mchuzi,lugha","lugha","n","4","html-keyboard-response","920","n","lugha","true","",""
"2417.899999976158","","","","","4","html-slider-response","921","","","","4",""
"7290","cat","neyemba,paghukom,baki,akili","paghukom","v","4","html-keyboard-response","922","v","paghukom","true","",""
"4216.0999999940395","","","","","4","html-slider-response","923","","","","3",""
"3975","fish","bala,buli,baho,imani","buli","v","4","html-keyboard-response","924","n","imani","false","",""
"2445.199999988079","","","","","4","html-slider-response","925","","","","3",""
"7052","tooth","kabalaka,kijiko,uadui,pahiyum","kabalaka","f","4","html-keyboard-response","926","f","kabalaka","true","",""
"1422.5","","","","","4","html-slider-response","927","","","","4",""
"6331","cave","ganti,kesho,maisha,nyundo","kesho","v","4","html-keyboard-response","928","n","nyundo","false","",""
"2410.5","","","","","4","html-slider-response","929","","","","3",""
"6924","lamp","daub,afya,bilaska,mbolea","afya","v","4","html-keyboard-response","930","v","afya","true","",""
"2716.9000000059605","","","","","4","html-slider-response","931","","","","4",""
"2511","banana","kasamok,kazi,hagdan,twai","kazi","v","4","html-keyboard-response","932","v","kazi","true","",""
"1900.800000011921","","","","","4","html-slider-response","933","","","","5",""
"14546","bonfire","mwezi,mfuko,goti,kusanya","goti","j","4","html-keyboard-response","934","v","mfuko","false","",""
"1501.5","","","","","4","html-slider-response","935","","","","2",""
"4184","cop","bustani,jikoni,mechezo,bakus","mechezo","j","4","html-keyboard-response","936","j","mechezo","true","",""
"1799.5","","","","","4","html-slider-response","937","","","","5",""
"2088","marker","mapafu,salita,maji,atay","maji","j","4","html-keyboard-response","938","j","maji","true","",""
"1576.5","","","","","4","html-slider-response","939","","","","5",""
"18840","window","nanga,kujenga,kweli,umaga","kweli","j","4","html-keyboard-response","940","f","nanga","false","",""
"2259.9000000059605","","","","","4","html-slider-response","941","","","","2",""
"83725","body","nyundu,jibini,tindashan,kununa","tindashan","j","4","html-keyboard-response","942","j","tindashan","true","",""
"2411.5","","","","","4","html-slider-response","943","","","","5",""
"4077","apple","ukame,kisu,estante,edad","kisu","v","4","html-keyboard-response","944","v","kisu","true","",""
"1669.5","","","","","4","html-slider-response","945","","","","4",""
"1875","salmon","mzungu,seri,sensilyo,baharia","sensilyo","j","4","html-keyboard-response","946","j","sensilyo","true","",""
"2165.9000000059605","","","","","4","html-slider-response","947","","","","5",""
"4868","bed","kalipay,haraka,mapintas,starehe","mapintas","j","4","html-keyboard-response","948","j","mapintas","true","",""
"2349.800000011921","","","","","4","html-slider-response","949","","","","4",""
"2652","berry","abogado,nogozi,kinywa,kofia","kofia","n","4","html-keyboard-response","950","n","kofia","true","",""
"3206.699999988079","","","","","4","html-slider-response","951","","","","5",""
"1825","mirror","rangi,sulagma,kanding,furaha","sulagma","v","4","html-keyboard-response","952","v","sulagma","true","",""
"1517.0999999940395","","","","","4","html-slider-response","953","","","","5",""
"1964","flag","ndege,trekta,mkate,kawa","trekta","v","4","html-keyboard-response","954","v","trekta","true","",""
"1663","","","","","4","html-slider-response","955","","","","5",""
"4067","shoulder","kelele,ndaniya,mkuu,guruwe","mkuu","j","4","html-keyboard-response","956","j","mkuu","true","",""
"1824.4000000059605","","","","","4","html-slider-response","957","","","","4",""
"13005","tissue","lamigas,kisiwa,katika,ugomvi","ugomvi","n","4","html-keyboard-response","958","v","kisiwa","false","",""
"1724.2000000178814","","","","","4","html-slider-response","959","","","","2",""
"7558","notebook","msitu,kila,mdudu,kemia","kemia","n","4","html-keyboard-response","960","f","msitu","false","",""
"2031.199999988079","","","","","4","html-slider-response","961","","","","2",""
"16403","snake","jansa,karon,pagtukod,mvringo","pagtukod","j","4","html-keyboard-response","962","n","mvringo","false","",""
"1661.0999999940395","","","","","4","html-slider-response","963","","","","2",""
"42680","finger","moyo,simu,sufuria,lima","moyo","f","4","html-keyboard-response","964","f","moyo","true","",""
"1481.5999999940395","","","","","4","html-slider-response","965","","","","4",""
"5094","basket","kumbuka,kumba,utepe,hasira","kumba","v","4","html-keyboard-response","966","v","kumba","true","",""
"3047.0999999940395","","","","","4","html-slider-response","967","","","","3",""
"4926","curtain","mchanga,lisud,bulwawan,chubani","mchanga","f","4","html-keyboard-response","968","f","mchanga","true","",""
"1321","","","","","4","html-slider-response","969","","","","5",""
"7738","perfume","bino,sungura,katuyoan,ndogo","katuyoan","j","4","html-keyboard-response","970","j","katuyoan","true","",""
"2609.800000011921","","","","","4","html-slider-response","971","","","","3",""
"4534","key","chombo,miaka,goma,ahos","chombo","f","4","html-keyboard-response","972","f","chombo","true","",""
"1767.5","","","","","4","html-slider-response","973","","","","5",""
"12360","olive","bata,jiwe,siagi,welder","jiwe","v","4","html-keyboard-response","974","v","jiwe","true","",""
"1577.2999999821186","","","","","4","html-slider-response","975","","","","2",""
"4296","rose","singizi,mwanake,amani,paghalad","paghalad","n","4","html-keyboard-response","976","n","paghalad","true","",""
"1514.7000000178814","","","","","4","html-slider-response","977","","","","4",""
"5395","bridge","daima,ngono,sahani,panya","sahani","j","4","html-keyboard-response","978","j","sahani","true","",""
"1338.9000000059605","","","","","4","html-slider-response","979","","","","4",""
"2124","hill","matumbo,kushoto,kukimba,sweta","matumbo","f","4","html-keyboard-response","980","f","matumbo","true","",""
"1672.0999999940395","","","","","4","html-slider-response","981","","","","5",""
"10037","letter","filimbi,chuma,uhuru,kifua","kifua","n","4","html-keyboard-response","982","n","kifua","true","",""
"2211.5","","","","","4","html-slider-response","983","","","","4",""
"2456","sock","ndoora,mamba,kimysa,mtirka","mamba","v","4","html-keyboard-response","984","v","mamba","true","",""
"1556.2000000178814","","","","","4","html-slider-response","985","","","","5",""
"4067","fork","baboy,mgonjwa,paghago,gorisi","mgonjwa","v","4","html-keyboard-response","986","v","mgonjwa","true","",""
"2001.7000000178814","","","","","4","html-slider-response","987","","","","5",""
"6772","box","kuacha,rafiki,adui,kitande","adui","j","4","html-keyboard-response","988","j","adui","true","",""
"1735.2000000178814","","","","","4","html-slider-response","989","","","","4",""
"16905","gift","pagtawag,baba,nyange,baso","pagtawag","f","4","html-keyboard-response","990","f","pagtawag","true","",""
"1317.800000011921","","","","","4","html-slider-response","991","","","","5",""
"33187","bucket","kiatu,baga,ijayo,init","kiatu","f","4","html-keyboard-response","992","j","ijayo","false","",""
"2004.800000011921","","","","","4","html-slider-response","993","","","","2",""
"1671","shop","nopya,samaki,kerida,ndezu","samaki","v","4","html-keyboard-response","994","v","samaki","true","",""
"1874.800000011921","","","","","4","html-slider-response","995","","","","5",""
"8830","puppet","napulo,lamok,godoro,mazishi","mazishi","n","4","html-keyboard-response","996","n","mazishi","true","",""
"1789.7000000178814","","","","","4","html-slider-response","997","","","","5",""
"6987","nose","gubat,kopa,sehemu,kidole","sehemu","j","4","html-keyboard-response","998","v","kopa","false","",""
"2492.2000000178814","","","","","4","html-slider-response","999","","","","3",""
"2450","music","mraba,baiski,mageho,tumbo","baiski","v","4","html-keyboard-response","1000","v","baiski","true","",""
"1833.2000000178814","","","","","4","html-slider-response","1001","","","","5",""
"3438","dog","lubi,bahari,washia,kalamu","bahari","v","4","html-keyboard-response","1002","f","lubi","false","",""
"1671.7000000178814","","","","","4","html-slider-response","1003","","","","4",""
"11197","eel","msumari,ishara,kunywa,kabuang","msumari","f","4","html-keyboard-response","1004","f","msumari","true","",""
"2350.5","","","","","4","html-slider-response","1005","","","","4",""
"3736","number","shule,kengele,choori,mundamo","mundamo","n","4","html-keyboard-response","1006","n","mundamo","true","",""
"1411.2000000178814","","","","","4","html-slider-response","1007","","","","5",""
"5365","tomato","chupi,chupa,takatak,mvua","mvua","n","4","html-keyboard-response","1008","n","mvua","true","",""
"1281.1000000238419","","","","","4","html-slider-response","1009","","","","4",""
"6290","coffin","barua,tubag,kioo,hulma","kioo","j","4","html-keyboard-response","1010","j","kioo","true","",""
"1390.9000000059605","","","","","4","html-slider-response","1011","","","","4",""
"3108","knee","mvuke,kubale,bili,duka","duka","n","4","html-keyboard-response","1012","n","duka","true","",""
"2047.5","","","","","4","html-slider-response","1013","","","","4",""
"2325","woman","bandari,bituin,kovuli,pagtabon","pagtabon","n","4","html-keyboard-response","1014","n","pagtabon","true","",""
"1613.9000000059605","","","","","4","html-slider-response","1015","","","","5",""
"7447","stone","ulimwengu,wingi,mkasi,asili","wingi","v","4","html-keyboard-response","1016","j","mkasi","false","",""
"3062.0999999940395","","","","","4","html-slider-response","1017","","","","2",""
"3635","bread","kaili,dizeli,bugas,dari","dari","n","4","html-keyboard-response","1018","n","dari","true","",""
"1945.800000011921","","","","","4","html-slider-response","1019","","","","5",""
"14115","triangle","kihozi,bentaha,liog,kasadpan","kasadpan","n","4","html-keyboard-response","1020","v","bentaha","false","",""
"2528.0999999940395","","","","","4","html-slider-response","1021","","","","2",""
"14120","scissors","duga,tanuri,mtawa,suga","tanuri","v","4","html-keyboard-response","1022","j","mtawa","false","",""
"1726.7000000178814","","","","","4","html-slider-response","1023","","","","2",""
"9449","giraffe","daraja,jumatu,mahitabo,hangyo","mahitabo","j","4","html-keyboard-response","1024","v","jumatu","false","",""
"3195.5999999940395","","","","","4","html-slider-response","1025","","","","2",""
"7972","flower","tamasha,lobo,usiku,bega","bega","n","4","html-keyboard-response","1026","n","bega","true","",""
"3748.5999999940395","","","","","4","html-slider-response","1027","","","","2",""
"7365","candle","gabi,geza,farasi,kupanda","geza","v","4","html-keyboard-response","1028","v","geza","true","",""
"2954.5999999940395","","","","","4","html-slider-response","1029","","","","4",""
"3104","mother","kahawa,babaye,mbuzi,jokofu","babaye","v","4","html-keyboard-response","1030","v","babaye","true","",""
"2026.5999999940395","","","","","4","html-slider-response","1031","","","","5",""
"6892","towel","tembo,pagpalit,funzi,pito","pagpalit","v","4","html-keyboard-response","1032","v","pagpalit","true","",""
"1849","","","","","4","html-slider-response","1033","","","","1",""
"5457","elephant","petye,pagduol,kito,suka","kito","j","4","html-keyboard-response","1034","j","kito","true","",""
"2520.300000011921","","","","","4","html-slider-response","1035","","","","4",""
"4408","shelf","bungtod,kadaot,pamahaw,awit","pamahaw","j","4","html-keyboard-response","1036","j","pamahaw","true","",""
"1273.4000000059605","","","","","4","html-slider-response","1037","","","","5",""
"1974","mosquito","isda,martilyo,taras,gutom","martilyo","v","4","html-keyboard-response","1038","v","martilyo","true","",""
"1519.800000011921","","","","","4","html-slider-response","1039","","","","5",""
"11030","column","ufagio,pundok,dila,pala","ufagio","f","4","html-keyboard-response","1040","f","ufagio","true","",""
"1842.9000000059605","","","","","4","html-slider-response","1041","","","","2",""
"7424","pants","haki,pintal,chuki,hari","haki","f","4","html-keyboard-response","1042","f","haki","true","",""
"1512.300000011921","","","","","4","html-slider-response","1043","","","","2",""
"8435","list","alizeti,kuzama,kaso,wingu","wingu","n","4","html-keyboard-response","1044","v","kuzama","false","",""
"1784.800000011921","","","","","4","html-slider-response","1045","","","","2",""
"10254","bank","kudhibi,silingan,tualya,ofisi","silingan","v","4","html-keyboard-response","1046","n","ofisi","false","",""
"1506.800000011921","","","","","4","html-slider-response","1047","","","","2",""
"40355","clock","kartasi,abang,osha,mbwa","mbwa","n","4","html-keyboard-response","1048","f","kartasi","false","",""
"1409.5","","","","","4","html-slider-response","1049","","","","1",""
"9765","ceiling","kugita,kawaida,maua,rayna","maua","j","4","html-keyboard-response","1050","j","maua","true","",""
"2298.5","","","","","4","html-slider-response","1051","","","","4",""
"8457","train","itik,dakika,sayari,mungu","sayari","j","4","html-keyboard-response","1052","v","dakika","false","",""
"1824.5","","","","","4","html-slider-response","1053","","","","2",""
"14056","magazine","gundi,mchawi,kiti,bahandi","kiti","j","4","html-keyboard-response","1054","j","kiti","true","",""
"1386.7000000178814","","","","","4","html-slider-response","1055","","","","4",""
"2524","office","hazini,yatima,kuna,leso","leso","n","4","html-keyboard-response","1056","n","leso","true","",""
"1525.5","","","","","4","html-slider-response","1057","","","","5",""
"5807","wheel","punda,tawo,bafuni,baadaye","bafuni","j","4","html-keyboard-response","1058","j","bafuni","true","",""
"3429.300000011921","","","","","4","html-slider-response","1059","","","","3",""
"4303","spoon","betri,nzuri,pagsulod,ngazi","pagsulod","j","4","html-keyboard-response","1060","j","pagsulod","true","",""
"1910.5","","","","","4","html-slider-response","1061","","","","3",""
"2139","hammer","mekno,napakyas,kitovu,layag","napakyas","v","4","html-keyboard-response","1062","v","napakyas","true","",""
"1444.4000000059605","","","","","4","html-slider-response","1063","","","","5",""
"2453","cigar","adhabu,ndugu,kuta,mlango","adhabu","f","4","html-keyboard-response","1064","f","adhabu","true","",""
"1325.5","","","","","4","html-slider-response","1065","","","","5",""
"2946","shoe","nyeusi,hatua,kama,uyoga","uyoga","n","4","html-keyboard-response","1066","n","uyoga","true","",""
"1370","","","","","4","html-slider-response","1067","","","","5",""
"6449","list","wingu,alizeti,kuzama,kaso","wingu","f","5","html-keyboard-response","1069","v","alizeti","false","",""
"1281.199999988079","","","","","5","html-slider-response","1070","","","","2",""
"1695","number","shule,kengele,choori,mundamo","mundamo","n","5","html-keyboard-response","1071","n","mundamo","true","",""
"2042.300000011921","","","","","5","html-slider-response","1072","","","","5",""
"5843","apple","ukame,estante,kisu,edad","kisu","j","5","html-keyboard-response","1073","j","kisu","true","",""
"2224.2000000178814","","","","","5","html-slider-response","1074","","","","4",""
"2097","knee","mvuke,duka,kubale,bili","duka","v","5","html-keyboard-response","1075","v","duka","true","",""
"1574.2000000178814","","","","","5","html-slider-response","1076","","","","4",""
"2916","tooth","kijiko,kabalaka,uadui,pahiyum","kabalaka","v","5","html-keyboard-response","1077","v","kabalaka","true","",""
"1413","","","","","5","html-slider-response","1078","","","","5",""
"2939","berry","abogado,nogozi,kinywa,kofia","kofia","n","5","html-keyboard-response","1079","n","kofia","true","",""
"1472.0999999940395","","","","","5","html-slider-response","1080","","","","5",""
"1786","bridge","sahani,daima,ngono,panya","sahani","f","5","html-keyboard-response","1081","f","sahani","true","",""
"1204.5","","","","","5","html-slider-response","1082","","","","5",""
"7442","perfume","bino,katuyoan,sungura,ndogo","katuyoan","v","5","html-keyboard-response","1083","v","katuyoan","true","",""
"2438.7000000178814","","","","","5","html-slider-response","1084","","","","3",""
"1844","ladder","mashua,mwanga,kamba,pangalan","pangalan","n","5","html-keyboard-response","1085","n","pangalan","true","",""
"1323.9000000059605","","","","","5","html-slider-response","1086","","","","5",""
"4313","pants","pintal,chuki,haki,hari","haki","j","5","html-keyboard-response","1087","j","haki","true","",""
"2624.7000000178814","","","","","5","html-slider-response","1088","","","","2",""
"1467","salmon","sensilyo,mzungu,seri,baharia","sensilyo","f","5","html-keyboard-response","1089","f","sensilyo","true","",""
"1534.300000011921","","","","","5","html-slider-response","1090","","","","5",""
"4465","coffin","kioo,barua,tubag,hulma","kioo","f","5","html-keyboard-response","1091","f","kioo","true","",""
"1330.0999999940395","","","","","5","html-slider-response","1092","","","","5",""
"2452","park","tambok,bunifu,pwani,ihalas","bunifu","v","5","html-keyboard-response","1093","v","bunifu","true","",""
"1461.7000000178814","","","","","5","html-slider-response","1094","","","","5",""
"4153","giraffe","daraja,mahitabo,jumatu,hangyo","mahitabo","v","5","html-keyboard-response","1095","v","mahitabo","true","",""
"1954.7000000178814","","","","","5","html-slider-response","1096","","","","4",""
"2140","mirror","rangi,kanding,furaha,sulagma","sulagma","n","5","html-keyboard-response","1097","n","sulagma","true","",""
"1445.5","","","","","5","html-slider-response","1098","","","","5",""
"7348","ceiling","kugita,kawaida,maua,rayna","maua","j","5","html-keyboard-response","1099","j","maua","true","",""
"2160.5","","","","","5","html-slider-response","1100","","","","4",""
"1851","marker","maji,mapafu,salita,atay","maji","f","5","html-keyboard-response","1101","f","maji","true","",""
"2293.9000000059605","","","","","5","html-slider-response","1102","","","","5",""
"2556","sock","mamba,ndoora,kimysa,mtirka","mamba","f","5","html-keyboard-response","1103","f","mamba","true","",""
"1685.4000000059605","","","","","5","html-slider-response","1104","","","","5",""
"2435","cop","bustani,mechezo,jikoni,bakus","mechezo","v","5","html-keyboard-response","1105","v","mechezo","true","",""
"1486.7000000178814","","","","","5","html-slider-response","1106","","","","5",""
"2333","gift","baba,nyange,baso,pagtawag","pagtawag","n","5","html-keyboard-response","1107","n","pagtawag","true","",""
"1484.7000000178814","","","","","5","html-slider-response","1108","","","","5",""
"12100","notebook","msitu,kemia,kila,mdudu","kemia","v","5","html-keyboard-response","1109","j","kila","false","",""
"1868.300000011921","","","","","5","html-slider-response","1110","","","","1",""
"4331","bank","kudhibi,silingan,tualya,ofisi","silingan","v","5","html-keyboard-response","1111","n","ofisi","false","",""
"1315.5999999940395","","","","","5","html-slider-response","1112","","","","2",""
"3185","letter","filimbi,chuma,kifua,uhuru","kifua","j","5","html-keyboard-response","1113","j","kifua","true","",""
"1889","","","","","5","html-slider-response","1114","","","","4",""
"2464","candle","gabi,farasi,geza,kupanda","geza","j","5","html-keyboard-response","1115","j","geza","true","",""
"1697.7999999821186","","","","","5","html-slider-response","1116","","","","5",""
"2733","bread","kaili,dizeli,dari,bugas","dari","j","5","html-keyboard-response","1117","j","dari","true","",""
"1533.6000000238419","","","","","5","html-slider-response","1118","","","","5",""
"5024","snake","jansa,karon,mvringo,pagtukod","pagtukod","n","5","html-keyboard-response","1119","n","pagtukod","true","",""
"2448","","","","","5","html-slider-response","1120","","","","2",""
"1888","rose","singizi,paghalad,mwanake,amani","paghalad","v","5","html-keyboard-response","1121","v","paghalad","true","",""
"1472.5","","","","","5","html-slider-response","1122","","","","4",""
"2977","hill","kushoto,kukimba,matumbo,sweta","matumbo","j","5","html-keyboard-response","1123","j","matumbo","true","",""
"1695.7000000178814","","","","","5","html-slider-response","1124","","","","5",""
"4983","train","itik,sayari,dakika,mungu","sayari","v","5","html-keyboard-response","1125","n","mungu","false","",""
"1472.6000000238419","","","","","5","html-slider-response","1126","","","","2",""
"2286","shop","nopya,kerida,samaki,ndezu","samaki","j","5","html-keyboard-response","1127","j","samaki","true","",""
"1348","","","","","5","html-slider-response","1128","","","","5",""
"4225","nose","gubat,kopa,sehemu,kidole","sehemu","j","5","html-keyboard-response","1129","j","sehemu","true","",""
"2396.4000000059605","","","","","5","html-slider-response","1130","","","","1",""
"6772","boat","hamsi,pombe,kitanda,agalon","agalon","n","5","html-keyboard-response","1131","n","agalon","true","",""
"1670.5999999940395","","","","","5","html-slider-response","1132","","","","5",""
"2305","body","tindashan,nyundu,jibini,kununa","tindashan","f","5","html-keyboard-response","1133","f","tindashan","true","",""
"1944.0999999940395","","","","","5","html-slider-response","1134","","","","5",""
"2395","bed","mapintas,kalipay,haraka,starehe","mapintas","f","5","html-keyboard-response","1135","f","mapintas","true","",""
"1518.2000000178814","","","","","5","html-slider-response","1136","","","","5",""
"5533","squirrel","mahugaw,ukweli,hofu,kichwa","hofu","j","5","html-keyboard-response","1137","j","hofu","true","",""
"1986","","","","","5","html-slider-response","1138","","","","4",""
"5479","window","nanga,kujenga,kweli,umaga","kweli","j","5","html-keyboard-response","1139","j","kweli","true","",""
"1979.4000000059605","","","","","5","html-slider-response","1140","","","","2",""
"3089","bonfire","mwezi,mfuko,goti,kusanya","goti","j","5","html-keyboard-response","1141","f","mwezi","false","",""
"1527.7000000178814","","","","","5","html-slider-response","1142","","","","2",""
"6372","fish","bala,baho,imani,buli","buli","n","5","html-keyboard-response","1143","f","bala","false","",""
"1641.9000000059605","","","","","5","html-slider-response","1144","","","","2",""
"7049","cat","neyemba,baki,paghukom,akili","paghukom","j","5","html-keyboard-response","1145","j","paghukom","true","",""
"2233.5","","","","","5","html-slider-response","1146","","","","4",""
"2236","spider","bunyag,kamwe,mkboa,atop","kamwe","v","5","html-keyboard-response","1147","v","kamwe","true","",""
"1483.300000011921","","","","","5","html-slider-response","1148","","","","5",""
"4892","eel","ishara,msumari,kunywa,kabuang","msumari","v","5","html-keyboard-response","1149","v","msumari","true","",""
"1384.6000000238419","","","","","5","html-slider-response","1150","","","","4",""
"1743","woman","bandari,pagtabon,bituin,kovuli","pagtabon","v","5","html-keyboard-response","1151","v","pagtabon","true","",""
"2026.4000000059605","","","","","5","html-slider-response","1152","","","","5",""
"5309","magazine","kiti,gundi,mchawi,bahandi","kiti","f","5","html-keyboard-response","1153","f","kiti","true","",""
"1523.5999999940395","","","","","5","html-slider-response","1154","","","","5",""
"4258","pudding","abug,aibu,mpishi,iring","aibu","v","5","html-keyboard-response","1155","j","mpishi","false","",""
"3520.7999999821186","","","","","5","html-slider-response","1156","","","","4",""
"10390","lamp","daub,bilaska,mbolea,afya","afya","n","5","html-keyboard-response","1157","n","afya","true","",""
"1640.7999999821186","","","","","5","html-slider-response","1158","","","","4",""
"3961","cave","ganti,kesho,maisha,nyundo","kesho","v","5","html-keyboard-response","1159","n","nyundo","false","",""
"1434.7000000178814","","","","","5","html-slider-response","1160","","","","4",""
"2403","shoulder","kelele,ndaniya,guruwe,mkuu","mkuu","n","5","html-keyboard-response","1161","n","mkuu","true","",""
"1640.300000011921","","","","","5","html-slider-response","1162","","","","5",""
"5145","stone","ulimwengu,wingi,mkasi,asili","wingi","v","5","html-keyboard-response","1163","f","ulimwengu","false","",""
"2143.5999999940395","","","","","5","html-slider-response","1164","","","","2",""
"3739","column","pundok,dila,pala,ufagio","ufagio","n","5","html-keyboard-response","1165","n","ufagio","true","",""
"1387.2999999821186","","","","","5","html-slider-response","1166","","","","4",""
"7940","page","wakala,ishiri,skina,wimbo","wimbo","n","5","html-keyboard-response","1167","n","wimbo","true","",""
"2734.4000000059605","","","","","5","html-slider-response","1168","","","","4",""
"5907","shoe","nyeusi,uyoga,hatua,kama","uyoga","v","5","html-keyboard-response","1169","v","uyoga","true","",""
"2199.800000011921","","","","","5","html-slider-response","1170","","","","5",""
"4454","clock","kartasi,mbwa,abang,osha","mbwa","v","5","html-keyboard-response","1171","f","kartasi","false","",""
"2334.800000011921","","","","","5","html-slider-response","1172","","","","2",""
"6793","towel","tembo,funzi,pagpalit,pito","pagpalit","j","5","html-keyboard-response","1173","j","pagpalit","true","",""
"1778.2000000178814","","","","","5","html-slider-response","1174","","","","2",""
"1893","tomato","mvua,chupi,chupa,takatak","mvua","f","5","html-keyboard-response","1175","f","mvua","true","",""
"2693.300000011921","","","","","5","html-slider-response","1176","","","","5",""
"4456","bucket","baga,ijayo,kiatu,init","kiatu","j","5","html-keyboard-response","1177","v","ijayo","false","",""
"1559.4000000059605","","","","","5","html-slider-response","1178","","","","2",""
"1991","finger","simu,sufuria,moyo,lima","moyo","j","5","html-keyboard-response","1179","j","moyo","true","",""
"1545.2999999821186","","","","","5","html-slider-response","1180","","","","4",""
"2380","mother","kahawa,mbuzi,jokofu,babaye","babaye","n","5","html-keyboard-response","1181","n","babaye","true","",""
"1589.7000000178814","","","","","5","html-slider-response","1182","","","","5",""
"3109","human","bado,tinapay,kikapu,punguza","tinapay","v","5","html-keyboard-response","1183","v","tinapay","true","",""
"1535.9000000059605","","","","","5","html-slider-response","1184","","","","5",""
"16940","sun","bendi,luha,uongo,basi","basi","n","5","html-keyboard-response","1185","n","basi","true","",""
"1751","","","","","5","html-slider-response","1186","","","","4",""
"2480","fork","mgonjwa,baboy,paghago,gorisi","mgonjwa","f","5","html-keyboard-response","1187","f","mgonjwa","true","",""
"1288.300000011921","","","","","5","html-slider-response","1188","","","","5",""
"1774","donkey","bloke,lalake,rombus,elfu","elfu","n","5","html-keyboard-response","1189","n","elfu","true","",""
"1282.2000000178814","","","","","5","html-slider-response","1190","","","","5",""
"2764","wolf","kaburi,ndizi,lugha,mchuzi","lugha","j","5","html-keyboard-response","1191","j","lugha","true","",""
"1453.4000000059605","","","","","5","html-slider-response","1192","","","","5",""
"3581","cigar","ndugu,kuta,adhabu,mlango","adhabu","j","5","html-keyboard-response","1193","j","adhabu","true","",""
"1715.5","","","","","5","html-slider-response","1194","","","","5",""
"4747","olive","bata,siagi,jiwe,welder","jiwe","j","5","html-keyboard-response","1195","j","jiwe","true","",""
"2331.9000000059605","","","","","5","html-slider-response","1196","","","","3",""
"3618","key","miaka,goma,ahos,chombo","chombo","n","5","html-keyboard-response","1197","n","chombo","true","",""
"1194.5","","","","","5","html-slider-response","1198","","","","5",""
"2839","door","tena,soko,nyota,surali","surali","n","5","html-keyboard-response","1199","n","surali","true","",""
"2253.4000000059605","","","","","5","html-slider-response","1200","","","","5",""
"9460","wheel","punda,tawo,bafuni,baadaye","bafuni","j","5","html-keyboard-response","1201","j","bafuni","true","",""
"1556","","","","","5","html-slider-response","1202","","","","4",""
"6412","basket","kumbuka,utepe,hasira,kumba","kumba","n","5","html-keyboard-response","1203","f","kumbuka","false","",""
"2025.2000000178814","","","","","5","html-slider-response","1204","","","","4",""
"2504","elephant","petye,pagduol,kito,suka","kito","j","5","html-keyboard-response","1205","v","pagduol","false","",""
"2047.2000000178814","","","","","5","html-slider-response","1206","","","","4",""
"4976","office","hazini,yatima,leso,kuna","leso","j","5","html-keyboard-response","1207","f","hazini","false","",""
"4652.700000017881","","","","","5","html-slider-response","1208","","","","2",""
"1809","music","mraba,mageho,tumbo,baiski","baiski","n","5","html-keyboard-response","1209","n","baiski","true","",""
"1604.300000011921","","","","","5","html-slider-response","1210","","","","5",""
"3702","tissue","ugomvi,lamigas,kisiwa,katika","ugomvi","f","5","html-keyboard-response","1211","j","kisiwa","false","",""
"1550.5","","","","","5","html-slider-response","1212","","","","2",""
"2107","curtain","mchanga,lisud,bulwawan,chubani","mchanga","f","5","html-keyboard-response","1213","f","mchanga","true","",""
"1648.0999999940395","","","","","5","html-slider-response","1214","","","","4",""
"1477","flag","trekta,ndege,mkate,kawa","trekta","f","5","html-keyboard-response","1215","f","trekta","true","",""
"1850.1000000238419","","","","","5","html-slider-response","1216","","","","5",""
"3017","dog","lubi,washia,bahari,kalamu","bahari","j","5","html-keyboard-response","1217","f","lubi","false","",""
"1490.7000000178814","","","","","5","html-slider-response","1218","","","","4",""
"1331","cup","matumai,dagat,shimoni,jeraha","matumai","f","5","html-keyboard-response","1219","f","matumai","true","",""
"1267.5","","","","","5","html-slider-response","1220","","","","5",""
"8732","sheet","bililhon,juuya,watu,kamantis","bililhon","f","5","html-keyboard-response","1221","n","kamantis","false","",""
"3525.7000000178814","","","","","5","html-slider-response","1222","","","","2",""
"2170","spoon","pagsulod,betri,nzuri,ngazi","pagsulod","f","5","html-keyboard-response","1223","f","pagsulod","true","",""
"2041.4000000059605","","","","","5","html-slider-response","1224","","","","5",""
"15358","flower","tamasha,bega,lobo,usiku","bega","v","5","html-keyboard-response","1225","f","tamasha","false","",""
"1647.5","","","","","5","html-slider-response","1226","","","","1",""
"5642","picture","silya,chaki,kubwa,asin","kubwa","j","5","html-keyboard-response","1227","n","asin","false","",""
"1897.7000000178814","","","","","5","html-slider-response","1228","","","","2",""
"1900","puppet","napulo,lamok,godoro,mazishi","mazishi","n","5","html-keyboard-response","1229","n","mazishi","true","",""
"1840.2000000178814","","","","","5","html-slider-response","1230","","","","5",""
"1591","banana","kasamok,hagdan,twai,kazi","kazi","n","5","html-keyboard-response","1231","n","kazi","true","",""
"1592.800000011921","","","","","5","html-slider-response","1232","","","","5",""
"3976","book","kuhesa,mali,picha,mara","mali","v","5","html-keyboard-response","1233","v","mali","true","",""
"2231.5","","","","","5","html-slider-response","1234","","","","4",""
"3125","triangle","kihozi,bentaha,kasadpan,liog","kasadpan","j","5","html-keyboard-response","1235","v","bentaha","false","",""
"1765.7000000178814","","","","","5","html-slider-response","1236","","","","4",""
"3207","poster","nchi,madungog,fedha,kasuko","madungog","v","5","html-keyboard-response","1237","v","madungog","true","",""
"1458.9000000059605","","","","","5","html-slider-response","1238","","","","4",""
"3377","box","adui,kuacha,rafiki,kitande","adui","f","5","html-keyboard-response","1239","f","adui","true","",""
"2910.4000000059605","","","","","5","html-slider-response","1240","","","","4",""
"1265","mosquito","martilyo,isda,taras,gutom","martilyo","f","5","html-keyboard-response","1241","f","martilyo","true","",""
"1781.800000011921","","","","","5","html-slider-response","1242","","","","5",""
"2633","shelf","bungtod,pamahaw,kadaot,awit","pamahaw","v","5","html-keyboard-response","1243","v","pamahaw","true","",""
"1618.0999999940395","","","","","5","html-slider-response","1244","","","","5",""
"4814","scissors","duga,mtawa,suga,tanuri","tanuri","n","5","html-keyboard-response","1245","v","mtawa","false","",""
"1251.5","","","","","5","html-slider-response","1246","","","","4",""
"2326","hammer","mekno,kitovu,napakyas,layag","napakyas","j","5","html-keyboard-response","1247","j","napakyas","true","",""
"1341.6000000238419","","","","","5","html-slider-response","1248","","","","5",""
