"rt","en_word","options","swa_word","correct_answer","phase","trial_type","trial_index","input_answer","input_word","accuracy","certainty","amt_choices"
"2721","bonfire","mwezi,goti,mfuko,kusanya","goti","v","2","html-keyboard-response","106","j","mfuko","false","",""
"1801","","","","","2","html-slider-response","107","","","","1",""
"3018","flower","tamasha,lobo,usiku,bega","bega","n","2","html-keyboard-response","108","n","bega","true","",""
"1743.699999999255","","","","","2","html-slider-response","109","","","","1",""
"2616","column","pundok,dila,pala,ufagio","ufagio","n","2","html-keyboard-response","110","f","pundok","false","",""
"1896.9000000003725","","","","","2","html-slider-response","111","","","","2",""
"2820","music","mraba,baiski,mageho,tumbo","baiski","v","2","html-keyboard-response","112","n","tumbo","false","",""
"1589.699999999255","","","","","2","html-slider-response","113","","","","2",""
"4402","spider","bunyag,mkboa,kamwe,atop","kamwe","j","2","html-keyboard-response","114","v","mkboa","false","",""
"3054.2999999988824","","","","","2","html-slider-response","115","","","","1",""
"3708","fork","mgonjwa,baboy,paghago,gorisi","mgonjwa","f","2","html-keyboard-response","116","v","baboy","false","",""
"1667.7999999988824","","","","","2","html-slider-response","117","","","","2",""
"4023","mosquito","isda,martilyo,taras,gutom","martilyo","v","2","html-keyboard-response","118","v","martilyo","true","",""
"3137.7000000011176","","","","","2","html-slider-response","119","","","","4",""
"5659","banana","kasamok,hagdan,twai,kazi","kazi","n","2","html-keyboard-response","120","n","kazi","true","",""
"3691.7999999988824","","","","","2","html-slider-response","121","","","","2",""
"3467","cup","dagat,shimoni,matumai,jeraha","matumai","j","2","html-keyboard-response","122","f","dagat","false","",""
"2002.0999999996275","","","","","2","html-slider-response","123","","","","1",""
"3620","shop","nopya,kerida,ndezu,samaki","samaki","n","2","html-keyboard-response","124","f","nopya","false","",""
"1882.2000000011176","","","","","2","html-slider-response","125","","","","1",""
"3984","elephant","kito,petye,pagduol,suka","kito","f","2","html-keyboard-response","126","f","kito","true","",""
"1785.9000000003725","","","","","2","html-slider-response","127","","","","2",""
"2808","bucket","baga,ijayo,kiatu,init","kiatu","j","2","html-keyboard-response","128","j","kiatu","true","",""
"3301","","","","","2","html-slider-response","129","","","","2",""
"4818","book","kuhesa,picha,mara,mali","mali","n","2","html-keyboard-response","130","n","mali","true","",""
"4418.4000000003725","","","","","2","html-slider-response","131","","","","3",""
"3320","mirror","rangi,kanding,furaha,sulagma","sulagma","n","2","html-keyboard-response","132","v","kanding","false","",""
"2231.0999999996275","","","","","2","html-slider-response","133","","","","1",""
"4401","office","hazini,leso,yatima,kuna","leso","v","2","html-keyboard-response","134","v","leso","true","",""
"2684.2999999988824","","","","","2","html-slider-response","135","","","","1",""
"10833","body","nyundu,jibini,kununa,tindashan","tindashan","n","2","html-keyboard-response","136","n","tindashan","true","",""
"3034","","","","","2","html-slider-response","137","","","","3",""
"11413","perfume","bino,sungura,katuyoan,ndogo","katuyoan","j","2","html-keyboard-response","138","j","katuyoan","true","",""
"2000.5999999996275","","","","","2","html-slider-response","139","","","","2",""
"2665","olive","bata,siagi,welder,jiwe","jiwe","n","2","html-keyboard-response","140","n","jiwe","true","",""
"2229.0999999996275","","","","","2","html-slider-response","141","","","","1",""
"4319","magazine","kiti,gundi,mchawi,bahandi","kiti","f","2","html-keyboard-response","142","j","mchawi","false","",""
"1768.5","","","","","2","html-slider-response","143","","","","1",""
"3573","bread","kaili,dizeli,dari,bugas","dari","j","2","html-keyboard-response","144","j","dari","true","",""
"1838","","","","","2","html-slider-response","145","","","","5",""
"2965","cave","kesho,ganti,maisha,nyundo","kesho","f","2","html-keyboard-response","146","f","kesho","true","",""
"2056.2000000011176","","","","","2","html-slider-response","147","","","","2",""
"2248","ladder","mashua,pangalan,mwanga,kamba","pangalan","v","2","html-keyboard-response","148","v","pangalan","true","",""
"2801.9000000003725","","","","","2","html-slider-response","149","","","","1",""
"4733","human","bado,kikapu,punguza,tinapay","tinapay","n","2","html-keyboard-response","150","n","tinapay","true","",""
"1996","","","","","2","html-slider-response","151","","","","1",""
"4044","clock","kartasi,abang,mbwa,osha","mbwa","j","2","html-keyboard-response","152","n","osha","false","",""
"1747","","","","","2","html-slider-response","153","","","","2",""
"2538","shelf","bungtod,pamahaw,kadaot,awit","pamahaw","v","2","html-keyboard-response","154","f","bungtod","false","",""
"2468.7999999988824","","","","","2","html-slider-response","155","","","","1",""
"3307","salmon","sensilyo,mzungu,seri,baharia","sensilyo","f","2","html-keyboard-response","156","n","baharia","false","",""
"2167.4000000003725","","","","","2","html-slider-response","157","","","","1",""
"5970","coffin","barua,tubag,hulma,kioo","kioo","n","2","html-keyboard-response","158","n","kioo","true","",""
"2163.7000000011176","","","","","2","html-slider-response","159","","","","4",""
"3554","notebook","msitu,kila,kemia,mdudu","kemia","j","2","html-keyboard-response","160","j","kemia","true","",""
"2299.0999999996275","","","","","2","html-slider-response","161","","","","1",""
"2682","shoulder","kelele,mkuu,ndaniya,guruwe","mkuu","v","2","html-keyboard-response","162","n","guruwe","false","",""
"1954.699999999255","","","","","2","html-slider-response","163","","","","1",""
"3209","park","bunifu,tambok,pwani,ihalas","bunifu","f","2","html-keyboard-response","164","v","tambok","false","",""
"1744.5","","","","","2","html-slider-response","165","","","","2",""
"2813","number","shule,kengele,choori,mundamo","mundamo","n","2","html-keyboard-response","166","n","mundamo","true","",""
"1863.5999999996275","","","","","2","html-slider-response","167","","","","1",""
"4505","apple","ukame,estante,kisu,edad","kisu","j","2","html-keyboard-response","168","f","ukame","false","",""
"2906.7999999988824","","","","","2","html-slider-response","169","","","","3",""
"2654","letter","filimbi,kifua,chuma,uhuru","kifua","v","2","html-keyboard-response","170","j","chuma","false","",""
"1935.5999999996275","","","","","2","html-slider-response","171","","","","1",""
"3032","eel","ishara,msumari,kunywa,kabuang","msumari","v","2","html-keyboard-response","172","f","ishara","false","",""
"1659.300000000745","","","","","2","html-slider-response","173","","","","2",""
"4074","cop","bustani,jikoni,mechezo,bakus","mechezo","j","2","html-keyboard-response","174","n","bakus","false","",""
"1716.5999999996275","","","","","2","html-slider-response","175","","","","2",""
"2838","wolf","lugha,kaburi,ndizi,mchuzi","lugha","f","2","html-keyboard-response","176","v","kaburi","false","",""
"2068.4000000003725","","","","","2","html-slider-response","177","","","","1",""
"4275","squirrel","mahugaw,ukweli,kichwa,hofu","hofu","n","2","html-keyboard-response","178","f","mahugaw","false","",""
"2095.5999999996275","","","","","2","html-slider-response","179","","","","2",""
"3117","nose","gubat,kopa,sehemu,kidole","sehemu","j","2","html-keyboard-response","180","j","sehemu","true","",""
"2364.4000000003725","","","","","2","html-slider-response","181","","","","1",""
"2870","sock","ndoora,mamba,kimysa,mtirka","mamba","v","2","html-keyboard-response","182","n","mtirka","false","",""
"1818.7999999988824","","","","","2","html-slider-response","183","","","","1",""
"2939","bank","kudhibi,tualya,silingan,ofisi","silingan","j","2","html-keyboard-response","184","f","kudhibi","false","",""
"3124.2000000011176","","","","","2","html-slider-response","185","","","","1",""
"3279","donkey","bloke,lalake,rombus,elfu","elfu","n","2","html-keyboard-response","186","n","elfu","true","",""
"2810.800000000745","","","","","2","html-slider-response","187","","","","2",""
"3021","poster","madungog,nchi,fedha,kasuko","madungog","f","2","html-keyboard-response","188","f","madungog","true","",""
"1830.699999999255","","","","","2","html-slider-response","189","","","","1",""
"1831","puppet","napulo,lamok,godoro,mazishi","mazishi","n","2","html-keyboard-response","190","j","godoro","false","",""
"1856.7000000011176","","","","","2","html-slider-response","191","","","","1",""
"2344","hill","kushoto,kukimba,matumbo,sweta","matumbo","j","2","html-keyboard-response","192","n","sweta","false","",""
"1903.5","","","","","2","html-slider-response","193","","","","1",""
"3087","tooth","kijiko,kabalaka,uadui,pahiyum","kabalaka","v","2","html-keyboard-response","194","f","kijiko","false","",""
"2224.300000000745","","","","","2","html-slider-response","195","","","","1",""
"3454","woman","bandari,bituin,kovuli,pagtabon","pagtabon","n","2","html-keyboard-response","196","v","bituin","false","",""
"1733.2000000011176","","","","","2","html-slider-response","197","","","","2",""
"1798","wheel","punda,tawo,bafuni,baadaye","bafuni","j","2","html-keyboard-response","198","j","bafuni","true","",""
"2428.0999999996275","","","","","2","html-slider-response","199","","","","1",""
"4123","mother","babaye,kahawa,mbuzi,jokofu","babaye","f","2","html-keyboard-response","200","f","babaye","true","",""
"1962.5","","","","","2","html-slider-response","201","","","","4",""
"2907","bed","kalipay,haraka,mapintas,starehe","mapintas","j","2","html-keyboard-response","202","j","mapintas","true","",""
"2114.699999999255","","","","","2","html-slider-response","203","","","","1",""
"1646","key","miaka,goma,chombo,ahos","chombo","j","2","html-keyboard-response","204","n","ahos","false","",""
"1734.0999999996275","","","","","2","html-slider-response","205","","","","1",""
"3615","page","wimbo,wakala,ishiri,skina","wimbo","f","2","html-keyboard-response","206","f","wimbo","true","",""
"3641.7999999988824","","","","","2","html-slider-response","207","","","","3",""
"3686","pants","haki,pintal,chuki,hari","haki","f","2","html-keyboard-response","208","j","chuki","false","",""
"1816.9000000003725","","","","","2","html-slider-response","209","","","","2",""
"2652","sun","basi,bendi,luha,uongo","basi","f","2","html-keyboard-response","210","v","bendi","false","",""
"1915.9000000003725","","","","","2","html-slider-response","211","","","","2",""
"2435","finger","simu,moyo,sufuria,lima","moyo","v","2","html-keyboard-response","212","n","lima","false","",""
"1799.1000000014901","","","","","2","html-slider-response","213","","","","2",""
"2792","shoe","nyeusi,hatua,uyoga,kama","uyoga","j","2","html-keyboard-response","214","f","nyeusi","false","",""
"1992.5","","","","","2","html-slider-response","215","","","","1",""
"3786","giraffe","mahitabo,daraja,jumatu,hangyo","mahitabo","f","2","html-keyboard-response","216","v","daraja","false","",""
"2541.199999999255","","","","","2","html-slider-response","217","","","","2",""
"2355","dog","lubi,washia,kalamu,bahari","bahari","n","2","html-keyboard-response","218","n","bahari","true","",""
"1940.7000000011176","","","","","2","html-slider-response","219","","","","1",""
"3372","box","kuacha,adui,rafiki,kitande","adui","v","2","html-keyboard-response","220","n","kitande","false","",""
"1810.7999999988824","","","","","2","html-slider-response","221","","","","1",""
"3449","scissors","duga,mtawa,suga,tanuri","tanuri","n","2","html-keyboard-response","222","n","tanuri","true","",""
"1891.2999999988824","","","","","2","html-slider-response","223","","","","1",""
"2964","cat","paghukom,neyemba,baki,akili","paghukom","f","2","html-keyboard-response","224","v","neyemba","false","",""
"1987.5","","","","","2","html-slider-response","225","","","","1",""
"3069","basket","kumbuka,utepe,kumba,hasira","kumba","j","2","html-keyboard-response","226","f","kumbuka","false","",""
"3084.4000000003725","","","","","2","html-slider-response","227","","","","3",""
"5090","snake","jansa,karon,mvringo,pagtukod","pagtukod","n","2","html-keyboard-response","228","n","pagtukod","true","",""
"2273.300000000745","","","","","2","html-slider-response","229","","","","1",""
"4096","gift","pagtawag,baba,nyange,baso","pagtawag","f","2","html-keyboard-response","230","n","baso","false","",""
"2494.199999999255","","","","","2","html-slider-response","231","","","","2",""
"4591","train","sayari,itik,dakika,mungu","sayari","f","2","html-keyboard-response","232","n","mungu","false","",""
"1973.6000000014901","","","","","2","html-slider-response","233","","","","1",""
"11427","pudding","abug,mpishi,iring,aibu","aibu","n","2","html-keyboard-response","234","n","aibu","true","",""
"3502.7999999988824","","","","","2","html-slider-response","235","","","","1",""
"8015","tomato","chupi,chupa,takatak,mvua","mvua","n","2","html-keyboard-response","236","v","chupa","false","",""
"1998.0999999996275","","","","","2","html-slider-response","237","","","","2",""
"13938","stone","wingi,ulimwengu,mkasi,asili","wingi","f","2","html-keyboard-response","238","j","mkasi","false","",""
"1882.0999999996275","","","","","2","html-slider-response","239","","","","1",""
"2520","hammer","mekno,napakyas,kitovu,layag","napakyas","v","2","html-keyboard-response","240","n","layag","false","",""
"1599.8999999985099","","","","","2","html-slider-response","241","","","","2",""
"2948","knee","duka,mvuke,kubale,bili","duka","f","2","html-keyboard-response","242","n","bili","false","",""
"3019.2999999988824","","","","","2","html-slider-response","243","","","","2",""
"2079","ceiling","kugita,maua,kawaida,rayna","maua","v","2","html-keyboard-response","244","f","kugita","false","",""
"1824.7000000011176","","","","","2","html-slider-response","245","","","","1",""
"4508","spoon","betri,pagsulod,nzuri,ngazi","pagsulod","v","2","html-keyboard-response","246","v","pagsulod","true","",""
"1759.7000000011176","","","","","2","html-slider-response","247","","","","1",""
"3036","marker","mapafu,salita,atay,maji","maji","n","2","html-keyboard-response","248","j","atay","false","",""
"1686.699999999255","","","","","2","html-slider-response","249","","","","2",""
"3166","candle","gabi,geza,farasi,kupanda","geza","v","2","html-keyboard-response","250","v","geza","true","",""
"2649.2000000011176","","","","","2","html-slider-response","251","","","","2",""
"5505","tissue","ugomvi,lamigas,kisiwa,katika","ugomvi","f","2","html-keyboard-response","252","j","kisiwa","false","",""
"2690","","","","","2","html-slider-response","253","","","","3",""
"3043","bridge","daima,sahani,ngono,panya","sahani","v","2","html-keyboard-response","254","f","daima","false","",""
"3782.9000000003725","","","","","2","html-slider-response","255","","","","1",""
"5558","berry","abogado,kofia,nogozi,kinywa","kofia","v","2","html-keyboard-response","256","v","kofia","true","",""
"2732.89999999851","","","","","2","html-slider-response","257","","","","1",""
"2745","triangle","kihozi,bentaha,liog,kasadpan","kasadpan","n","2","html-keyboard-response","258","v","bentaha","false","",""
"1941.0999999996275","","","","","2","html-slider-response","259","","","","1",""
"4872","door","tena,surali,soko,nyota","surali","v","2","html-keyboard-response","260","n","nyota","false","",""
"2501.300000000745","","","","","2","html-slider-response","261","","","","1",""
"3452","fish","buli,bala,baho,imani","buli","f","2","html-keyboard-response","262","j","baho","false","",""
"2523.2999999988824","","","","","2","html-slider-response","263","","","","4",""
"3161","curtain","lisud,bulwawan,chubani,mchanga","mchanga","n","2","html-keyboard-response","264","n","mchanga","true","",""
"2116.7000000011176","","","","","2","html-slider-response","265","","","","2",""
"2962","flag","ndege,mkate,kawa,trekta","trekta","n","2","html-keyboard-response","266","v","mkate","false","",""
"2453.5","","","","","2","html-slider-response","267","","","","2",""
"3100","boat","hamsi,pombe,agalon,kitanda","agalon","j","2","html-keyboard-response","268","n","kitanda","false","",""
"2259.0999999996275","","","","","2","html-slider-response","269","","","","1",""
"3113","rose","singizi,mwanake,amani,paghalad","paghalad","n","2","html-keyboard-response","270","j","amani","false","",""
"2525.60000000149","","","","","2","html-slider-response","271","","","","3",""
"2359","lamp","daub,afya,bilaska,mbolea","afya","v","2","html-keyboard-response","272","j","bilaska","false","",""
"2207.0999999996275","","","","","2","html-slider-response","273","","","","1",""
"2739","cigar","ndugu,kuta,mlango,adhabu","adhabu","n","2","html-keyboard-response","274","f","ndugu","false","",""
"9720.900000000373","","","","","2","html-slider-response","275","","","","1",""
"2972","list","wingu,alizeti,kuzama,kaso","wingu","f","2","html-keyboard-response","276","n","kaso","false","",""
"2002.4000000003725","","","","","2","html-slider-response","277","","","","1",""
"3485","sheet","juuya,watu,bililhon,kamantis","bililhon","j","2","html-keyboard-response","278","n","kamantis","false","",""
"1776.4000000003725","","","","","2","html-slider-response","279","","","","2",""
"2781","picture","silya,chaki,kubwa,asin","kubwa","j","2","html-keyboard-response","280","v","chaki","false","",""
"1818","","","","","2","html-slider-response","281","","","","1",""
"3090","towel","tembo,pagpalit,funzi,pito","pagpalit","v","2","html-keyboard-response","282","j","funzi","false","",""
"1808.800000000745","","","","","2","html-slider-response","283","","","","1",""
"2237","window","nanga,kweli,kujenga,umaga","kweli","v","2","html-keyboard-response","284","j","kujenga","false","",""
"1787.0999999996275","","","","","2","html-slider-response","285","","","","1",""
"3563","box","kuacha,rafiki,kitande,adui","adui","n","3","html-keyboard-response","293","f","kuacha","false","","4"
"2298.9000000003725","","","","","3","html-slider-response","294","","","","1",""
"2876","","","","","3","html-keyboard-response","295","","","","",""
"3676","pants","haki,pintal,chuki,hari","haki","f","3","html-keyboard-response","296","j","chuki","false","","4"
"2694.9000000003725","","","","","3","html-slider-response","297","","","","3",""
"2226","","","","","3","html-keyboard-response","298","","","","",""
"3232","cup","dagat,shimoni,jeraha,matumai","matumai","n","3","html-keyboard-response","299","n","matumai","true","","4"
"2696.300000000745","","","","","3","html-slider-response","300","","","","1",""
"2624","","","","","3","html-keyboard-response","301","","","","",""
"3928","triangle","kihozi,kasadpan,bentaha,liog","kasadpan","v","3","html-keyboard-response","302","f","kihozi","false","","4"
"2825.5999999996275","","","","","3","html-slider-response","303","","","","2",""
"1279","","","","","3","html-keyboard-response","304","","","","",""
"2595","curtain","lisud,bulwawan,chubani,mchanga","mchanga","n","3","html-keyboard-response","305","n","mchanga","true","","4"
"2490.60000000149","","","","","3","html-slider-response","306","","","","3",""
"1601","","","","","3","html-keyboard-response","307","","","","",""
"3917","clock","kartasi,abang,mbwa,osha","mbwa","j","3","html-keyboard-response","308","j","mbwa","true","","4"
"2270","","","","","3","html-slider-response","309","","","","2",""
"1261","","","","","3","html-keyboard-response","310","","","","",""
"4155","mirror","rangi,kanding,furaha,sulagma","sulagma","n","3","html-keyboard-response","311","n","sulagma","true","","4"
"2106","","","","","3","html-slider-response","312","","","","1",""
"2007","","","","","3","html-keyboard-response","313","","","","",""
"3641","coffin","barua,tubag,kioo,hulma","kioo","j","3","html-keyboard-response","314","j","kioo","true","","1"
"4557.60000000149","","","","","3","html-slider-response","315","","","","3",""
"1313","","","","","3","html-keyboard-response","316","","","","",""
"4557","magazine","gundi,mchawi,kiti,bahandi","kiti","j","3","html-keyboard-response","317","n","bahandi","false","","4"
"1900.5","","","","","3","html-slider-response","318","","","","2",""
"1008","","","","","3","html-keyboard-response","319","","","","",""
"2018","column","ufagio,pundok,dila,pala","ufagio","f","3","html-keyboard-response","320","f","ufagio","true","","1"
"2023.300000000745","","","","","3","html-slider-response","321","","","","5",""
"797","","","","","3","html-keyboard-response","322","","","","",""
"2585","number","shule,mundamo,kengele,choori","mundamo","v","3","html-keyboard-response","323","v","mundamo","true","","4"
"2604.4000000003725","","","","","3","html-slider-response","324","","","","4",""
"905","","","","","3","html-keyboard-response","325","","","","",""
"8253","rose","singizi,mwanake,paghalad,amani","paghalad","j","3","html-keyboard-response","326","n","amani","false","","4"
"3385.300000000745","","","","","3","html-slider-response","327","","","","3",""
"815","","","","","3","html-keyboard-response","328","","","","",""
"2810","eel","ishara,kunywa,msumari,kabuang","msumari","j","3","html-keyboard-response","329","v","kunywa","false","","4"
"2576.0999999996275","","","","","3","html-slider-response","330","","","","1",""
"742","","","","","3","html-keyboard-response","331","","","","",""
"3014","gift","baba,nyange,pagtawag,baso","pagtawag","j","3","html-keyboard-response","332","n","baso","false","","4"
"3528.4000000003725","","","","","3","html-slider-response","333","","","","3",""
"726","","","","","3","html-keyboard-response","334","","","","",""
"1867","apple","ukame,estante,kisu,edad","kisu","j","3","html-keyboard-response","335","j","kisu","true","","1"
"2000.300000000745","","","","","3","html-slider-response","336","","","","5",""
"717","","","","","3","html-keyboard-response","337","","","","",""
"1555","wheel","punda,tawo,baadaye,bafuni","bafuni","n","3","html-keyboard-response","338","n","bafuni","true","","1"
"2542.5","","","","","3","html-slider-response","339","","","","5",""
"852","","","","","3","html-keyboard-response","340","","","","",""
"2670","knee","mvuke,kubale,bili,duka","duka","n","3","html-keyboard-response","341","v","kubale","false","","4"
"2301.699999999255","","","","","3","html-slider-response","342","","","","2",""
"752","","","","","3","html-keyboard-response","343","","","","",""
"1428","basket","kumbuka,kumba,utepe,hasira","kumba","v","3","html-keyboard-response","344","v","kumba","true","","1"
"2002.5","","","","","3","html-slider-response","345","","","","5",""
"600","","","","","3","html-keyboard-response","346","","","","",""
"2348","park","bunifu,tambok,pwani,ihalas","bunifu","f","3","html-keyboard-response","347","j","pwani","false","","4"
"2478.199999999255","","","","","3","html-slider-response","348","","","","1",""
"435","","","","","3","html-keyboard-response","349","","","","",""
"2836","finger","moyo,simu,sufuria,lima","moyo","f","3","html-keyboard-response","350","n","lima","false","","4"
"2472.5","","","","","3","html-slider-response","351","","","","3",""
"697","","","","","3","html-keyboard-response","352","","","","",""
"2849","boat","agalon,hamsi,pombe,kitanda","agalon","f","3","html-keyboard-response","353","n","kitanda","false","","4"
"1625.8999999985099","","","","","3","html-slider-response","354","","","","2",""
"667","","","","","3","html-keyboard-response","355","","","","",""
"5483","hill","matumbo,kushoto,kukimba,sweta","matumbo","f","3","html-keyboard-response","356","f","matumbo","true","","4"
"1723","","","","","3","html-slider-response","357","","","","2",""
"2100","","","","","3","html-keyboard-response","358","","","","",""
"3024","train","itik,dakika,mungu,sayari","sayari","n","3","html-keyboard-response","359","n","sayari","true","","4"
"1943.800000000745","","","","","3","html-slider-response","360","","","","1",""
"741","","","","","3","html-keyboard-response","361","","","","",""
"3999","wolf","kaburi,ndizi,mchuzi,lugha","lugha","n","3","html-keyboard-response","362","f","kaburi","false","","4"
"2251.7000000011176","","","","","3","html-slider-response","363","","","","2",""
"653","","","","","3","html-keyboard-response","364","","","","",""
"2442","snake","jansa,pagtukod,karon,mvringo","pagtukod","v","3","html-keyboard-response","365","v","pagtukod","true","","4"
"1988.300000000745","","","","","3","html-slider-response","366","","","","1",""
"774","","","","","3","html-keyboard-response","367","","","","",""
"3146","tooth","kijiko,kabalaka,uadui,pahiyum","kabalaka","v","3","html-keyboard-response","368","f","kijiko","false","","4"
"2188.300000000745","","","","","3","html-slider-response","369","","","","2",""
"696","","","","","3","html-keyboard-response","370","","","","",""
"2063","notebook","msitu,kemia,kila,mdudu","kemia","v","3","html-keyboard-response","371","n","mdudu","false","","4"
"1743.9000000003725","","","","","3","html-slider-response","372","","","","1",""
"582","","","","","3","html-keyboard-response","373","","","","",""
"2033","flag","ndege,mkate,trekta,kawa","trekta","j","3","html-keyboard-response","374","v","mkate","false","","4"
"2498.5999999996275","","","","","3","html-slider-response","375","","","","2",""
"571","","","","","3","html-keyboard-response","376","","","","",""
"4617","squirrel","hofu,mahugaw,ukweli,kichwa","hofu","f","3","html-keyboard-response","377","v","mahugaw","false","","4"
"2617.300000000745","","","","","3","html-slider-response","378","","","","4",""
"881","","","","","3","html-keyboard-response","379","","","","",""
"4079","door","tena,soko,nyota,surali","surali","n","3","html-keyboard-response","380","v","soko","false","","4"
"2910.0999999996275","","","","","3","html-slider-response","381","","","","2",""
"631","","","","","3","html-keyboard-response","382","","","","",""
"4762","salmon","sensilyo,mzungu,seri,baharia","sensilyo","f","3","html-keyboard-response","383","n","baharia","false","","4"
"2696.800000000745","","","","","3","html-slider-response","384","","","","3",""
"1131","","","","","3","html-keyboard-response","385","","","","",""
"3786","shoulder","kelele,mkuu,ndaniya,guruwe","mkuu","v","3","html-keyboard-response","386","f","kelele","false","","4"
"2729.0999999996275","","","","","3","html-slider-response","387","","","","3",""
"672","","","","","3","html-keyboard-response","388","","","","",""
"2215","lamp","afya,daub,bilaska,mbolea","afya","f","3","html-keyboard-response","389","j","bilaska","false","","4"
"2157.9000000003725","","","","","3","html-slider-response","390","","","","2",""
"687","","","","","3","html-keyboard-response","391","","","","",""
"1600","shelf","bungtod,pamahaw,kadaot,awit","pamahaw","v","3","html-keyboard-response","392","v","pamahaw","true","","1"
"1959.9000000003725","","","","","3","html-slider-response","393","","","","5",""
"3512","","","","","3","html-keyboard-response","394","","","","",""
"3969","human","bado,tinapay,kikapu,punguza","tinapay","v","3","html-keyboard-response","395","n","punguza","false","","4"
"2271.5","","","","","3","html-slider-response","396","","","","2",""
"626","","","","","3","html-keyboard-response","397","","","","",""
"2373","towel","pagpalit,tembo,funzi,pito","pagpalit","f","3","html-keyboard-response","398","n","pito","false","","4"
"2856.7000000011176","","","","","3","html-slider-response","399","","","","3",""
"1730","","","","","3","html-keyboard-response","400","","","","",""
"2945","cat","paghukom,neyemba,baki,akili","paghukom","f","3","html-keyboard-response","401","n","akili","false","","4"
"3444.699999999255","","","","","3","html-slider-response","402","","","","3",""
"584","","","","","3","html-keyboard-response","403","","","","",""
"2840","spider","bunyag,mkboa,kamwe,atop","kamwe","j","3","html-keyboard-response","404","v","mkboa","false","","4"
"2155.800000000745","","","","","3","html-slider-response","405","","","","4",""
"553","","","","","3","html-keyboard-response","406","","","","",""
"2100","window","nanga,kujenga,kweli,umaga","kweli","j","3","html-keyboard-response","407","f","nanga","false","","4"
"2082.4000000003725","","","","","3","html-slider-response","408","","","","1",""
"975","","","","","3","html-keyboard-response","409","","","","",""
"1991","woman","bandari,pagtabon,bituin,kovuli","pagtabon","v","3","html-keyboard-response","410","v","pagtabon","true","","1"
"2398.4000000003725","","","","","3","html-slider-response","411","","","","5",""
"596","","","","","3","html-keyboard-response","412","","","","",""
"2114","giraffe","daraja,jumatu,mahitabo,hangyo","mahitabo","j","3","html-keyboard-response","413","j","mahitabo","true","","4"
"1668.8999999985099","","","","","3","html-slider-response","414","","","","2",""
"808","","","","","3","html-keyboard-response","415","","","","",""
"3013","elephant","kito,petye,pagduol,suka","kito","f","3","html-keyboard-response","416","j","pagduol","false","","4"
"2181.7000000011176","","","","","3","html-slider-response","417","","","","2",""
"727","","","","","3","html-keyboard-response","418","","","","",""
"3238","cave","ganti,maisha,nyundo,kesho","kesho","n","3","html-keyboard-response","419","f","ganti","false","","4"
"1742.199999999255","","","","","3","html-slider-response","420","","","","4",""
"639","","","","","3","html-keyboard-response","421","","","","",""
"2855","bread","kaili,dari,dizeli,bugas","dari","v","3","html-keyboard-response","422","v","dari","true","","4"
"2439.7999999988824","","","","","3","html-slider-response","423","","","","5",""
"985","","","","","3","html-keyboard-response","424","","","","",""
"9763","stone","ulimwengu,wingi,mkasi,asili","wingi","v","3","html-keyboard-response","425","n","asili","false","","4"
"3148","","","","","3","html-slider-response","426","","","","3",""
"5060","","","","","3","html-keyboard-response","427","","","","",""
"2648","donkey","elfu,bloke,lalake,rombus","elfu","f","3","html-keyboard-response","428","n","rombus","false","","4"
"1896.0999999996275","","","","","3","html-slider-response","429","","","","2",""
"939","","","","","3","html-keyboard-response","430","","","","",""
"2794","bridge","daima,ngono,panya,sahani","sahani","n","3","html-keyboard-response","431","f","daima","false","","4"
"2485.0999999996275","","","","","3","html-slider-response","432","","","","1",""
"470","","","","","3","html-keyboard-response","433","","","","",""
"2810","bonfire","goti,mwezi,mfuko,kusanya","goti","f","3","html-keyboard-response","434","j","mfuko","false","","4"
"2124.5","","","","","3","html-slider-response","435","","","","2",""
"665","","","","","3","html-keyboard-response","436","","","","",""
"2336","book","mali,kuhesa,picha,mara","mali","f","3","html-keyboard-response","437","f","mali","true","","4"
"1708.699999999255","","","","","3","html-slider-response","438","","","","4",""
"494","","","","","3","html-keyboard-response","439","","","","",""
"3380","fish","bala,buli,baho,imani","buli","v","3","html-keyboard-response","440","j","baho","false","","4"
"3109.4000000003725","","","","","3","html-slider-response","441","","","","4",""
"875","","","","","3","html-keyboard-response","442","","","","",""
"3849","spoon","betri,nzuri,pagsulod,ngazi","pagsulod","j","3","html-keyboard-response","443","j","pagsulod","true","","4"
"1815.199999999255","","","","","3","html-slider-response","444","","","","4",""
"495","","","","","3","html-keyboard-response","445","","","","",""
"3942","scissors","duga,mtawa,tanuri,suga","tanuri","j","3","html-keyboard-response","446","v","mtawa","false","","4"
"1992.300000000745","","","","","3","html-slider-response","447","","","","1",""
"608","","","","","3","html-keyboard-response","448","","","","",""
"2713","page","wimbo,wakala,ishiri,skina","wimbo","f","3","html-keyboard-response","449","f","wimbo","true","","4"
"1750.300000000745","","","","","3","html-slider-response","450","","","","2",""
"825","","","","","3","html-keyboard-response","451","","","","",""
"1284","nose","gubat,sehemu,kopa,kidole","sehemu","v","3","html-keyboard-response","452","v","sehemu","true","","1"
"2034.6000000014901","","","","","3","html-slider-response","453","","","","5",""
"441","","","","","3","html-keyboard-response","454","","","","",""
"2214","ceiling","kugita,kawaida,maua,rayna","maua","j","3","html-keyboard-response","455","j","maua","true","","4"
"1515.8999999985099","","","","","3","html-slider-response","456","","","","2",""
"676","","","","","3","html-keyboard-response","457","","","","",""
"3097","bucket","baga,ijayo,kiatu,init","kiatu","j","3","html-keyboard-response","458","j","kiatu","true","","4"
"1478.300000000745","","","","","3","html-slider-response","459","","","","2",""
"606","","","","","3","html-keyboard-response","460","","","","",""
"1176","berry","kofia,abogado,nogozi,kinywa","kofia","f","3","html-keyboard-response","461","f","kofia","true","","1"
"1958.800000000745","","","","","3","html-slider-response","462","","","","5",""
"845","","","","","3","html-keyboard-response","463","","","","",""
"1195","mother","kahawa,mbuzi,jokofu,babaye","babaye","n","3","html-keyboard-response","464","n","babaye","true","","1"
"1861.6000000014901","","","","","3","html-slider-response","465","","","","5",""
"851","","","","","3","html-keyboard-response","466","","","","",""
"3662","mosquito","martilyo,isda,taras,gutom","martilyo","f","3","html-keyboard-response","467","v","isda","false","","4"
"1953.4000000022352","","","","","3","html-slider-response","468","","","","1",""
"428","","","","","3","html-keyboard-response","469","","","","",""
"2783","perfume","bino,sungura,ndogo,katuyoan","katuyoan","n","3","html-keyboard-response","470","n","katuyoan","true","","4"
"2531.7000000029802","","","","","3","html-slider-response","471","","","","3",""
"668","","","","","3","html-keyboard-response","472","","","","",""
"4242","sheet","bililhon,juuya,watu,kamantis","bililhon","f","3","html-keyboard-response","473","v","juuya","false","","4"
"1549.4000000022352","","","","","3","html-slider-response","474","","","","2",""
"456","","","","","3","html-keyboard-response","475","","","","",""
"1206","puppet","mazishi,napulo,lamok,godoro","mazishi","f","3","html-keyboard-response","476","f","mazishi","true","","1"
"1692.699999999255","","","","","3","html-slider-response","477","","","","5",""
"966","","","","","3","html-keyboard-response","478","","","","",""
"2332","poster","nchi,madungog,fedha,kasuko","madungog","v","3","html-keyboard-response","479","n","kasuko","false","","4"
"1681.699999999255","","","","","3","html-slider-response","480","","","","1",""
"472","","","","","3","html-keyboard-response","481","","","","",""
"2756","music","mraba,mageho,baiski,tumbo","baiski","j","3","html-keyboard-response","482","j","baiski","true","","4"
"2040","","","","","3","html-slider-response","483","","","","2",""
"943","","","","","3","html-keyboard-response","484","","","","",""
"3104","key","miaka,chombo,goma,ahos","chombo","v","3","html-keyboard-response","485","f","miaka","false","","4"
"3009.199999999255","","","","","3","html-slider-response","486","","","","1",""
"542","","","","","3","html-keyboard-response","487","","","","",""
"3124","sock","mamba,ndoora,kimysa,mtirka","mamba","f","3","html-keyboard-response","488","j","kimysa","false","","4"
"1738.199999999255","","","","","3","html-slider-response","489","","","","1",""
"417","","","","","3","html-keyboard-response","490","","","","",""
"4073","marker","maji,mapafu,salita,atay","maji","f","3","html-keyboard-response","491","j","salita","false","","4"
"2404.39999999851","","","","","3","html-slider-response","492","","","","2",""
"511","","","","","3","html-keyboard-response","493","","","","",""
"2252","office","hazini,leso,yatima,kuna","leso","v","3","html-keyboard-response","494","f","hazini","false","","4"
"1691.0999999977648","","","","","3","html-slider-response","495","","","","1",""
"509","","","","","3","html-keyboard-response","496","","","","",""
"2858","shoe","nyeusi,uyoga,hatua,kama","uyoga","v","3","html-keyboard-response","497","v","uyoga","true","","4"
"2987.7999999970198","","","","","3","html-slider-response","498","","","","3",""
"2011","","","","","3","html-keyboard-response","499","","","","",""
"2487","cop","bustani,jikoni,bakus,mechezo","mechezo","n","3","html-keyboard-response","500","n","mechezo","true","","4"
"2891.2999999970198","","","","","3","html-slider-response","501","","","","2",""
"972","","","","","3","html-keyboard-response","502","","","","",""
"3454","bank","kudhibi,tualya,silingan,ofisi","silingan","j","3","html-keyboard-response","503","f","kudhibi","false","","4"
"2114.60000000149","","","","","3","html-slider-response","504","","","","2",""
"816","","","","","3","html-keyboard-response","505","","","","",""
"1205","letter","filimbi,kifua,chuma,uhuru","kifua","v","3","html-keyboard-response","506","v","kifua","true","","1"
"2184.900000002235","","","","","3","html-slider-response","507","","","","5",""
"700","","","","","3","html-keyboard-response","508","","","","",""
"1326","dog","lubi,bahari,washia,kalamu","bahari","v","3","html-keyboard-response","509","v","bahari","true","","1"
"2033.199999999255","","","","","3","html-slider-response","510","","","","5",""
"949","","","","","3","html-keyboard-response","511","","","","",""
"3237","shop","nopya,kerida,samaki,ndezu","samaki","j","3","html-keyboard-response","512","f","nopya","false","","4"
"1783.800000000745","","","","","3","html-slider-response","513","","","","2",""
"407","","","","","3","html-keyboard-response","514","","","","",""
"3146","flower","tamasha,lobo,usiku,bega","bega","n","3","html-keyboard-response","515","f","tamasha","false","","4"
"2661.89999999851","","","","","3","html-slider-response","516","","","","3",""
"527","","","","","3","html-keyboard-response","517","","","","",""
"1758","cigar","ndugu,kuta,mlango,adhabu","adhabu","n","3","html-keyboard-response","518","n","adhabu","true","","1"
"2240.39999999851","","","","","3","html-slider-response","519","","","","5",""
"740","","","","","3","html-keyboard-response","520","","","","",""
"2327","hammer","napakyas,mekno,kitovu,layag","napakyas","f","3","html-keyboard-response","521","n","layag","false","","4"
"1648.800000000745","","","","","3","html-slider-response","522","","","","2",""
"544","","","","","3","html-keyboard-response","523","","","","",""
"2300","fork","baboy,paghago,gorisi,mgonjwa","mgonjwa","n","3","html-keyboard-response","524","n","mgonjwa","true","","4"
"1662.8999999985099","","","","","3","html-slider-response","525","","","","1",""
"536","","","","","3","html-keyboard-response","526","","","","",""
"1346","sun","basi,bendi,luha,uongo","basi","f","3","html-keyboard-response","527","f","basi","true","","1"
"2181.800000000745","","","","","3","html-slider-response","528","","","","5",""
"1623","","","","","3","html-keyboard-response","529","","","","",""
"2015","ladder","mashua,mwanga,pangalan,kamba","pangalan","j","3","html-keyboard-response","530","j","pangalan","true","","4"
"2591.800000000745","","","","","3","html-slider-response","531","","","","1",""
"380","","","","","3","html-keyboard-response","532","","","","",""
"1476","banana","kasamok,hagdan,kazi,twai","kazi","j","3","html-keyboard-response","533","j","kazi","true","","1"
"1804.800000000745","","","","","3","html-slider-response","534","","","","5",""
"458","","","","","3","html-keyboard-response","535","","","","",""
"3260","pudding","abug,aibu,mpishi,iring","aibu","v","3","html-keyboard-response","536","j","mpishi","false","","4"
"1615.5999999977648","","","","","3","html-slider-response","537","","","","2",""
"393","","","","","3","html-keyboard-response","538","","","","",""
"3208","body","nyundu,jibini,tindashan,kununa","tindashan","j","3","html-keyboard-response","539","f","nyundu","false","","4"
"1618.5","","","","","3","html-slider-response","540","","","","2",""
"416","","","","","3","html-keyboard-response","541","","","","",""
"4142","bed","kalipay,haraka,mapintas,starehe","mapintas","j","3","html-keyboard-response","542","f","kalipay","false","","4"
"2414.10000000149","","","","","3","html-slider-response","543","","","","2",""
"618","","","","","3","html-keyboard-response","544","","","","",""
"2683","tissue","ugomvi,lamigas,kisiwa,katika","ugomvi","f","3","html-keyboard-response","545","n","katika","false","","4"
"2557","","","","","3","html-slider-response","546","","","","2",""
"411","","","","","3","html-keyboard-response","547","","","","",""
"2968","candle","gabi,geza,farasi,kupanda","geza","v","3","html-keyboard-response","548","f","gabi","false","","4"
"3265","","","","","3","html-slider-response","549","","","","3",""
"509","","","","","3","html-keyboard-response","550","","","","",""
"1715","tomato","mvua,chupi,chupa,takatak","mvua","f","3","html-keyboard-response","551","f","mvua","true","","1"
"1851.800000000745","","","","","3","html-slider-response","552","","","","5",""
"558","","","","","3","html-keyboard-response","553","","","","",""
"1437","list","alizeti,kuzama,wingu,kaso","wingu","j","3","html-keyboard-response","554","n","kaso","false","","4"
"1786.800000000745","","","","","3","html-slider-response","555","","","","1",""
"446","","","","","3","html-keyboard-response","556","","","","",""
"2684","olive","bata,siagi,jiwe,welder","jiwe","j","3","html-keyboard-response","557","v","siagi","false","","4"
"1691.4000000022352","","","","","3","html-slider-response","558","","","","2",""
"457","","","","","3","html-keyboard-response","559","","","","",""
"1549","picture","kubwa,silya,chaki,asin","kubwa","f","3","html-keyboard-response","560","f","kubwa","true","","1"
"2803.400000002235","","","","","3","html-slider-response","561","","","","5",""
"828","","","","","3","html-keyboard-response","562","","","","",""
"3035","page","wakala,ishiri,skina,wimbo","wimbo","n","4","html-keyboard-response","888","f","wakala","false","",""
"4043","","","","","4","html-slider-response","889","","","","3",""
"10891","sheet","bililhon,juuya,watu,kamantis","bililhon","f","4","html-keyboard-response","890","v","juuya","false","",""
"1861.1000000014901","","","","","4","html-slider-response","891","","","","2",""
"1756","ladder","mashua,mwanga,pangalan,kamba","pangalan","j","4","html-keyboard-response","892","v","mwanga","false","",""
"2381.60000000149","","","","","4","html-slider-response","893","","","","1",""
"2210","door","tena,soko,nyota,surali","surali","n","4","html-keyboard-response","894","j","nyota","false","",""
"2117.699999999255","","","","","4","html-slider-response","895","","","","2",""
"3106","spider","kamwe,bunyag,mkboa,atop","kamwe","f","4","html-keyboard-response","896","j","mkboa","false","",""
"4716.199999999255","","","","","4","html-slider-response","897","","","","3",""
"1931","picture","silya,kubwa,chaki,asin","kubwa","v","4","html-keyboard-response","898","f","silya","false","",""
"2437.60000000149","","","","","4","html-slider-response","899","","","","1",""
"2299","boat","agalon,hamsi,pombe,kitanda","agalon","f","4","html-keyboard-response","900","j","pombe","false","",""
"2036.8999999985099","","","","","4","html-slider-response","901","","","","2",""
"13477","donkey","bloke,elfu,lalake,rombus","elfu","v","4","html-keyboard-response","902","f","bloke","false","",""
"2811.5","","","","","4","html-slider-response","903","","","","3",""
"3412","book","kuhesa,mali,picha,mara","mali","v","4","html-keyboard-response","904","v","mali","true","",""
"1987.1000000014901","","","","","4","html-slider-response","905","","","","5",""
"2361","cup","dagat,shimoni,matumai,jeraha","matumai","j","4","html-keyboard-response","906","j","matumai","true","",""
"2391","","","","","4","html-slider-response","907","","","","3",""
"2300","sun","bendi,luha,basi,uongo","basi","j","4","html-keyboard-response","908","v","luha","false","",""
"2653.89999999851","","","","","4","html-slider-response","909","","","","3",""
"2535","pudding","abug,mpishi,iring,aibu","aibu","n","4","html-keyboard-response","910","f","abug","false","",""
"1743.5","","","","","4","html-slider-response","911","","","","1",""
"2763","human","tinapay,bado,kikapu,punguza","tinapay","f","4","html-keyboard-response","912","n","punguza","false","",""
"1956.300000000745","","","","","4","html-slider-response","913","","","","5",""
"2944","squirrel","mahugaw,ukweli,kichwa,hofu","hofu","n","4","html-keyboard-response","914","f","mahugaw","false","",""
"2559.5","","","","","4","html-slider-response","915","","","","4",""
"5174","park","tambok,pwani,ihalas,bunifu","bunifu","n","4","html-keyboard-response","916","f","tambok","false","",""
"1653.7000000029802","","","","","4","html-slider-response","917","","","","2",""
"3198","poster","nchi,madungog,fedha,kasuko","madungog","v","4","html-keyboard-response","918","v","madungog","true","",""
"4278.699999999255","","","","","4","html-slider-response","919","","","","3",""
"2298","wolf","lugha,kaburi,ndizi,mchuzi","lugha","f","4","html-keyboard-response","920","n","mchuzi","false","",""
"2309.199999999255","","","","","4","html-slider-response","921","","","","1",""
"5476","cat","neyemba,baki,akili,paghukom","paghukom","n","4","html-keyboard-response","922","v","baki","false","",""
"2136","","","","","4","html-slider-response","923","","","","4",""
"3862","fish","bala,buli,baho,imani","buli","v","4","html-keyboard-response","924","v","buli","true","",""
"2425.60000000149","","","","","4","html-slider-response","925","","","","4",""
"1974","tooth","kabalaka,kijiko,uadui,pahiyum","kabalaka","f","4","html-keyboard-response","926","f","kabalaka","true","",""
"1824.3999999985099","","","","","4","html-slider-response","927","","","","1",""
"2074","cave","ganti,kesho,maisha,nyundo","kesho","v","4","html-keyboard-response","928","n","nyundo","false","",""
"2318.300000000745","","","","","4","html-slider-response","929","","","","1",""
"1622","lamp","daub,bilaska,mbolea,afya","afya","n","4","html-keyboard-response","930","j","mbolea","false","",""
"1774.199999999255","","","","","4","html-slider-response","931","","","","1",""
"3330","banana","kasamok,kazi,hagdan,twai","kazi","v","4","html-keyboard-response","932","v","kazi","true","",""
"2435.099999997765","","","","","4","html-slider-response","933","","","","2",""
"2089","bonfire","goti,mwezi,mfuko,kusanya","goti","f","4","html-keyboard-response","934","n","kusanya","false","",""
"2700.60000000149","","","","","4","html-slider-response","935","","","","1",""
"2892","cop","bustani,mechezo,jikoni,bakus","mechezo","v","4","html-keyboard-response","936","v","mechezo","true","",""
"2131.10000000149","","","","","4","html-slider-response","937","","","","3",""
"1965","marker","mapafu,maji,salita,atay","maji","v","4","html-keyboard-response","938","n","atay","false","",""
"2565.39999999851","","","","","4","html-slider-response","939","","","","1",""
"2116","window","kweli,nanga,kujenga,umaga","kweli","f","4","html-keyboard-response","940","j","kujenga","false","",""
"2444.5","","","","","4","html-slider-response","941","","","","1",""
"3304","body","nyundu,tindashan,jibini,kununa","tindashan","v","4","html-keyboard-response","942","f","nyundu","false","",""
"2102.39999999851","","","","","4","html-slider-response","943","","","","2",""
"3529","apple","ukame,kisu,estante,edad","kisu","v","4","html-keyboard-response","944","v","kisu","true","",""
"2800.5","","","","","4","html-slider-response","945","","","","3",""
"4470","salmon","sensilyo,mzungu,seri,baharia","sensilyo","f","4","html-keyboard-response","946","f","sensilyo","true","",""
"2095.599999997765","","","","","4","html-slider-response","947","","","","5",""
"2768","bed","mapintas,kalipay,haraka,starehe","mapintas","f","4","html-keyboard-response","948","f","mapintas","true","",""
"3466.800000000745","","","","","4","html-slider-response","949","","","","3",""
"2708","berry","abogado,nogozi,kinywa,kofia","kofia","n","4","html-keyboard-response","950","n","kofia","true","",""
"1899.1000000014901","","","","","4","html-slider-response","951","","","","1",""
"3211","mirror","rangi,sulagma,kanding,furaha","sulagma","v","4","html-keyboard-response","952","j","kanding","false","",""
"1972.5999999977648","","","","","4","html-slider-response","953","","","","1",""
"2683","flag","ndege,trekta,mkate,kawa","trekta","v","4","html-keyboard-response","954","j","mkate","false","",""
"2856.300000000745","","","","","4","html-slider-response","955","","","","1",""
"2799","shoulder","mkuu,kelele,ndaniya,guruwe","mkuu","f","4","html-keyboard-response","956","n","guruwe","false","",""
"1919.699999999255","","","","","4","html-slider-response","957","","","","2",""
"4193","tissue","lamigas,ugomvi,kisiwa,katika","ugomvi","v","4","html-keyboard-response","958","n","katika","false","",""
"2790.199999999255","","","","","4","html-slider-response","959","","","","4",""
"4016","notebook","msitu,kila,kemia,mdudu","kemia","j","4","html-keyboard-response","960","n","mdudu","false","",""
"2245.7000000029802","","","","","4","html-slider-response","961","","","","2",""
"2224","snake","jansa,karon,mvringo,pagtukod","pagtukod","n","4","html-keyboard-response","962","f","jansa","false","",""
"1871.1000000014901","","","","","4","html-slider-response","963","","","","1",""
"1808","finger","simu,sufuria,moyo,lima","moyo","j","4","html-keyboard-response","964","n","lima","false","",""
"2737.699999999255","","","","","4","html-slider-response","965","","","","3",""
"4126","basket","kumbuka,kumba,utepe,hasira","kumba","v","4","html-keyboard-response","966","f","kumbuka","false","",""
"2604.2999999970198","","","","","4","html-slider-response","967","","","","4",""
"3121","curtain","lisud,mchanga,bulwawan,chubani","mchanga","v","4","html-keyboard-response","968","v","mchanga","true","",""
"2062.199999999255","","","","","4","html-slider-response","969","","","","4",""
"6153","perfume","bino,sungura,ndogo,katuyoan","katuyoan","n","4","html-keyboard-response","970","n","katuyoan","true","",""
"2043.699999999255","","","","","4","html-slider-response","971","","","","1",""
"2684","key","miaka,chombo,goma,ahos","chombo","v","4","html-keyboard-response","972","v","chombo","true","",""
"1720","","","","","4","html-slider-response","973","","","","2",""
"2990","olive","bata,siagi,jiwe,welder","jiwe","j","4","html-keyboard-response","974","j","jiwe","true","",""
"1846.300000000745","","","","","4","html-slider-response","975","","","","2",""
"5102","rose","singizi,mwanake,paghalad,amani","paghalad","j","4","html-keyboard-response","976","j","paghalad","true","",""
"3619.300000000745","","","","","4","html-slider-response","977","","","","3",""
"2781","bridge","daima,sahani,ngono,panya","sahani","v","4","html-keyboard-response","978","n","panya","false","",""
"1696.5","","","","","4","html-slider-response","979","","","","1",""
"2412","hill","kushoto,matumbo,kukimba,sweta","matumbo","v","4","html-keyboard-response","980","j","kukimba","false","",""
"2074.699999999255","","","","","4","html-slider-response","981","","","","1",""
"2226","letter","kifua,filimbi,chuma,uhuru","kifua","f","4","html-keyboard-response","982","f","kifua","true","",""
"2727.60000000149","","","","","4","html-slider-response","983","","","","1",""
"2279","sock","mamba,ndoora,kimysa,mtirka","mamba","f","4","html-keyboard-response","984","f","mamba","true","",""
"3002.5","","","","","4","html-slider-response","985","","","","1",""
"1693","fork","baboy,paghago,mgonjwa,gorisi","mgonjwa","j","4","html-keyboard-response","986","n","gorisi","false","",""
"1777.199999999255","","","","","4","html-slider-response","987","","","","1",""
"2541","box","kuacha,rafiki,kitande,adui","adui","n","4","html-keyboard-response","988","f","kuacha","false","",""
"2507.89999999851","","","","","4","html-slider-response","989","","","","2",""
"2490","gift","baba,nyange,pagtawag,baso","pagtawag","j","4","html-keyboard-response","990","n","baso","false","",""
"2631.2000000029802","","","","","4","html-slider-response","991","","","","3",""
"2641","bucket","baga,ijayo,init,kiatu","kiatu","n","4","html-keyboard-response","992","n","kiatu","true","",""
"1838","","","","","4","html-slider-response","993","","","","2",""
"1703","shop","samaki,nopya,kerida,ndezu","samaki","f","4","html-keyboard-response","994","j","kerida","false","",""
"2177.10000000149","","","","","4","html-slider-response","995","","","","1",""
"2177","puppet","napulo,lamok,mazishi,godoro","mazishi","j","4","html-keyboard-response","996","j","mazishi","true","",""
"2607.10000000149","","","","","4","html-slider-response","997","","","","1",""
"4516","nose","gubat,kopa,sehemu,kidole","sehemu","j","4","html-keyboard-response","998","n","kidole","false","",""
"1976.5999999977648","","","","","4","html-slider-response","999","","","","1",""
"2739","music","baiski,mraba,mageho,tumbo","baiski","f","4","html-keyboard-response","1000","n","tumbo","false","",""
"2549.900000002235","","","","","4","html-slider-response","1001","","","","3",""
"2722","dog","lubi,bahari,washia,kalamu","bahari","v","4","html-keyboard-response","1002","v","bahari","true","",""
"2428.800000000745","","","","","4","html-slider-response","1003","","","","2",""
"3628","eel","ishara,kunywa,msumari,kabuang","msumari","j","4","html-keyboard-response","1004","n","kabuang","false","",""
"2884.699999999255","","","","","4","html-slider-response","1005","","","","1",""
"3086","number","shule,kengele,choori,mundamo","mundamo","n","4","html-keyboard-response","1006","n","mundamo","true","",""
"2055.699999999255","","","","","4","html-slider-response","1007","","","","5",""
"2917","tomato","chupi,chupa,mvua,takatak","mvua","j","4","html-keyboard-response","1008","v","chupa","false","",""
"1937.300000000745","","","","","4","html-slider-response","1009","","","","2",""
"4908","coffin","kioo,barua,tubag,hulma","kioo","f","4","html-keyboard-response","1010","f","kioo","true","",""
"2313.89999999851","","","","","4","html-slider-response","1011","","","","1",""
"4485","knee","duka,mvuke,kubale,bili","duka","f","4","html-keyboard-response","1012","n","bili","false","",""
"1815.2999999970198","","","","","4","html-slider-response","1013","","","","1",""
"3996","woman","bandari,pagtabon,bituin,kovuli","pagtabon","v","4","html-keyboard-response","1014","j","bituin","false","",""
"1881.1000000014901","","","","","4","html-slider-response","1015","","","","2",""
"3462","stone","ulimwengu,mkasi,asili,wingi","wingi","n","4","html-keyboard-response","1016","j","asili","false","",""
"2785.5","","","","","4","html-slider-response","1017","","","","3",""
"2745","bread","dari,kaili,dizeli,bugas","dari","f","4","html-keyboard-response","1018","f","dari","true","",""
"2094.10000000149","","","","","4","html-slider-response","1019","","","","5",""
"2355","triangle","kihozi,kasadpan,bentaha,liog","kasadpan","v","4","html-keyboard-response","1020","j","bentaha","false","",""
"2466.89999999851","","","","","4","html-slider-response","1021","","","","2",""
"3020","scissors","duga,tanuri,mtawa,suga","tanuri","v","4","html-keyboard-response","1022","f","duga","false","",""
"1673.199999999255","","","","","4","html-slider-response","1023","","","","2",""
"2764","giraffe","daraja,jumatu,mahitabo,hangyo","mahitabo","j","4","html-keyboard-response","1024","f","daraja","false","",""
"1690.0999999977648","","","","","4","html-slider-response","1025","","","","2",""
"2761","flower","tamasha,bega,lobo,usiku","bega","v","4","html-keyboard-response","1026","j","lobo","false","",""
"2674.2000000029802","","","","","4","html-slider-response","1027","","","","1",""
"3185","candle","geza,gabi,farasi,kupanda","geza","f","4","html-keyboard-response","1028","v","gabi","false","",""
"2333.199999999255","","","","","4","html-slider-response","1029","","","","4",""
"4967","mother","kahawa,babaye,mbuzi,jokofu","babaye","v","4","html-keyboard-response","1030","v","babaye","true","",""
"2663.5","","","","","4","html-slider-response","1031","","","","3",""
"3670","towel","tembo,funzi,pagpalit,pito","pagpalit","j","4","html-keyboard-response","1032","n","pito","false","",""
"2088.10000000149","","","","","4","html-slider-response","1033","","","","2",""
"2570","elephant","petye,pagduol,suka,kito","kito","n","4","html-keyboard-response","1034","v","pagduol","false","",""
"2024.300000000745","","","","","4","html-slider-response","1035","","","","1",""
"1815","shelf","pamahaw,bungtod,kadaot,awit","pamahaw","f","4","html-keyboard-response","1036","f","pamahaw","true","",""
"1606.8999999985099","","","","","4","html-slider-response","1037","","","","2",""
"3018","mosquito","martilyo,isda,taras,gutom","martilyo","f","4","html-keyboard-response","1038","f","martilyo","true","",""
"3275.900000002235","","","","","4","html-slider-response","1039","","","","2",""
"2268","column","pundok,dila,ufagio,pala","ufagio","j","4","html-keyboard-response","1040","n","pala","false","",""
"2092","","","","","4","html-slider-response","1041","","","","1",""
"5752","pants","pintal,chuki,hari,haki","haki","n","4","html-keyboard-response","1042","n","haki","true","",""
"2196.800000000745","","","","","4","html-slider-response","1043","","","","4",""
"2363","list","wingu,alizeti,kuzama,kaso","wingu","f","4","html-keyboard-response","1044","n","kaso","false","",""
"2029.1000000014901","","","","","4","html-slider-response","1045","","","","4",""
"2398","bank","kudhibi,tualya,ofisi,silingan","silingan","n","4","html-keyboard-response","1046","f","kudhibi","false","",""
"3114.89999999851","","","","","4","html-slider-response","1047","","","","2",""
"2742","clock","kartasi,mbwa,abang,osha","mbwa","v","4","html-keyboard-response","1048","f","kartasi","false","",""
"2017.800000000745","","","","","4","html-slider-response","1049","","","","1",""
"3086","ceiling","kugita,kawaida,maua,rayna","maua","j","4","html-keyboard-response","1050","f","kugita","false","",""
"2689.599999997765","","","","","4","html-slider-response","1051","","","","1",""
"4342","train","sayari,itik,dakika,mungu","sayari","f","4","html-keyboard-response","1052","n","mungu","false","",""
"2910.300000000745","","","","","4","html-slider-response","1053","","","","1",""
"3243","magazine","kiti,gundi,mchawi,bahandi","kiti","f","4","html-keyboard-response","1054","n","bahandi","false","",""
"2596.2999999970198","","","","","4","html-slider-response","1055","","","","3",""
"5867","office","hazini,yatima,leso,kuna","leso","j","4","html-keyboard-response","1056","f","hazini","false","",""
"1872.7000000029802","","","","","4","html-slider-response","1057","","","","2",""
"4404","wheel","punda,tawo,baadaye,bafuni","bafuni","n","4","html-keyboard-response","1058","j","baadaye","false","",""
"1936.9000000022352","","","","","4","html-slider-response","1059","","","","2",""
"3663","spoon","pagsulod,betri,nzuri,ngazi","pagsulod","f","4","html-keyboard-response","1060","n","ngazi","false","",""
"2553.400000002235","","","","","4","html-slider-response","1061","","","","2",""
"3142","hammer","napakyas,mekno,kitovu,layag","napakyas","f","4","html-keyboard-response","1062","f","napakyas","true","",""
"2265","","","","","4","html-slider-response","1063","","","","1",""
"1655","cigar","adhabu,ndugu,kuta,mlango","adhabu","f","4","html-keyboard-response","1064","j","kuta","false","",""
"2391","","","","","4","html-slider-response","1065","","","","1",""
"3272","shoe","nyeusi,uyoga,hatua,kama","uyoga","v","4","html-keyboard-response","1066","f","nyeusi","false","",""
"1996.699999999255","","","","","4","html-slider-response","1067","","","","1",""
"3335","list","alizeti,kuzama,wingu,kaso","wingu","j","5","html-keyboard-response","1069","n","kaso","false","",""
"2051.5","","","","","5","html-slider-response","1070","","","","4",""
"1466","number","mundamo,shule,kengele,choori","mundamo","f","5","html-keyboard-response","1071","f","mundamo","true","",""
"1770.6000000014901","","","","","5","html-slider-response","1072","","","","5",""
"1879","apple","kisu,ukame,estante,edad","kisu","f","5","html-keyboard-response","1073","f","kisu","true","",""
"2337.60000000149","","","","","5","html-slider-response","1074","","","","4",""
"2095","knee","duka,mvuke,kubale,bili","duka","f","5","html-keyboard-response","1075","n","bili","false","",""
"2449.699999999255","","","","","5","html-slider-response","1076","","","","3",""
"3099","tooth","kijiko,uadui,pahiyum,kabalaka","kabalaka","n","5","html-keyboard-response","1077","f","kijiko","false","",""
"1746","","","","","5","html-slider-response","1078","","","","2",""
"3412","berry","abogado,nogozi,kofia,kinywa","kofia","j","5","html-keyboard-response","1079","n","kinywa","false","",""
"1729","","","","","5","html-slider-response","1080","","","","2",""
"2431","bridge","daima,sahani,ngono,panya","sahani","v","5","html-keyboard-response","1081","j","ngono","false","",""
"2866.199999999255","","","","","5","html-slider-response","1082","","","","1",""
"2358","perfume","bino,katuyoan,sungura,ndogo","katuyoan","v","5","html-keyboard-response","1083","v","katuyoan","true","",""
"2682.900000002235","","","","","5","html-slider-response","1084","","","","1",""
"1884","ladder","pangalan,mashua,mwanga,kamba","pangalan","f","5","html-keyboard-response","1085","n","kamba","false","",""
"2132.60000000149","","","","","5","html-slider-response","1086","","","","2",""
"2420","pants","pintal,chuki,hari,haki","haki","n","5","html-keyboard-response","1087","n","haki","true","",""
"2549","","","","","5","html-slider-response","1088","","","","4",""
"3100","salmon","mzungu,seri,sensilyo,baharia","sensilyo","j","5","html-keyboard-response","1089","j","sensilyo","true","",""
"2666.699999999255","","","","","5","html-slider-response","1090","","","","5",""
"6937","coffin","kioo,barua,tubag,hulma","kioo","f","5","html-keyboard-response","1091","n","hulma","false","",""
"1929.699999999255","","","","","5","html-slider-response","1092","","","","2",""
"5679","park","bunifu,tambok,pwani,ihalas","bunifu","f","5","html-keyboard-response","1093","v","tambok","false","",""
"2661.89999999851","","","","","5","html-slider-response","1094","","","","2",""
"2269","giraffe","daraja,jumatu,mahitabo,hangyo","mahitabo","j","5","html-keyboard-response","1095","n","hangyo","false","",""
"2162.89999999851","","","","","5","html-slider-response","1096","","","","2",""
"2588","mirror","rangi,sulagma,kanding,furaha","sulagma","v","5","html-keyboard-response","1097","n","furaha","false","",""
"4946.699999999255","","","","","5","html-slider-response","1098","","","","1",""
"4095","ceiling","kugita,kawaida,rayna,maua","maua","n","5","html-keyboard-response","1099","v","kawaida","false","",""
"2263.699999999255","","","","","5","html-slider-response","1100","","","","1",""
"2486","marker","mapafu,maji,salita,atay","maji","v","5","html-keyboard-response","1101","f","mapafu","false","",""
"2136.60000000149","","","","","5","html-slider-response","1102","","","","1",""
"2341","sock","mamba,ndoora,kimysa,mtirka","mamba","f","5","html-keyboard-response","1103","f","mamba","true","",""
"2306","","","","","5","html-slider-response","1104","","","","1",""
"3082","cop","bustani,mechezo,jikoni,bakus","mechezo","v","5","html-keyboard-response","1105","f","bustani","false","",""
"2541.800000000745","","","","","5","html-slider-response","1106","","","","1",""
"2174","gift","baba,nyange,pagtawag,baso","pagtawag","j","5","html-keyboard-response","1107","n","baso","false","",""
"1623.5","","","","","5","html-slider-response","1108","","","","4",""
"2468","notebook","msitu,kemia,kila,mdudu","kemia","v","5","html-keyboard-response","1109","n","mdudu","false","",""
"2019.5","","","","","5","html-slider-response","1110","","","","2",""
"3406","bank","kudhibi,tualya,silingan,ofisi","silingan","j","5","html-keyboard-response","1111","f","kudhibi","false","",""
"2881.60000000149","","","","","5","html-slider-response","1112","","","","2",""
"2660","letter","filimbi,kifua,chuma,uhuru","kifua","v","5","html-keyboard-response","1113","v","kifua","true","",""
"3751.699999999255","","","","","5","html-slider-response","1114","","","","3",""
"2765","candle","geza,gabi,farasi,kupanda","geza","f","5","html-keyboard-response","1115","f","geza","true","",""
"3372.5","","","","","5","html-slider-response","1116","","","","1",""
"2390","bread","kaili,dari,dizeli,bugas","dari","v","5","html-keyboard-response","1117","v","dari","true","",""
"2386.60000000149","","","","","5","html-slider-response","1118","","","","5",""
"2728","snake","jansa,karon,mvringo,pagtukod","pagtukod","n","5","html-keyboard-response","1119","n","pagtukod","true","",""
"2968.2000000029802","","","","","5","html-slider-response","1120","","","","3",""
"3078","rose","singizi,mwanake,amani,paghalad","paghalad","n","5","html-keyboard-response","1121","n","paghalad","true","",""
"1960","","","","","5","html-slider-response","1122","","","","5",""
"3328","hill","kushoto,matumbo,kukimba,sweta","matumbo","v","5","html-keyboard-response","1123","j","kukimba","false","",""
"1924.5","","","","","5","html-slider-response","1124","","","","2",""
"1807","train","itik,dakika,sayari,mungu","sayari","j","5","html-keyboard-response","1125","n","mungu","false","",""
"2039.699999999255","","","","","5","html-slider-response","1126","","","","2",""
"2392","shop","nopya,kerida,samaki,ndezu","samaki","j","5","html-keyboard-response","1127","n","ndezu","false","",""
"1740.7999999970198","","","","","5","html-slider-response","1128","","","","1",""
"2164","nose","gubat,kopa,sehemu,kidole","sehemu","j","5","html-keyboard-response","1129","n","kidole","false","",""
"2410.300000000745","","","","","5","html-slider-response","1130","","","","2",""
"26846","boat","hamsi,pombe,agalon,kitanda","agalon","j","5","html-keyboard-response","1131","n","kitanda","false","",""
"3585.5","","","","","5","html-slider-response","1132","","","","3",""
"3808","body","nyundu,jibini,tindashan,kununa","tindashan","j","5","html-keyboard-response","1133","f","nyundu","false","",""
"1821.6000000014901","","","","","5","html-slider-response","1134","","","","2",""
"2289","bed","mapintas,kalipay,haraka,starehe","mapintas","f","5","html-keyboard-response","1135","f","mapintas","true","",""
"1726.0999999977648","","","","","5","html-slider-response","1136","","","","2",""
"1887","squirrel","hofu,mahugaw,ukweli,kichwa","hofu","f","5","html-keyboard-response","1137","v","mahugaw","false","",""
"1708.5","","","","","5","html-slider-response","1138","","","","2",""
"1678","window","nanga,kweli,kujenga,umaga","kweli","v","5","html-keyboard-response","1139","n","umaga","false","",""
"2136.699999999255","","","","","5","html-slider-response","1140","","","","1",""
"3634","bonfire","mwezi,mfuko,kusanya,goti","goti","n","5","html-keyboard-response","1141","v","mfuko","false","",""
"2173.400000002235","","","","","5","html-slider-response","1142","","","","1",""
"3664","fish","buli,bala,baho,imani","buli","f","5","html-keyboard-response","1143","f","buli","true","",""
"1614.5","","","","","5","html-slider-response","1144","","","","4",""
"2618","cat","neyemba,baki,akili,paghukom","paghukom","n","5","html-keyboard-response","1145","v","baki","false","",""
"2062.39999999851","","","","","5","html-slider-response","1146","","","","4",""
"1805","spider","bunyag,kamwe,mkboa,atop","kamwe","v","5","html-keyboard-response","1147","v","kamwe","true","",""
"2372.699999999255","","","","","5","html-slider-response","1148","","","","3",""
"1858","eel","ishara,kunywa,kabuang,msumari","msumari","n","5","html-keyboard-response","1149","v","kunywa","false","",""
"4604.89999999851","","","","","5","html-slider-response","1150","","","","3",""
"2599","woman","bandari,bituin,kovuli,pagtabon","pagtabon","n","5","html-keyboard-response","1151","n","pagtabon","true","",""
"1830.699999999255","","","","","5","html-slider-response","1152","","","","4",""
"3566","magazine","gundi,mchawi,kiti,bahandi","kiti","j","5","html-keyboard-response","1153","n","bahandi","false","",""
"2924.2000000029802","","","","","5","html-slider-response","1154","","","","3",""
"2377","pudding","abug,aibu,mpishi,iring","aibu","v","5","html-keyboard-response","1155","f","abug","false","",""
"1653.3999999985099","","","","","5","html-slider-response","1156","","","","1",""
"2982","lamp","daub,afya,bilaska,mbolea","afya","v","5","html-keyboard-response","1157","n","mbolea","false","",""
"1735.199999999255","","","","","5","html-slider-response","1158","","","","1",""
"3356","cave","ganti,kesho,maisha,nyundo","kesho","v","5","html-keyboard-response","1159","v","kesho","true","",""
"1616.5","","","","","5","html-slider-response","1160","","","","1",""
"2905","shoulder","mkuu,kelele,ndaniya,guruwe","mkuu","f","5","html-keyboard-response","1161","n","guruwe","false","",""
"2430.699999999255","","","","","5","html-slider-response","1162","","","","2",""
"2800","stone","ulimwengu,mkasi,wingi,asili","wingi","j","5","html-keyboard-response","1163","v","mkasi","false","",""
"3305.099999997765","","","","","5","html-slider-response","1164","","","","3",""
"3007","column","pundok,ufagio,dila,pala","ufagio","v","5","html-keyboard-response","1165","f","pundok","false","",""
"2510.5","","","","","5","html-slider-response","1166","","","","2",""
"2996","page","wakala,ishiri,skina,wimbo","wimbo","n","5","html-keyboard-response","1167","n","wimbo","true","",""
"2562.599999997765","","","","","5","html-slider-response","1168","","","","2",""
"3227","shoe","nyeusi,hatua,uyoga,kama","uyoga","j","5","html-keyboard-response","1169","f","nyeusi","false","",""
"2025.6000000014901","","","","","5","html-slider-response","1170","","","","2",""
"3837","clock","mbwa,kartasi,abang,osha","mbwa","f","5","html-keyboard-response","1171","v","kartasi","false","",""
"2023.699999999255","","","","","5","html-slider-response","1172","","","","2",""
"4769","towel","pagpalit,tembo,funzi,pito","pagpalit","f","5","html-keyboard-response","1173","f","pagpalit","true","",""
"2682.699999999255","","","","","5","html-slider-response","1174","","","","3",""
"5272","tomato","mvua,chupi,chupa,takatak","mvua","f","5","html-keyboard-response","1175","v","chupi","false","",""
"1753.300000000745","","","","","5","html-slider-response","1176","","","","2",""
"2357","bucket","baga,ijayo,kiatu,init","kiatu","j","5","html-keyboard-response","1177","j","kiatu","true","",""
"1696.5999999977648","","","","","5","html-slider-response","1178","","","","2",""
"1970","finger","simu,sufuria,lima,moyo","moyo","n","5","html-keyboard-response","1179","j","lima","false","",""
"2351.300000000745","","","","","5","html-slider-response","1180","","","","3",""
"4309","mother","babaye,kahawa,mbuzi,jokofu","babaye","f","5","html-keyboard-response","1181","f","babaye","true","",""
"2225.599999997765","","","","","5","html-slider-response","1182","","","","3",""
"1700","human","bado,tinapay,kikapu,punguza","tinapay","v","5","html-keyboard-response","1183","n","punguza","false","",""
"1522","","","","","5","html-slider-response","1184","","","","4",""
"2345","sun","bendi,basi,luha,uongo","basi","v","5","html-keyboard-response","1185","v","basi","true","",""
"2690.199999999255","","","","","5","html-slider-response","1186","","","","3",""
"3500","fork","baboy,paghago,mgonjwa,gorisi","mgonjwa","j","5","html-keyboard-response","1187","j","mgonjwa","true","",""
"1938.8999999985099","","","","","5","html-slider-response","1188","","","","2",""
"2456","donkey","bloke,elfu,lalake,rombus","elfu","v","5","html-keyboard-response","1189","n","rombus","false","",""
"1413.5999999977648","","","","","5","html-slider-response","1190","","","","2",""
"1787","wolf","lugha,kaburi,ndizi,mchuzi","lugha","f","5","html-keyboard-response","1191","v","kaburi","false","",""
"1531.8999999985099","","","","","5","html-slider-response","1192","","","","1",""
"3211","cigar","ndugu,kuta,mlango,adhabu","adhabu","n","5","html-keyboard-response","1193","n","adhabu","true","",""
"1778.3999999985099","","","","","5","html-slider-response","1194","","","","2",""
"3387","olive","bata,jiwe,siagi,welder","jiwe","v","5","html-keyboard-response","1195","v","jiwe","true","",""
"1554.1000000014901","","","","","5","html-slider-response","1196","","","","2",""
"3006","key","miaka,goma,ahos,chombo","chombo","n","5","html-keyboard-response","1197","f","miaka","false","",""
"2096.10000000149","","","","","5","html-slider-response","1198","","","","1",""
"2511","door","tena,soko,nyota,surali","surali","n","5","html-keyboard-response","1199","j","nyota","false","",""
"1535.300000000745","","","","","5","html-slider-response","1200","","","","2",""
"1546","wheel","punda,bafuni,tawo,baadaye","bafuni","v","5","html-keyboard-response","1201","v","bafuni","true","",""
"1330.5","","","","","5","html-slider-response","1202","","","","2",""
"2907","basket","kumba,kumbuka,utepe,hasira","kumba","f","5","html-keyboard-response","1203","v","kumbuka","false","",""
"2157.2000000029802","","","","","5","html-slider-response","1204","","","","3",""
"1783","elephant","kito,petye,pagduol,suka","kito","f","5","html-keyboard-response","1205","j","pagduol","false","",""
"1903.7000000029802","","","","","5","html-slider-response","1206","","","","3",""
"2050","office","leso,hazini,yatima,kuna","leso","f","5","html-keyboard-response","1207","v","hazini","false","",""
"2680.099999997765","","","","","5","html-slider-response","1208","","","","3",""
"1967","music","baiski,mraba,mageho,tumbo","baiski","f","5","html-keyboard-response","1209","n","tumbo","false","",""
"2715.5","","","","","5","html-slider-response","1210","","","","3",""
"3815","tissue","ugomvi,lamigas,kisiwa,katika","ugomvi","f","5","html-keyboard-response","1211","n","katika","false","",""
"2087","","","","","5","html-slider-response","1212","","","","3",""
"3542","curtain","lisud,mchanga,bulwawan,chubani","mchanga","v","5","html-keyboard-response","1213","v","mchanga","true","",""
"1846.8999999985099","","","","","5","html-slider-response","1214","","","","4",""
"2932","flag","ndege,mkate,kawa,trekta","trekta","n","5","html-keyboard-response","1215","j","kawa","false","",""
"2226","","","","","5","html-slider-response","1216","","","","3",""
"3752","dog","lubi,washia,kalamu,bahari","bahari","n","5","html-keyboard-response","1217","j","kalamu","false","",""
"1999.0999999977648","","","","","5","html-slider-response","1218","","","","3",""
"4280","cup","matumai,dagat,shimoni,jeraha","matumai","f","5","html-keyboard-response","1219","f","matumai","true","",""
"1364.8999999985099","","","","","5","html-slider-response","1220","","","","2",""
"5972","sheet","bililhon,juuya,watu,kamantis","bililhon","f","5","html-keyboard-response","1221","n","kamantis","false","",""
"2021.300000000745","","","","","5","html-slider-response","1222","","","","2",""
"3251","spoon","betri,nzuri,pagsulod,ngazi","pagsulod","j","5","html-keyboard-response","1223","n","ngazi","false","",""
"1833.699999999255","","","","","5","html-slider-response","1224","","","","2",""
"17631","flower","bega,tamasha,lobo,usiku","bega","f","5","html-keyboard-response","1225","f","bega","true","",""
"1974.800000000745","","","","","5","html-slider-response","1226","","","","2",""
"4002","picture","kubwa,silya,chaki,asin","kubwa","f","5","html-keyboard-response","1227","f","kubwa","true","",""
"2234.800000000745","","","","","5","html-slider-response","1228","","","","2",""
"2277","puppet","napulo,mazishi,lamok,godoro","mazishi","v","5","html-keyboard-response","1229","v","mazishi","true","",""
"2106","","","","","5","html-slider-response","1230","","","","2",""
"3427","banana","kasamok,hagdan,kazi,twai","kazi","j","5","html-keyboard-response","1231","j","kazi","true","",""
"2573.2000000029802","","","","","5","html-slider-response","1232","","","","3",""
"1771","book","mali,kuhesa,picha,mara","mali","f","5","html-keyboard-response","1233","f","mali","true","",""
"2213.5","","","","","5","html-slider-response","1234","","","","5",""
"2955","triangle","kihozi,bentaha,liog,kasadpan","kasadpan","n","5","html-keyboard-response","1235","f","kihozi","false","",""
"1794.6000000014901","","","","","5","html-slider-response","1236","","","","2",""
"1871","poster","nchi,fedha,kasuko,madungog","madungog","n","5","html-keyboard-response","1237","j","kasuko","false","",""
"1688.7000000029802","","","","","5","html-slider-response","1238","","","","2",""
"1778","box","adui,kuacha,rafiki,kitande","adui","f","5","html-keyboard-response","1239","v","kuacha","false","",""
"1753.5","","","","","5","html-slider-response","1240","","","","2",""
"2455","mosquito","isda,taras,martilyo,gutom","martilyo","j","5","html-keyboard-response","1241","j","martilyo","true","",""
"1905","","","","","5","html-slider-response","1242","","","","5",""
"3189","shelf","bungtod,kadaot,pamahaw,awit","pamahaw","j","5","html-keyboard-response","1243","v","kadaot","false","",""
"2875.39999999851","","","","","5","html-slider-response","1244","","","","3",""
"4503","scissors","duga,mtawa,tanuri,suga","tanuri","j","5","html-keyboard-response","1245","v","mtawa","false","",""
"1772.3999999985099","","","","","5","html-slider-response","1246","","","","2",""
"2478","hammer","napakyas,mekno,kitovu,layag","napakyas","f","5","html-keyboard-response","1247","v","mekno","false","",""
"1647.699999999255","","","","","5","html-slider-response","1248","","","","2",""
