"rt","en_word","options","swa_word","correct_answer","phase","trial_type","trial_index","input_answer","input_word","accuracy","certainty","amt_choices"
"9371","bonfire","mwezi,goti,mfuko,kusanya","goti","v","2","html-keyboard-response","106","v","goti","true","",""
"4294.9000000003725","","","","","2","html-slider-response","107","","","","4",""
"23415","flower","tamasha,lobo,bega,usiku","bega","j","2","html-keyboard-response","108","n","usiku","false","",""
"2969","","","","","2","html-slider-response","109","","","","1",""
"4719","column","pundok,ufagio,dila,pala","ufagio","v","2","html-keyboard-response","110","v","ufagio","true","",""
"3226.7000000011176","","","","","2","html-slider-response","111","","","","5",""
"9418","music","mraba,baiski,mageho,tumbo","baiski","v","2","html-keyboard-response","112","f","mraba","false","",""
"7066.800000000745","","","","","2","html-slider-response","113","","","","3",""
"20864","spider","bunyag,mkboa,atop,kamwe","kamwe","n","2","html-keyboard-response","114","f","bunyag","false","",""
"2831.9000000003725","","","","","2","html-slider-response","115","","","","1",""
"8656","fork","baboy,paghago,gorisi,mgonjwa","mgonjwa","n","2","html-keyboard-response","116","j","gorisi","false","",""
"2740","","","","","2","html-slider-response","117","","","","1",""
"3803","mosquito","isda,martilyo,taras,gutom","martilyo","v","2","html-keyboard-response","118","v","martilyo","true","",""
"3011.199999999255","","","","","2","html-slider-response","119","","","","5",""
"15607","banana","kasamok,hagdan,kazi,twai","kazi","j","2","html-keyboard-response","120","f","kasamok","false","",""
"3518.5","","","","","2","html-slider-response","121","","","","2",""
"16464","cup","dagat,matumai,shimoni,jeraha","matumai","v","2","html-keyboard-response","122","f","dagat","false","",""
"3396.2999999988824","","","","","2","html-slider-response","123","","","","2",""
"11153","shop","nopya,kerida,samaki,ndezu","samaki","j","2","html-keyboard-response","124","j","samaki","true","",""
"3100.5999999996275","","","","","2","html-slider-response","125","","","","4",""
"12336","elephant","petye,pagduol,kito,suka","kito","j","2","html-keyboard-response","126","j","kito","true","",""
"2594","","","","","2","html-slider-response","127","","","","5",""
"9348","bucket","baga,ijayo,init,kiatu","kiatu","n","2","html-keyboard-response","128","n","kiatu","true","",""
"2522.2999999988824","","","","","2","html-slider-response","129","","","","2",""
"8858","book","kuhesa,mali,picha,mara","mali","v","2","html-keyboard-response","130","v","mali","true","",""
"2750.5999999996275","","","","","2","html-slider-response","131","","","","4",""
"5696","mirror","sulagma,rangi,kanding,furaha","sulagma","f","2","html-keyboard-response","132","f","sulagma","true","",""
"3382.4000000003725","","","","","2","html-slider-response","133","","","","4",""
"23736","office","hazini,leso,yatima,kuna","leso","v","2","html-keyboard-response","134","f","hazini","false","",""
"2487.699999999255","","","","","2","html-slider-response","135","","","","1",""
"10324","body","nyundu,jibini,tindashan,kununa","tindashan","j","2","html-keyboard-response","136","n","kununa","false","",""
"2752.300000000745","","","","","2","html-slider-response","137","","","","2",""
"7240","perfume","bino,sungura,ndogo,katuyoan","katuyoan","n","2","html-keyboard-response","138","j","ndogo","false","",""
"3334.39999999851","","","","","2","html-slider-response","139","","","","4",""
"11680","olive","bata,siagi,welder,jiwe","jiwe","n","2","html-keyboard-response","140","n","jiwe","true","",""
"4858.89999999851","","","","","2","html-slider-response","141","","","","3",""
"7336","magazine","gundi,kiti,mchawi,bahandi","kiti","v","2","html-keyboard-response","142","j","mchawi","false","",""
"2293.5","","","","","2","html-slider-response","143","","","","1",""
"9985","bread","kaili,dizeli,dari,bugas","dari","j","2","html-keyboard-response","144","j","dari","true","",""
"3200.699999999255","","","","","2","html-slider-response","145","","","","4",""
"28590","cave","ganti,maisha,nyundo,kesho","kesho","n","2","html-keyboard-response","146","v","maisha","false","",""
"2756","","","","","2","html-slider-response","147","","","","1",""
"11130","ladder","mashua,mwanga,kamba,pangalan","pangalan","n","2","html-keyboard-response","148","n","pangalan","true","",""
"2452.9000000003725","","","","","2","html-slider-response","149","","","","2",""
"6421","human","bado,tinapay,kikapu,punguza","tinapay","v","2","html-keyboard-response","150","j","kikapu","false","",""
"6222.700000001118","","","","","2","html-slider-response","151","","","","3",""
"5253","clock","kartasi,mbwa,abang,osha","mbwa","v","2","html-keyboard-response","152","n","osha","false","",""
"4888.699999999255","","","","","2","html-slider-response","153","","","","2",""
"6702","shelf","bungtod,kadaot,awit,pamahaw","pamahaw","n","2","html-keyboard-response","154","j","awit","false","",""
"2578.7999999988824","","","","","2","html-slider-response","155","","","","1",""
"7355","salmon","mzungu,sensilyo,seri,baharia","sensilyo","v","2","html-keyboard-response","156","j","seri","false","",""
"2994.800000000745","","","","","2","html-slider-response","157","","","","2",""
"7329","coffin","kioo,barua,tubag,hulma","kioo","f","2","html-keyboard-response","158","f","kioo","true","",""
"2735.60000000149","","","","","2","html-slider-response","159","","","","4",""
"13243","notebook","msitu,kila,mdudu,kemia","kemia","n","2","html-keyboard-response","160","j","mdudu","false","",""
"5176.700000001118","","","","","2","html-slider-response","161","","","","2",""
"25744","shoulder","kelele,mkuu,ndaniya,guruwe","mkuu","v","2","html-keyboard-response","162","j","ndaniya","false","",""
"2507.5","","","","","2","html-slider-response","163","","","","4",""
"4239","park","tambok,pwani,ihalas,bunifu","bunifu","n","2","html-keyboard-response","164","v","pwani","false","",""
"29896.900000000373","","","","","2","html-slider-response","165","","","","3",""
"10643","number","shule,kengele,choori,mundamo","mundamo","n","2","html-keyboard-response","166","v","kengele","false","",""
"3129.5999999996275","","","","","2","html-slider-response","167","","","","3",""
"5623","apple","ukame,estante,kisu,edad","kisu","j","2","html-keyboard-response","168","j","kisu","true","",""
"2598.9000000003725","","","","","2","html-slider-response","169","","","","4",""
"7030","letter","filimbi,chuma,uhuru,kifua","kifua","n","2","html-keyboard-response","170","f","filimbi","false","",""
"2967.39999999851","","","","","2","html-slider-response","171","","","","2",""
"5805","eel","ishara,kunywa,kabuang,msumari","msumari","n","2","html-keyboard-response","172","n","msumari","true","",""
"4381.4000000003725","","","","","2","html-slider-response","173","","","","3",""
"9850","cop","bustani,jikoni,mechezo,bakus","mechezo","j","2","html-keyboard-response","174","n","bakus","false","",""
"3023.800000000745","","","","","2","html-slider-response","175","","","","1",""
"9961","wolf","lugha,kaburi,ndizi,mchuzi","lugha","f","2","html-keyboard-response","176","j","ndizi","false","",""
"4777.5999999996275","","","","","2","html-slider-response","177","","","","3",""
"8585","squirrel","mahugaw,ukweli,kichwa,hofu","hofu","n","2","html-keyboard-response","178","j","kichwa","false","",""
"3072.7000000011176","","","","","2","html-slider-response","179","","","","4",""
"5821","nose","gubat,kopa,sehemu,kidole","sehemu","j","2","html-keyboard-response","180","j","sehemu","true","",""
"2820.800000000745","","","","","2","html-slider-response","181","","","","3",""
"3013","sock","ndoora,kimysa,mtirka,mamba","mamba","n","2","html-keyboard-response","182","n","mamba","true","",""
"3578.199999999255","","","","","2","html-slider-response","183","","","","5",""
"5963","bank","kudhibi,tualya,silingan,ofisi","silingan","j","2","html-keyboard-response","184","v","tualya","false","",""
"3052.2000000011176","","","","","2","html-slider-response","185","","","","4",""
"4543","donkey","elfu,bloke,lalake,rombus","elfu","f","2","html-keyboard-response","186","f","elfu","true","",""
"3061","","","","","2","html-slider-response","187","","","","5",""
"5382","poster","nchi,fedha,madungog,kasuko","madungog","j","2","html-keyboard-response","188","j","madungog","true","",""
"5213.5999999996275","","","","","2","html-slider-response","189","","","","3",""
"11087","puppet","mazishi,napulo,lamok,godoro","mazishi","f","2","html-keyboard-response","190","f","mazishi","true","",""
"3560","","","","","2","html-slider-response","191","","","","2",""
"4848","hill","kushoto,matumbo,kukimba,sweta","matumbo","v","2","html-keyboard-response","192","v","matumbo","true","",""
"2754.2999999988824","","","","","2","html-slider-response","193","","","","4",""
"5377","tooth","kijiko,uadui,kabalaka,pahiyum","kabalaka","j","2","html-keyboard-response","194","j","kabalaka","true","",""
"2223","","","","","2","html-slider-response","195","","","","4",""
"12999","woman","pagtabon,bandari,bituin,kovuli","pagtabon","f","2","html-keyboard-response","196","j","bituin","false","",""
"2555.5999999996275","","","","","2","html-slider-response","197","","","","2",""
"5833","wheel","punda,bafuni,tawo,baadaye","bafuni","v","2","html-keyboard-response","198","v","bafuni","true","",""
"4279.5999999996275","","","","","2","html-slider-response","199","","","","1",""
"2407","mother","babaye,kahawa,mbuzi,jokofu","babaye","f","2","html-keyboard-response","200","f","babaye","true","",""
"2973.7999999988824","","","","","2","html-slider-response","201","","","","5",""
"6385","bed","kalipay,haraka,mapintas,starehe","mapintas","j","2","html-keyboard-response","202","n","starehe","false","",""
"3493.0999999996275","","","","","2","html-slider-response","203","","","","1",""
"4939","key","chombo,miaka,goma,ahos","chombo","f","2","html-keyboard-response","204","j","goma","false","",""
"3131.7999999988824","","","","","2","html-slider-response","205","","","","2",""
"18616","page","wimbo,wakala,ishiri,skina","wimbo","f","2","html-keyboard-response","206","f","wimbo","true","",""
"3657.2000000011176","","","","","2","html-slider-response","207","","","","3",""
"6493","pants","pintal,chuki,hari,haki","haki","n","2","html-keyboard-response","208","n","haki","true","",""
"2290.300000000745","","","","","2","html-slider-response","209","","","","4",""
"10648","sun","basi,bendi,luha,uongo","basi","f","2","html-keyboard-response","210","v","bendi","false","",""
"7407.300000000745","","","","","2","html-slider-response","211","","","","3",""
"2141","finger","moyo,simu,sufuria,lima","moyo","f","2","html-keyboard-response","212","f","moyo","true","",""
"2455.199999999255","","","","","2","html-slider-response","213","","","","5",""
"7288","shoe","nyeusi,hatua,uyoga,kama","uyoga","j","2","html-keyboard-response","214","n","kama","false","",""
"3125.10000000149","","","","","2","html-slider-response","215","","","","2",""
"9236","giraffe","daraja,jumatu,mahitabo,hangyo","mahitabo","j","2","html-keyboard-response","216","n","hangyo","false","",""
"3948.5","","","","","2","html-slider-response","217","","","","1",""
"10825","dog","lubi,washia,bahari,kalamu","bahari","j","2","html-keyboard-response","218","f","lubi","false","",""
"3073.0999999996275","","","","","2","html-slider-response","219","","","","2",""
"15909","box","kuacha,adui,rafiki,kitande","adui","v","2","html-keyboard-response","220","j","rafiki","false","",""
"3063.4000000003725","","","","","2","html-slider-response","221","","","","4",""
"8040","scissors","duga,mtawa,tanuri,suga","tanuri","j","2","html-keyboard-response","222","v","mtawa","false","",""
"3132.7000000011176","","","","","2","html-slider-response","223","","","","3",""
"7665","cat","paghukom,neyemba,baki,akili","paghukom","f","2","html-keyboard-response","224","j","baki","false","",""
"4749.60000000149","","","","","2","html-slider-response","225","","","","4",""
"8919","basket","kumbuka,utepe,hasira,kumba","kumba","n","2","html-keyboard-response","226","v","utepe","false","",""
"2897.800000000745","","","","","2","html-slider-response","227","","","","1",""
"8067","snake","jansa,pagtukod,karon,mvringo","pagtukod","v","2","html-keyboard-response","228","f","jansa","false","",""
"2816","","","","","2","html-slider-response","229","","","","4",""
"6238","gift","baba,nyange,baso,pagtawag","pagtawag","n","2","html-keyboard-response","230","j","baso","false","",""
"2559.5","","","","","2","html-slider-response","231","","","","4",""
"3172","train","sayari,itik,dakika,mungu","sayari","f","2","html-keyboard-response","232","v","itik","false","",""
"5075.699999999255","","","","","2","html-slider-response","233","","","","4",""
"6927","pudding","abug,mpishi,aibu,iring","aibu","j","2","html-keyboard-response","234","v","mpishi","false","",""
"5561.300000000745","","","","","2","html-slider-response","235","","","","2",""
"3361","tomato","chupi,chupa,takatak,mvua","mvua","n","2","html-keyboard-response","236","v","chupa","false","",""
"2533.7000000011176","","","","","2","html-slider-response","237","","","","4",""
"4713","stone","wingi,ulimwengu,mkasi,asili","wingi","f","2","html-keyboard-response","238","n","asili","false","",""
"6883.5","","","","","2","html-slider-response","239","","","","3",""
"6279","hammer","mekno,kitovu,napakyas,layag","napakyas","j","2","html-keyboard-response","240","f","mekno","false","",""
"3535.5","","","","","2","html-slider-response","241","","","","1",""
"4470","knee","mvuke,kubale,duka,bili","duka","j","2","html-keyboard-response","242","n","bili","false","",""
"2530.300000000745","","","","","2","html-slider-response","243","","","","4",""
"8573","ceiling","kugita,kawaida,maua,rayna","maua","j","2","html-keyboard-response","244","v","kawaida","false","",""
"3196","","","","","2","html-slider-response","245","","","","2",""
"6703","spoon","pagsulod,betri,nzuri,ngazi","pagsulod","f","2","html-keyboard-response","246","n","ngazi","false","",""
"4431.5999999996275","","","","","2","html-slider-response","247","","","","3",""
"5149","marker","mapafu,maji,salita,atay","maji","v","2","html-keyboard-response","248","v","maji","true","",""
"3769.5","","","","","2","html-slider-response","249","","","","4",""
"5571","candle","gabi,farasi,geza,kupanda","geza","j","2","html-keyboard-response","250","n","kupanda","false","",""
"3297.199999999255","","","","","2","html-slider-response","251","","","","2",""
"9793","tissue","ugomvi,lamigas,kisiwa,katika","ugomvi","f","2","html-keyboard-response","252","f","ugomvi","true","",""
"3783.4000000003725","","","","","2","html-slider-response","253","","","","1",""
"5508","bridge","sahani,daima,ngono,panya","sahani","f","2","html-keyboard-response","254","n","panya","false","",""
"4142.5","","","","","2","html-slider-response","255","","","","4",""
"14160","berry","abogado,nogozi,kinywa,kofia","kofia","n","2","html-keyboard-response","256","f","abogado","false","",""
"5213.9000000003725","","","","","2","html-slider-response","257","","","","3",""
"6402","triangle","kihozi,kasadpan,bentaha,liog","kasadpan","v","2","html-keyboard-response","258","v","kasadpan","true","",""
"14272.300000000745","","","","","2","html-slider-response","259","","","","2",""
"9527","door","tena,soko,surali,nyota","surali","j","2","html-keyboard-response","260","j","surali","true","",""
"2602.9000000003725","","","","","2","html-slider-response","261","","","","2",""
"6463","fish","buli,bala,baho,imani","buli","f","2","html-keyboard-response","262","n","imani","false","",""
"3176.7000000011176","","","","","2","html-slider-response","263","","","","3",""
"8353","curtain","mchanga,lisud,bulwawan,chubani","mchanga","f","2","html-keyboard-response","264","f","mchanga","true","",""
"4465.299999998882","","","","","2","html-slider-response","265","","","","3",""
"9066","flag","ndege,mkate,kawa,trekta","trekta","n","2","html-keyboard-response","266","j","kawa","false","",""
"2568.60000000149","","","","","2","html-slider-response","267","","","","1",""
"8211","boat","agalon,hamsi,pombe,kitanda","agalon","f","2","html-keyboard-response","268","v","hamsi","false","",""
"2353.5999999996275","","","","","2","html-slider-response","269","","","","4",""
"5559","rose","singizi,mwanake,paghalad,amani","paghalad","j","2","html-keyboard-response","270","n","amani","false","",""
"4645.5","","","","","2","html-slider-response","271","","","","3",""
"5134","lamp","daub,bilaska,afya,mbolea","afya","j","2","html-keyboard-response","272","f","daub","false","",""
"4120.10000000149","","","","","2","html-slider-response","273","","","","2",""
"6955","cigar","ndugu,kuta,adhabu,mlango","adhabu","j","2","html-keyboard-response","274","n","mlango","false","",""
"2676.5","","","","","2","html-slider-response","275","","","","1",""
"5516","list","alizeti,kuzama,kaso,wingu","wingu","n","2","html-keyboard-response","276","v","kuzama","false","",""
"2319.699999999255","","","","","2","html-slider-response","277","","","","2",""
"6045","sheet","bililhon,juuya,watu,kamantis","bililhon","f","2","html-keyboard-response","278","n","kamantis","false","",""
"4468.9000000003725","","","","","2","html-slider-response","279","","","","2",""
"5909","picture","silya,chaki,kubwa,asin","kubwa","j","2","html-keyboard-response","280","f","silya","false","",""
"5565.89999999851","","","","","2","html-slider-response","281","","","","3",""
"6476","towel","tembo,pagpalit,funzi,pito","pagpalit","v","2","html-keyboard-response","282","f","tembo","false","",""
"4514.199999999255","","","","","2","html-slider-response","283","","","","3",""
"8410","window","nanga,kujenga,umaga,kweli","kweli","n","2","html-keyboard-response","284","v","kujenga","false","",""
"2301.5","","","","","2","html-slider-response","285","","","","4",""
"7141","box","kuacha,rafiki,kitande,adui","adui","n","3","html-keyboard-response","293","v","rafiki","false","","4"
"6094.9000000003725","","","","","3","html-slider-response","294","","","","4",""
"8275","","","","","3","html-keyboard-response","295","","","","",""
"20893","pants","pintal,haki,chuki,hari","haki","v","3","html-keyboard-response","296","j","chuki","false","","4"
"2917.2000000011176","","","","","3","html-slider-response","297","","","","1",""
"3972","","","","","3","html-keyboard-response","298","","","","",""
"4763","cup","dagat,shimoni,matumai,jeraha","matumai","j","3","html-keyboard-response","299","j","matumai","true","","4"
"5780.799999998882","","","","","3","html-slider-response","300","","","","3",""
"2689","","","","","3","html-keyboard-response","301","","","","",""
"8869","triangle","kihozi,bentaha,liog,kasadpan","kasadpan","n","3","html-keyboard-response","302","v","bentaha","false","","4"
"2334.89999999851","","","","","3","html-slider-response","303","","","","1",""
"3874","","","","","3","html-keyboard-response","304","","","","",""
"5062","curtain","mchanga,lisud,bulwawan,chubani","mchanga","f","3","html-keyboard-response","305","f","mchanga","true","","4"
"2268.2000000011176","","","","","3","html-slider-response","306","","","","4",""
"3370","","","","","3","html-keyboard-response","307","","","","",""
"3164","clock","mbwa,kartasi,abang,osha","mbwa","f","3","html-keyboard-response","308","n","osha","false","","4"
"3413.0999999996275","","","","","3","html-slider-response","309","","","","2",""
"3816","","","","","3","html-keyboard-response","310","","","","",""
"4176","mirror","sulagma,rangi,kanding,furaha","sulagma","f","3","html-keyboard-response","311","f","sulagma","true","","4"
"2447.5","","","","","3","html-slider-response","312","","","","1",""
"3163","","","","","3","html-keyboard-response","313","","","","",""
"6280","coffin","kioo,barua,tubag,hulma","kioo","f","3","html-keyboard-response","314","f","kioo","true","","1"
"5239.800000000745","","","","","3","html-slider-response","315","","","","3",""
"1766","","","","","3","html-keyboard-response","316","","","","",""
"10147","magazine","gundi,kiti,mchawi,bahandi","kiti","v","3","html-keyboard-response","317","j","mchawi","false","","4"
"2653.60000000149","","","","","3","html-slider-response","318","","","","1",""
"2695","","","","","3","html-keyboard-response","319","","","","",""
"2645","column","ufagio,pundok,dila,pala","ufagio","f","3","html-keyboard-response","320","f","ufagio","true","","1"
"6175.5","","","","","3","html-slider-response","321","","","","5",""
"3048","","","","","3","html-keyboard-response","322","","","","",""
"5079","number","shule,kengele,choori,mundamo","mundamo","n","3","html-keyboard-response","323","n","mundamo","true","","4"
"3053.2999999988824","","","","","3","html-slider-response","324","","","","3",""
"1268","","","","","3","html-keyboard-response","325","","","","",""
"5096","rose","paghalad,singizi,mwanake,amani","paghalad","f","3","html-keyboard-response","326","n","amani","false","","4"
"2437.7999999988824","","","","","3","html-slider-response","327","","","","2",""
"7660","","","","","3","html-keyboard-response","328","","","","",""
"6111","eel","msumari,ishara,kunywa,kabuang","msumari","f","3","html-keyboard-response","329","f","msumari","true","","4"
"4533.800000000745","","","","","3","html-slider-response","330","","","","2",""
"1516","","","","","3","html-keyboard-response","331","","","","",""
"4910","gift","pagtawag,baba,nyange,baso","pagtawag","f","3","html-keyboard-response","332","v","baba","false","","4"
"4098","","","","","3","html-slider-response","333","","","","2",""
"1709","","","","","3","html-keyboard-response","334","","","","",""
"2388","apple","kisu,ukame,estante,edad","kisu","f","3","html-keyboard-response","335","f","kisu","true","","1"
"4010.39999999851","","","","","3","html-slider-response","336","","","","5",""
"1285","","","","","3","html-keyboard-response","337","","","","",""
"2054","wheel","punda,bafuni,tawo,baadaye","bafuni","v","3","html-keyboard-response","338","v","bafuni","true","","1"
"2488.2999999988824","","","","","3","html-slider-response","339","","","","5",""
"11866","","","","","3","html-keyboard-response","340","","","","",""
"5069","knee","mvuke,kubale,duka,bili","duka","j","3","html-keyboard-response","341","n","bili","false","","4"
"2864.10000000149","","","","","3","html-slider-response","342","","","","2",""
"4604","","","","","3","html-keyboard-response","343","","","","",""
"2078","basket","kumbuka,kumba,utepe,hasira","kumba","v","3","html-keyboard-response","344","v","kumba","true","","1"
"3181.5","","","","","3","html-slider-response","345","","","","5",""
"1064","","","","","3","html-keyboard-response","346","","","","",""
"4184","park","bunifu,tambok,pwani,ihalas","bunifu","f","3","html-keyboard-response","347","v","tambok","false","","4"
"3122.9000000003725","","","","","3","html-slider-response","348","","","","2",""
"4831","","","","","3","html-keyboard-response","349","","","","",""
"4508","finger","simu,moyo,sufuria,lima","moyo","v","3","html-keyboard-response","350","v","moyo","true","","4"
"2526.10000000149","","","","","3","html-slider-response","351","","","","5",""
"840","","","","","3","html-keyboard-response","352","","","","",""
"3103","boat","hamsi,pombe,agalon,kitanda","agalon","j","3","html-keyboard-response","353","j","agalon","true","","4"
"2993.699999999255","","","","","3","html-slider-response","354","","","","2",""
"1467","","","","","3","html-keyboard-response","355","","","","",""
"3437","hill","kushoto,kukimba,sweta,matumbo","matumbo","n","3","html-keyboard-response","356","n","matumbo","true","","4"
"2969.0999999996275","","","","","3","html-slider-response","357","","","","2",""
"577","","","","","3","html-keyboard-response","358","","","","",""
"5145","train","itik,sayari,dakika,mungu","sayari","v","3","html-keyboard-response","359","f","itik","false","","4"
"3469.800000000745","","","","","3","html-slider-response","360","","","","2",""
"1847","","","","","3","html-keyboard-response","361","","","","",""
"5053","wolf","kaburi,ndizi,mchuzi,lugha","lugha","n","3","html-keyboard-response","362","j","mchuzi","false","","4"
"3044.2999999988824","","","","","3","html-slider-response","363","","","","1",""
"3624","","","","","3","html-keyboard-response","364","","","","",""
"7612","snake","jansa,pagtukod,karon,mvringo","pagtukod","v","3","html-keyboard-response","365","f","jansa","false","","4"
"2611.7000000011176","","","","","3","html-slider-response","366","","","","1",""
"1276","","","","","3","html-keyboard-response","367","","","","",""
"3615","tooth","kijiko,kabalaka,uadui,pahiyum","kabalaka","v","3","html-keyboard-response","368","v","kabalaka","true","","4"
"3549.199999999255","","","","","3","html-slider-response","369","","","","4",""
"4036","","","","","3","html-keyboard-response","370","","","","",""
"5068","notebook","msitu,kila,kemia,mdudu","kemia","j","3","html-keyboard-response","371","n","mdudu","false","","4"
"2801.800000000745","","","","","3","html-slider-response","372","","","","2",""
"1438","","","","","3","html-keyboard-response","373","","","","",""
"5255","flag","trekta,ndege,mkate,kawa","trekta","f","3","html-keyboard-response","374","f","trekta","true","","4"
"2582.300000000745","","","","","3","html-slider-response","375","","","","1",""
"1038","","","","","3","html-keyboard-response","376","","","","",""
"3007","squirrel","mahugaw,ukweli,hofu,kichwa","hofu","j","3","html-keyboard-response","377","v","ukweli","false","","4"
"2418.7000000011176","","","","","3","html-slider-response","378","","","","2",""
"1108","","","","","3","html-keyboard-response","379","","","","",""
"3562","door","tena,soko,surali,nyota","surali","j","3","html-keyboard-response","380","f","tena","false","","4"
"2689.5","","","","","3","html-slider-response","381","","","","1",""
"1141","","","","","3","html-keyboard-response","382","","","","",""
"4362","salmon","mzungu,seri,baharia,sensilyo","sensilyo","n","3","html-keyboard-response","383","j","baharia","false","","4"
"4845.4000000003725","","","","","3","html-slider-response","384","","","","1",""
"1148","","","","","3","html-keyboard-response","385","","","","",""
"4763","shoulder","kelele,mkuu,ndaniya,guruwe","mkuu","v","3","html-keyboard-response","386","f","kelele","false","","4"
"2843.9000000003725","","","","","3","html-slider-response","387","","","","4",""
"1135","","","","","3","html-keyboard-response","388","","","","",""
"8145","lamp","afya,daub,bilaska,mbolea","afya","f","3","html-keyboard-response","389","j","bilaska","false","","4"
"3108.4000000003725","","","","","3","html-slider-response","390","","","","3",""
"3690","","","","","3","html-keyboard-response","391","","","","",""
"2141","shelf","bungtod,kadaot,awit,pamahaw","pamahaw","n","3","html-keyboard-response","392","n","pamahaw","true","","1"
"2669.9000000003725","","","","","3","html-slider-response","393","","","","5",""
"21952","","","","","3","html-keyboard-response","394","","","","",""
"9211","human","tinapay,bado,kikapu,punguza","tinapay","f","3","html-keyboard-response","395","j","kikapu","false","","4"
"2991.800000000745","","","","","3","html-slider-response","396","","","","4",""
"1912","","","","","3","html-keyboard-response","397","","","","",""
"5713","towel","pagpalit,tembo,funzi,pito","pagpalit","f","3","html-keyboard-response","398","f","pagpalit","true","","4"
"3535","","","","","3","html-slider-response","399","","","","2",""
"1901","","","","","3","html-keyboard-response","400","","","","",""
"5101","cat","neyemba,paghukom,baki,akili","paghukom","v","3","html-keyboard-response","401","n","akili","false","","4"
"3307.5999999996275","","","","","3","html-slider-response","402","","","","4",""
"2070","","","","","3","html-keyboard-response","403","","","","",""
"7895","spider","kamwe,bunyag,mkboa,atop","kamwe","f","3","html-keyboard-response","404","v","bunyag","false","","4"
"2513","","","","","3","html-slider-response","405","","","","2",""
"1399","","","","","3","html-keyboard-response","406","","","","",""
"7122","window","kweli,nanga,kujenga,umaga","kweli","f","3","html-keyboard-response","407","n","umaga","false","","4"
"2186.800000000745","","","","","3","html-slider-response","408","","","","4",""
"1909","","","","","3","html-keyboard-response","409","","","","",""
"2401","woman","bandari,bituin,kovuli,pagtabon","pagtabon","n","3","html-keyboard-response","410","n","pagtabon","true","","1"
"2569.2999999988824","","","","","3","html-slider-response","411","","","","5",""
"1445","","","","","3","html-keyboard-response","412","","","","",""
"7079","giraffe","daraja,jumatu,hangyo,mahitabo","mahitabo","n","3","html-keyboard-response","413","f","daraja","false","","4"
"2249.199999999255","","","","","3","html-slider-response","414","","","","4",""
"1478","","","","","3","html-keyboard-response","415","","","","",""
"6794","elephant","petye,pagduol,suka,kito","kito","n","3","html-keyboard-response","416","n","kito","true","","4"
"3309.5999999996275","","","","","3","html-slider-response","417","","","","5",""
"2985","","","","","3","html-keyboard-response","418","","","","",""
"6399","cave","kesho,ganti,maisha,nyundo","kesho","f","3","html-keyboard-response","419","n","nyundo","false","","4"
"4038.7999999988824","","","","","3","html-slider-response","420","","","","3",""
"1707","","","","","3","html-keyboard-response","421","","","","",""
"4752","bread","kaili,dizeli,dari,bugas","dari","j","3","html-keyboard-response","422","f","kaili","false","","4"
"4092.10000000149","","","","","3","html-slider-response","423","","","","1",""
"1211","","","","","3","html-keyboard-response","424","","","","",""
"5158","stone","wingi,ulimwengu,mkasi,asili","wingi","f","3","html-keyboard-response","425","n","asili","false","","4"
"3952.4000000003725","","","","","3","html-slider-response","426","","","","2",""
"1558","","","","","3","html-keyboard-response","427","","","","",""
"2966","donkey","bloke,lalake,rombus,elfu","elfu","n","3","html-keyboard-response","428","n","elfu","true","","4"
"2508.699999999255","","","","","3","html-slider-response","429","","","","5",""
"1031","","","","","3","html-keyboard-response","430","","","","",""
"16","bridge","daima,ngono,panya,sahani","sahani","n","3","html-keyboard-response","431","n","sahani","true","","4"
"5332.699999999255","","","","","3","html-slider-response","432","","","","2",""
"1972","","","","","3","html-keyboard-response","433","","","","",""
"4945","bonfire","mwezi,mfuko,goti,kusanya","goti","j","3","html-keyboard-response","434","f","mwezi","false","","4"
"5195.799999998882","","","","","3","html-slider-response","435","","","","1",""
"29945","","","","","3","html-keyboard-response","436","","","","",""
"8886","book","kuhesa,mali,picha,mara","mali","v","3","html-keyboard-response","437","n","mara","false","","4"
"3139.800000000745","","","","","3","html-slider-response","438","","","","1",""
"2033","","","","","3","html-keyboard-response","439","","","","",""
"6659","fish","bala,baho,imani,buli","buli","n","3","html-keyboard-response","440","j","imani","false","","4"
"3112.7999999988824","","","","","3","html-slider-response","441","","","","4",""
"1045","","","","","3","html-keyboard-response","442","","","","",""
"15449","spoon","betri,pagsulod,nzuri,ngazi","pagsulod","v","3","html-keyboard-response","443","j","nzuri","false","","4"
"4241","","","","","3","html-slider-response","444","","","","2",""
"1171","","","","","3","html-keyboard-response","445","","","","",""
"7811","scissors","tanuri,duga,mtawa,suga","tanuri","f","3","html-keyboard-response","446","f","tanuri","true","","4"
"3506.5","","","","","3","html-slider-response","447","","","","4",""
"1283","","","","","3","html-keyboard-response","448","","","","",""
"4197","page","wimbo,wakala,ishiri,skina","wimbo","f","3","html-keyboard-response","449","j","ishiri","false","","4"
"4168.199999999255","","","","","3","html-slider-response","450","","","","3",""
"1136","","","","","3","html-keyboard-response","451","","","","",""
"4370","nose","gubat,kopa,kidole,sehemu","sehemu","n","3","html-keyboard-response","452","n","sehemu","true","","1"
"2916.199999999255","","","","","3","html-slider-response","453","","","","5",""
"1737","","","","","3","html-keyboard-response","454","","","","",""
"6279","ceiling","kugita,maua,kawaida,rayna","maua","v","3","html-keyboard-response","455","f","kugita","false","","4"
"2280.199999999255","","","","","3","html-slider-response","456","","","","1",""
"879","","","","","3","html-keyboard-response","457","","","","",""
"7160","bucket","baga,kiatu,ijayo,init","kiatu","v","3","html-keyboard-response","458","f","baga","false","","4"
"4170.800000000745","","","","","3","html-slider-response","459","","","","3",""
"856","","","","","3","html-keyboard-response","460","","","","",""
"1933","berry","abogado,kofia,nogozi,kinywa","kofia","v","3","html-keyboard-response","461","v","kofia","true","","1"
"2578.300000000745","","","","","3","html-slider-response","462","","","","5",""
"4954","","","","","3","html-keyboard-response","463","","","","",""
"4325","mother","kahawa,babaye,mbuzi,jokofu","babaye","v","3","html-keyboard-response","464","v","babaye","true","","1"
"2674.2000000011176","","","","","3","html-slider-response","465","","","","5",""
"1380","","","","","3","html-keyboard-response","466","","","","",""
"3898","mosquito","isda,taras,gutom,martilyo","martilyo","n","3","html-keyboard-response","467","n","martilyo","true","","4"
"2902.5999999996275","","","","","3","html-slider-response","468","","","","5",""
"2066","","","","","3","html-keyboard-response","469","","","","",""
"4533","perfume","bino,katuyoan,sungura,ndogo","katuyoan","v","3","html-keyboard-response","470","n","ndogo","false","","4"
"3413.10000000149","","","","","3","html-slider-response","471","","","","2",""
"1297","","","","","3","html-keyboard-response","472","","","","",""
"3838","sheet","juuya,bililhon,watu,kamantis","bililhon","v","3","html-keyboard-response","473","v","bililhon","true","","4"
"4195.4000000003725","","","","","3","html-slider-response","474","","","","4",""
"1043","","","","","3","html-keyboard-response","475","","","","",""
"3337","puppet","mazishi,napulo,lamok,godoro","mazishi","f","3","html-keyboard-response","476","f","mazishi","true","","1"
"3784.199999999255","","","","","3","html-slider-response","477","","","","5",""
"1101","","","","","3","html-keyboard-response","478","","","","",""
"6446","poster","nchi,fedha,kasuko,madungog","madungog","n","3","html-keyboard-response","479","n","madungog","true","","4"
"2276.2999999988824","","","","","3","html-slider-response","480","","","","4",""
"1225","","","","","3","html-keyboard-response","481","","","","",""
"3215","music","mraba,baiski,mageho,tumbo","baiski","v","3","html-keyboard-response","482","n","tumbo","false","","4"
"2576.5","","","","","3","html-slider-response","483","","","","4",""
"703","","","","","3","html-keyboard-response","484","","","","",""
"8740","key","miaka,chombo,goma,ahos","chombo","v","3","html-keyboard-response","485","j","goma","false","","4"
"5486.300000000745","","","","","3","html-slider-response","486","","","","2",""
"1875","","","","","3","html-keyboard-response","487","","","","",""
"3560","sock","ndoora,kimysa,mamba,mtirka","mamba","j","3","html-keyboard-response","488","j","mamba","true","","4"
"5098.800000000745","","","","","3","html-slider-response","489","","","","5",""
"1409","","","","","3","html-keyboard-response","490","","","","",""
"5456","marker","maji,mapafu,salita,atay","maji","f","3","html-keyboard-response","491","v","mapafu","false","","4"
"3497.0999999996275","","","","","3","html-slider-response","492","","","","1",""
"6235","","","","","3","html-keyboard-response","493","","","","",""
"16573","office","hazini,yatima,leso,kuna","leso","j","3","html-keyboard-response","494","j","leso","true","","4"
"3280.5999999996275","","","","","3","html-slider-response","495","","","","1",""
"936","","","","","3","html-keyboard-response","496","","","","",""
"7725","shoe","nyeusi,hatua,kama,uyoga","uyoga","n","3","html-keyboard-response","497","n","uyoga","true","","4"
"2907.300000000745","","","","","3","html-slider-response","498","","","","2",""
"820","","","","","3","html-keyboard-response","499","","","","",""
"9842","cop","bustani,jikoni,mechezo,bakus","mechezo","j","3","html-keyboard-response","500","j","mechezo","true","","4"
"3424.7000000011176","","","","","3","html-slider-response","501","","","","4",""
"1621","","","","","3","html-keyboard-response","502","","","","",""
"8619","bank","kudhibi,tualya,silingan,ofisi","silingan","j","3","html-keyboard-response","503","v","tualya","false","","4"
"3459.300000000745","","","","","3","html-slider-response","504","","","","2",""
"1824","","","","","3","html-keyboard-response","505","","","","",""
"3348","letter","kifua,filimbi,chuma,uhuru","kifua","f","3","html-keyboard-response","506","f","kifua","true","","1"
"3570.5","","","","","3","html-slider-response","507","","","","5",""
"1344","","","","","3","html-keyboard-response","508","","","","",""
"2970","dog","lubi,bahari,washia,kalamu","bahari","v","3","html-keyboard-response","509","v","bahari","true","","1"
"3244.9000000003725","","","","","3","html-slider-response","510","","","","5",""
"990","","","","","3","html-keyboard-response","511","","","","",""
"9702","shop","nopya,kerida,samaki,ndezu","samaki","j","3","html-keyboard-response","512","j","samaki","true","","4"
"2434.199999999255","","","","","3","html-slider-response","513","","","","4",""
"743","","","","","3","html-keyboard-response","514","","","","",""
"4238","flower","tamasha,lobo,bega,usiku","bega","j","3","html-keyboard-response","515","v","lobo","false","","4"
"2155.0999999996275","","","","","3","html-slider-response","516","","","","4",""
"984","","","","","3","html-keyboard-response","517","","","","",""
"2824","cigar","adhabu,ndugu,kuta,mlango","adhabu","f","3","html-keyboard-response","518","f","adhabu","true","","1"
"3227","","","","","3","html-slider-response","519","","","","5",""
"1272","","","","","3","html-keyboard-response","520","","","","",""
"7407","hammer","mekno,kitovu,napakyas,layag","napakyas","j","3","html-keyboard-response","521","f","mekno","false","","4"
"4009.5999999996275","","","","","3","html-slider-response","522","","","","2",""
"10946","","","","","3","html-keyboard-response","523","","","","",""
"24591","fork","baboy,paghago,mgonjwa,gorisi","mgonjwa","j","3","html-keyboard-response","524","j","mgonjwa","true","","4"
"5096.4000000003725","","","","","3","html-slider-response","525","","","","4",""
"502","","","","","3","html-keyboard-response","526","","","","",""
"2410","sun","bendi,luha,basi,uongo","basi","j","3","html-keyboard-response","527","j","basi","true","","1"
"2578.5999999996275","","","","","3","html-slider-response","528","","","","5",""
"506","","","","","3","html-keyboard-response","529","","","","",""
"7490","ladder","mashua,mwanga,pangalan,kamba","pangalan","j","3","html-keyboard-response","530","v","mwanga","false","","4"
"5621.700000001118","","","","","3","html-slider-response","531","","","","2",""
"793","","","","","3","html-keyboard-response","532","","","","",""
"1915","banana","kasamok,kazi,hagdan,twai","kazi","v","3","html-keyboard-response","533","v","kazi","true","","1"
"3720.300000000745","","","","","3","html-slider-response","534","","","","5",""
"1134","","","","","3","html-keyboard-response","535","","","","",""
"7176","pudding","abug,aibu,mpishi,iring","aibu","v","3","html-keyboard-response","536","j","mpishi","false","","4"
"2441.2999999988824","","","","","3","html-slider-response","537","","","","2",""
"821","","","","","3","html-keyboard-response","538","","","","",""
"7754","body","nyundu,tindashan,jibini,kununa","tindashan","v","3","html-keyboard-response","539","v","tindashan","true","","4"
"2114.5999999996275","","","","","3","html-slider-response","540","","","","4",""
"617","","","","","3","html-keyboard-response","541","","","","",""
"4613","bed","mapintas,kalipay,haraka,starehe","mapintas","f","3","html-keyboard-response","542","n","starehe","false","","4"
"2480.4000000003725","","","","","3","html-slider-response","543","","","","2",""
"972","","","","","3","html-keyboard-response","544","","","","",""
"7638","tissue","ugomvi,lamigas,kisiwa,katika","ugomvi","f","3","html-keyboard-response","545","j","kisiwa","false","","4"
"3096.5999999996275","","","","","3","html-slider-response","546","","","","2",""
"1133","","","","","3","html-keyboard-response","547","","","","",""
"8264","candle","gabi,geza,farasi,kupanda","geza","v","3","html-keyboard-response","548","j","farasi","false","","4"
"6859","","","","","3","html-slider-response","549","","","","2",""
"1336","","","","","3","html-keyboard-response","550","","","","",""
"2844","tomato","mvua,chupi,chupa,takatak","mvua","f","3","html-keyboard-response","551","f","mvua","true","","1"
"2645.5","","","","","3","html-slider-response","552","","","","5",""
"1186","","","","","3","html-keyboard-response","553","","","","",""
"4092","list","wingu,alizeti,kuzama,kaso","wingu","f","3","html-keyboard-response","554","n","kaso","false","","4"
"3206.0999999996275","","","","","3","html-slider-response","555","","","","2",""
"3703","","","","","3","html-keyboard-response","556","","","","",""
"6270","olive","jiwe,bata,siagi,welder","jiwe","f","3","html-keyboard-response","557","f","jiwe","true","","4"
"2832.10000000149","","","","","3","html-slider-response","558","","","","2",""
"820","","","","","3","html-keyboard-response","559","","","","",""
"2025","picture","silya,kubwa,chaki,asin","kubwa","v","3","html-keyboard-response","560","v","kubwa","true","","1"
"2399.199999999255","","","","","3","html-slider-response","561","","","","5",""
"1253","","","","","3","html-keyboard-response","562","","","","",""
"6051","page","wakala,ishiri,skina,wimbo","wimbo","n","4","html-keyboard-response","888","f","wakala","false","",""
"2508.300000000745","","","","","4","html-slider-response","889","","","","1",""
"11523","sheet","bililhon,juuya,watu,kamantis","bililhon","f","4","html-keyboard-response","890","n","kamantis","false","",""
"4578.5","","","","","4","html-slider-response","891","","","","3",""
"5532","ladder","mashua,pangalan,mwanga,kamba","pangalan","v","4","html-keyboard-response","892","v","pangalan","true","",""
"7566.5999999996275","","","","","4","html-slider-response","893","","","","4",""
"4018","door","tena,soko,nyota,surali","surali","n","4","html-keyboard-response","894","n","surali","true","",""
"2824.800000000745","","","","","4","html-slider-response","895","","","","2",""
"5353","spider","bunyag,mkboa,atop,kamwe","kamwe","n","4","html-keyboard-response","896","f","bunyag","false","",""
"3904.5","","","","","4","html-slider-response","897","","","","4",""
"7615","picture","kubwa,silya,chaki,asin","kubwa","f","4","html-keyboard-response","898","v","silya","false","",""
"4008.5","","","","","4","html-slider-response","899","","","","2",""
"5139","boat","hamsi,pombe,agalon,kitanda","agalon","j","4","html-keyboard-response","900","j","agalon","true","",""
"2465","","","","","4","html-slider-response","901","","","","5",""
"2069","donkey","bloke,lalake,rombus,elfu","elfu","n","4","html-keyboard-response","902","n","elfu","true","",""
"4372.200000001118","","","","","4","html-slider-response","903","","","","5",""
"7806","book","kuhesa,picha,mara,mali","mali","n","4","html-keyboard-response","904","j","mara","false","",""
"3431.89999999851","","","","","4","html-slider-response","905","","","","2",""
"6847","cup","dagat,shimoni,jeraha,matumai","matumai","n","4","html-keyboard-response","906","n","matumai","true","",""
"2311.5","","","","","4","html-slider-response","907","","","","4",""
"9127","sun","bendi,luha,uongo,basi","basi","n","4","html-keyboard-response","908","j","uongo","false","",""
"2506","","","","","4","html-slider-response","909","","","","4",""
"8391","pudding","aibu,abug,mpishi,iring","aibu","f","4","html-keyboard-response","910","f","aibu","true","",""
"3481.5999999996275","","","","","4","html-slider-response","911","","","","4",""
"6671","human","bado,tinapay,kikapu,punguza","tinapay","v","4","html-keyboard-response","912","n","punguza","false","",""
"2536.9000000003725","","","","","4","html-slider-response","913","","","","5",""
"10831","squirrel","mahugaw,ukweli,kichwa,hofu","hofu","n","4","html-keyboard-response","914","f","mahugaw","false","",""
"3547.5","","","","","4","html-slider-response","915","","","","2",""
"21973","park","tambok,pwani,ihalas,bunifu","bunifu","n","4","html-keyboard-response","916","n","bunifu","true","",""
"2358.2000000011176","","","","","4","html-slider-response","917","","","","2",""
"3850","poster","madungog,nchi,fedha,kasuko","madungog","f","4","html-keyboard-response","918","f","madungog","true","",""
"3339.5","","","","","4","html-slider-response","919","","","","4",""
"6013","wolf","kaburi,lugha,ndizi,mchuzi","lugha","v","4","html-keyboard-response","920","v","lugha","true","",""
"3158.0999999996275","","","","","4","html-slider-response","921","","","","2",""
"5098","cat","neyemba,baki,paghukom,akili","paghukom","j","4","html-keyboard-response","922","j","paghukom","true","",""
"13747.5","","","","","4","html-slider-response","923","","","","5",""
"6224","fish","bala,buli,baho,imani","buli","v","4","html-keyboard-response","924","n","imani","false","",""
"2499.699999999255","","","","","4","html-slider-response","925","","","","2",""
"5476","tooth","kabalaka,kijiko,uadui,pahiyum","kabalaka","f","4","html-keyboard-response","926","f","kabalaka","true","",""
"2400.4000000003725","","","","","4","html-slider-response","927","","","","4",""
"8340","cave","ganti,kesho,maisha,nyundo","kesho","v","4","html-keyboard-response","928","n","nyundo","false","",""
"15768.299999998882","","","","","4","html-slider-response","929","","","","4",""
"7976","lamp","daub,bilaska,afya,mbolea","afya","j","4","html-keyboard-response","930","v","bilaska","false","",""
"2848.199999999255","","","","","4","html-slider-response","931","","","","2",""
"6458","banana","kazi,kasamok,hagdan,twai","kazi","f","4","html-keyboard-response","932","j","hagdan","false","",""
"3735.800000000745","","","","","4","html-slider-response","933","","","","2",""
"6798","bonfire","mwezi,mfuko,kusanya,goti","goti","n","4","html-keyboard-response","934","n","goti","true","",""
"2598","","","","","4","html-slider-response","935","","","","4",""
"4970","cop","bustani,jikoni,bakus,mechezo","mechezo","n","4","html-keyboard-response","936","n","mechezo","true","",""
"2455.9000000003725","","","","","4","html-slider-response","937","","","","5",""
"17520","marker","mapafu,salita,atay,maji","maji","n","4","html-keyboard-response","938","f","mapafu","false","",""
"2265.9000000003725","","","","","4","html-slider-response","939","","","","2",""
"7248","window","kweli,nanga,kujenga,umaga","kweli","f","4","html-keyboard-response","940","j","kujenga","false","",""
"3369.10000000149","","","","","4","html-slider-response","941","","","","4",""
"6295","body","nyundu,tindashan,jibini,kununa","tindashan","v","4","html-keyboard-response","942","v","tindashan","true","",""
"2928","","","","","4","html-slider-response","943","","","","5",""
"17777","apple","kisu,ukame,estante,edad","kisu","f","4","html-keyboard-response","944","n","edad","false","",""
"2969.0999999996275","","","","","4","html-slider-response","945","","","","2",""
"19681","salmon","mzungu,seri,sensilyo,baharia","sensilyo","j","4","html-keyboard-response","946","j","sensilyo","true","",""
"3008.199999999255","","","","","4","html-slider-response","947","","","","2",""
"3377","bed","kalipay,haraka,starehe,mapintas","mapintas","n","4","html-keyboard-response","948","n","mapintas","true","",""
"2469.0999999996275","","","","","4","html-slider-response","949","","","","5",""
"7655","berry","abogado,nogozi,kinywa,kofia","kofia","n","4","html-keyboard-response","950","j","kinywa","false","",""
"2341.5999999996275","","","","","4","html-slider-response","951","","","","2",""
"5129","mirror","rangi,kanding,sulagma,furaha","sulagma","j","4","html-keyboard-response","952","j","sulagma","true","",""
"2512.5","","","","","4","html-slider-response","953","","","","5",""
"19036","flag","ndege,mkate,kawa,trekta","trekta","n","4","html-keyboard-response","954","n","trekta","true","",""
"2763.0999999996275","","","","","4","html-slider-response","955","","","","2",""
"13378","shoulder","kelele,ndaniya,guruwe,mkuu","mkuu","n","4","html-keyboard-response","956","n","mkuu","true","",""
"2538.60000000149","","","","","4","html-slider-response","957","","","","5",""
"5946","tissue","ugomvi,lamigas,kisiwa,katika","ugomvi","f","4","html-keyboard-response","958","n","katika","false","",""
"2843.300000000745","","","","","4","html-slider-response","959","","","","3",""
"6824","notebook","msitu,kemia,kila,mdudu","kemia","v","4","html-keyboard-response","960","n","mdudu","false","",""
"2720.9000000003725","","","","","4","html-slider-response","961","","","","4",""
"4872","snake","pagtukod,jansa,karon,mvringo","pagtukod","f","4","html-keyboard-response","962","f","pagtukod","true","",""
"2269.199999999255","","","","","4","html-slider-response","963","","","","4",""
"2094","finger","simu,moyo,sufuria,lima","moyo","v","4","html-keyboard-response","964","n","lima","false","",""
"3939.300000000745","","","","","4","html-slider-response","965","","","","2",""
"14780","basket","kumba,kumbuka,utepe,hasira","kumba","f","4","html-keyboard-response","966","j","utepe","false","",""
"2711.10000000149","","","","","4","html-slider-response","967","","","","2",""
"8245","curtain","lisud,bulwawan,chubani,mchanga","mchanga","n","4","html-keyboard-response","968","n","mchanga","true","",""
"2171.5999999996275","","","","","4","html-slider-response","969","","","","5",""
"7342","perfume","bino,sungura,ndogo,katuyoan","katuyoan","n","4","html-keyboard-response","970","v","sungura","false","",""
"2189.800000000745","","","","","4","html-slider-response","971","","","","2",""
"5473","key","miaka,goma,ahos,chombo","chombo","n","4","html-keyboard-response","972","v","goma","false","",""
"2750.5","","","","","4","html-slider-response","973","","","","4",""
"4341","olive","jiwe,bata,siagi,welder","jiwe","f","4","html-keyboard-response","974","j","siagi","false","",""
"2239.199999999255","","","","","4","html-slider-response","975","","","","2",""
"14966","rose","singizi,mwanake,paghalad,amani","paghalad","j","4","html-keyboard-response","976","j","paghalad","true","",""
"4479.200000001118","","","","","4","html-slider-response","977","","","","4",""
"4446","bridge","daima,sahani,ngono,panya","sahani","v","4","html-keyboard-response","978","f","daima","false","",""
"3053.5999999996275","","","","","4","html-slider-response","979","","","","2",""
"3171","hill","kushoto,kukimba,matumbo,sweta","matumbo","j","4","html-keyboard-response","980","j","matumbo","true","",""
"2338.800000000745","","","","","4","html-slider-response","981","","","","5",""
"9336","letter","kifua,filimbi,chuma,uhuru","kifua","f","4","html-keyboard-response","982","f","kifua","true","",""
"2223.7000000011176","","","","","4","html-slider-response","983","","","","4",""
"1670","sock","ndoora,kimysa,mtirka,mamba","mamba","n","4","html-keyboard-response","984","n","mamba","true","",""
"2944.5","","","","","4","html-slider-response","985","","","","5",""
"5799","fork","mgonjwa,baboy,paghago,gorisi","mgonjwa","f","4","html-keyboard-response","986","f","mgonjwa","true","",""
"6750.199999999255","","","","","4","html-slider-response","987","","","","3",""
"4572","box","kuacha,rafiki,adui,kitande","adui","j","4","html-keyboard-response","988","f","kuacha","false","",""
"4373.0999999996275","","","","","4","html-slider-response","989","","","","4",""
"5884","gift","pagtawag,baba,nyange,baso","pagtawag","f","4","html-keyboard-response","990","f","pagtawag","true","",""
"2516.800000000745","","","","","4","html-slider-response","991","","","","4",""
"15810","bucket","baga,kiatu,ijayo,init","kiatu","v","4","html-keyboard-response","992","v","kiatu","true","",""
"4172.5","","","","","4","html-slider-response","993","","","","2",""
"4174","shop","samaki,nopya,kerida,ndezu","samaki","f","4","html-keyboard-response","994","j","kerida","false","",""
"2172.89999999851","","","","","4","html-slider-response","995","","","","4",""
"4955","puppet","napulo,lamok,godoro,mazishi","mazishi","n","4","html-keyboard-response","996","n","mazishi","true","",""
"7306.799999998882","","","","","4","html-slider-response","997","","","","5",""
"26481","nose","gubat,kopa,kidole,sehemu","sehemu","n","4","html-keyboard-response","998","n","sehemu","true","",""
"2607.89999999851","","","","","4","html-slider-response","999","","","","2",""
"7455","music","mraba,mageho,baiski,tumbo","baiski","j","4","html-keyboard-response","1000","n","tumbo","false","",""
"2602.7000000011176","","","","","4","html-slider-response","1001","","","","5",""
"80127","dog","lubi,bahari,washia,kalamu","bahari","v","4","html-keyboard-response","1002","v","bahari","true","",""
"2691.300000000745","","","","","4","html-slider-response","1003","","","","4",""
"6844","eel","msumari,ishara,kunywa,kabuang","msumari","f","4","html-keyboard-response","1004","j","kunywa","false","",""
"2166.699999999255","","","","","4","html-slider-response","1005","","","","2",""
"3531","number","shule,mundamo,kengele,choori","mundamo","v","4","html-keyboard-response","1006","v","mundamo","true","",""
"2103.699999999255","","","","","4","html-slider-response","1007","","","","4",""
"5515","tomato","chupi,mvua,chupa,takatak","mvua","v","4","html-keyboard-response","1008","f","chupi","false","",""
"1973.9000000003725","","","","","4","html-slider-response","1009","","","","2",""
"5142","coffin","barua,tubag,hulma,kioo","kioo","n","4","html-keyboard-response","1010","f","barua","false","",""
"3038.0999999996275","","","","","4","html-slider-response","1011","","","","4",""
"6166","knee","duka,mvuke,kubale,bili","duka","f","4","html-keyboard-response","1012","f","duka","true","",""
"2207.300000000745","","","","","4","html-slider-response","1013","","","","4",""
"4395","woman","bandari,bituin,kovuli,pagtabon","pagtabon","n","4","html-keyboard-response","1014","n","pagtabon","true","",""
"2438","","","","","4","html-slider-response","1015","","","","4",""
"6294","stone","ulimwengu,mkasi,asili,wingi","wingi","n","4","html-keyboard-response","1016","v","mkasi","false","",""
"8669.400000000373","","","","","4","html-slider-response","1017","","","","2",""
"2980","bread","kaili,dari,dizeli,bugas","dari","v","4","html-keyboard-response","1018","v","dari","true","",""
"3315.2000000011176","","","","","4","html-slider-response","1019","","","","4",""
"2748","triangle","kihozi,bentaha,liog,kasadpan","kasadpan","n","4","html-keyboard-response","1020","n","kasadpan","true","",""
"2647.7000000011176","","","","","4","html-slider-response","1021","","","","5",""
"8426","scissors","tanuri,duga,mtawa,suga","tanuri","f","4","html-keyboard-response","1022","j","mtawa","false","",""
"2874.89999999851","","","","","4","html-slider-response","1023","","","","2",""
"10643","giraffe","mahitabo,daraja,jumatu,hangyo","mahitabo","f","4","html-keyboard-response","1024","n","hangyo","false","",""
"3649.800000000745","","","","","4","html-slider-response","1025","","","","4",""
"8008","flower","tamasha,bega,lobo,usiku","bega","v","4","html-keyboard-response","1026","f","tamasha","false","",""
"2544.5","","","","","4","html-slider-response","1027","","","","4",""
"12560","candle","gabi,farasi,kupanda,geza","geza","n","4","html-keyboard-response","1028","j","kupanda","false","",""
"2218.5999999996275","","","","","4","html-slider-response","1029","","","","2",""
"2974","mother","babaye,kahawa,mbuzi,jokofu","babaye","f","4","html-keyboard-response","1030","f","babaye","true","",""
"2719.60000000149","","","","","4","html-slider-response","1031","","","","5",""
"5671","towel","tembo,pagpalit,funzi,pito","pagpalit","v","4","html-keyboard-response","1032","f","tembo","false","",""
"2045","","","","","4","html-slider-response","1033","","","","4",""
"2665","elephant","kito,petye,pagduol,suka","kito","f","4","html-keyboard-response","1034","f","kito","true","",""
"2420","","","","","4","html-slider-response","1035","","","","5",""
"4130","shelf","bungtod,kadaot,pamahaw,awit","pamahaw","j","4","html-keyboard-response","1036","f","bungtod","false","",""
"2137.9000000003725","","","","","4","html-slider-response","1037","","","","2",""
"2007","mosquito","isda,taras,martilyo,gutom","martilyo","j","4","html-keyboard-response","1038","j","martilyo","true","",""
"2520","","","","","4","html-slider-response","1039","","","","5",""
"2774","column","ufagio,pundok,dila,pala","ufagio","f","4","html-keyboard-response","1040","v","pundok","false","",""
"2435.39999999851","","","","","4","html-slider-response","1041","","","","2",""
"5386","pants","pintal,chuki,hari,haki","haki","n","4","html-keyboard-response","1042","n","haki","true","",""
"2262.0999999996275","","","","","4","html-slider-response","1043","","","","5",""
"5167","list","alizeti,kuzama,kaso,wingu","wingu","n","4","html-keyboard-response","1044","v","kuzama","false","",""
"2484.5999999996275","","","","","4","html-slider-response","1045","","","","4",""
"6557","bank","kudhibi,tualya,ofisi,silingan","silingan","n","4","html-keyboard-response","1046","n","silingan","true","",""
"2778.199999999255","","","","","4","html-slider-response","1047","","","","4",""
"10448","clock","kartasi,abang,osha,mbwa","mbwa","n","4","html-keyboard-response","1048","j","osha","false","",""
"2373.9000000003725","","","","","4","html-slider-response","1049","","","","2",""
"10721","ceiling","kugita,kawaida,rayna,maua","maua","n","4","html-keyboard-response","1050","v","kawaida","false","",""
"3034.2999999988824","","","","","4","html-slider-response","1051","","","","2",""
"16559","train","itik,dakika,mungu,sayari","sayari","n","4","html-keyboard-response","1052","n","sayari","true","",""
"2713.2999999988824","","","","","4","html-slider-response","1053","","","","2",""
"3245","magazine","kiti,gundi,mchawi,bahandi","kiti","f","4","html-keyboard-response","1054","j","mchawi","false","",""
"2801.199999999255","","","","","4","html-slider-response","1055","","","","4",""
"8404","office","leso,hazini,yatima,kuna","leso","f","4","html-keyboard-response","1056","v","hazini","false","",""
"2590.699999999255","","","","","4","html-slider-response","1057","","","","4",""
"5689","wheel","bafuni,punda,tawo,baadaye","bafuni","f","4","html-keyboard-response","1058","f","bafuni","true","",""
"3071.800000000745","","","","","4","html-slider-response","1059","","","","4",""
"3766","spoon","betri,pagsulod,nzuri,ngazi","pagsulod","v","4","html-keyboard-response","1060","v","pagsulod","true","",""
"2152.5999999996275","","","","","4","html-slider-response","1061","","","","2",""
"3770","hammer","mekno,kitovu,napakyas,layag","napakyas","j","4","html-keyboard-response","1062","j","napakyas","true","",""
"2651.5999999996275","","","","","4","html-slider-response","1063","","","","2",""
"2690","cigar","ndugu,kuta,adhabu,mlango","adhabu","j","4","html-keyboard-response","1064","n","mlango","false","",""
"2309","","","","","4","html-slider-response","1065","","","","5",""
"6802","shoe","nyeusi,uyoga,hatua,kama","uyoga","v","4","html-keyboard-response","1066","j","hatua","false","",""
"2705.4000000003725","","","","","4","html-slider-response","1067","","","","2",""
"5611","list","alizeti,kuzama,kaso,wingu","wingu","n","5","html-keyboard-response","1069","v","kuzama","false","",""
"5065.5","","","","","5","html-slider-response","1070","","","","3",""
"3208","number","shule,kengele,choori,mundamo","mundamo","n","5","html-keyboard-response","1071","n","mundamo","true","",""
"2526","","","","","5","html-slider-response","1072","","","","5",""
"10068","apple","ukame,kisu,estante,edad","kisu","v","5","html-keyboard-response","1073","f","ukame","false","",""
"5954.9000000003725","","","","","5","html-slider-response","1074","","","","4",""
"22593","knee","duka,mvuke,kubale,bili","duka","f","5","html-keyboard-response","1075","j","kubale","false","",""
"2224.9000000003725","","","","","5","html-slider-response","1076","","","","2",""
"5394","tooth","kijiko,uadui,pahiyum,kabalaka","kabalaka","n","5","html-keyboard-response","1077","n","kabalaka","true","",""
"2891.7000000011176","","","","","5","html-slider-response","1078","","","","5",""
"4797","berry","abogado,nogozi,kofia,kinywa","kofia","j","5","html-keyboard-response","1079","n","kinywa","false","",""
"3712","","","","","5","html-slider-response","1080","","","","2",""
"3361","bridge","daima,ngono,panya,sahani","sahani","n","5","html-keyboard-response","1081","v","ngono","false","",""
"4514.10000000149","","","","","5","html-slider-response","1082","","","","4",""
"6528","perfume","katuyoan,bino,sungura,ndogo","katuyoan","f","5","html-keyboard-response","1083","f","katuyoan","true","",""
"3159.10000000149","","","","","5","html-slider-response","1084","","","","2",""
"2538","ladder","mashua,mwanga,kamba,pangalan","pangalan","n","5","html-keyboard-response","1085","n","pangalan","true","",""
"2509.699999999255","","","","","5","html-slider-response","1086","","","","5",""
"1984","pants","pintal,chuki,haki,hari","haki","j","5","html-keyboard-response","1087","j","haki","true","",""
"2341.699999999255","","","","","5","html-slider-response","1088","","","","5",""
"3746","salmon","mzungu,seri,baharia,sensilyo","sensilyo","n","5","html-keyboard-response","1089","f","mzungu","false","",""
"3030.89999999851","","","","","5","html-slider-response","1090","","","","4",""
"3405","coffin","barua,tubag,hulma,kioo","kioo","n","5","html-keyboard-response","1091","f","barua","false","",""
"3325.199999999255","","","","","5","html-slider-response","1092","","","","2",""
"12436","park","tambok,bunifu,pwani,ihalas","bunifu","v","5","html-keyboard-response","1093","j","pwani","false","",""
"2412.5","","","","","5","html-slider-response","1094","","","","2",""
"47836","giraffe","daraja,jumatu,mahitabo,hangyo","mahitabo","j","5","html-keyboard-response","1095","j","mahitabo","true","",""
"2178.5999999996275","","","","","5","html-slider-response","1096","","","","4",""
"2232","mirror","sulagma,rangi,kanding,furaha","sulagma","f","5","html-keyboard-response","1097","f","sulagma","true","",""
"2840.9000000003725","","","","","5","html-slider-response","1098","","","","5",""
"3672","ceiling","maua,kugita,kawaida,rayna","maua","f","5","html-keyboard-response","1099","j","kawaida","false","",""
"2762.5999999996275","","","","","5","html-slider-response","1100","","","","4",""
"2934","marker","mapafu,maji,salita,atay","maji","v","5","html-keyboard-response","1101","f","mapafu","false","",""
"2388.5","","","","","5","html-slider-response","1102","","","","5",""
"1694","sock","ndoora,kimysa,mamba,mtirka","mamba","j","5","html-keyboard-response","1103","j","mamba","true","",""
"3345.699999999255","","","","","5","html-slider-response","1104","","","","5",""
"2244","cop","bustani,jikoni,bakus,mechezo","mechezo","n","5","html-keyboard-response","1105","n","mechezo","true","",""
"3434.800000000745","","","","","5","html-slider-response","1106","","","","5",""
"4239","gift","baba,pagtawag,nyange,baso","pagtawag","v","5","html-keyboard-response","1107","v","pagtawag","true","",""
"2977.9000000003725","","","","","5","html-slider-response","1108","","","","4",""
"5596","notebook","msitu,kila,mdudu,kemia","kemia","n","5","html-keyboard-response","1109","f","msitu","false","",""
"3400.5999999996275","","","","","5","html-slider-response","1110","","","","3",""
"6926","bank","kudhibi,tualya,silingan,ofisi","silingan","j","5","html-keyboard-response","1111","j","silingan","true","",""
"4263.5999999996275","","","","","5","html-slider-response","1112","","","","4",""
"5423","letter","filimbi,chuma,uhuru,kifua","kifua","n","5","html-keyboard-response","1113","n","kifua","true","",""
"3638.9000000003725","","","","","5","html-slider-response","1114","","","","2",""
"12353","candle","gabi,farasi,geza,kupanda","geza","j","5","html-keyboard-response","1115","n","kupanda","false","",""
"50094.5","","","","","5","html-slider-response","1116","","","","4",""
"4111","bread","dari,kaili,dizeli,bugas","dari","f","5","html-keyboard-response","1117","f","dari","true","",""
"2889.9000000003725","","","","","5","html-slider-response","1118","","","","4",""
"5879","snake","jansa,karon,mvringo,pagtukod","pagtukod","n","5","html-keyboard-response","1119","n","pagtukod","true","",""
"10252.299999998882","","","","","5","html-slider-response","1120","","","","5",""
"6337","rose","singizi,paghalad,mwanake,amani","paghalad","v","5","html-keyboard-response","1121","v","paghalad","true","",""
"2620.199999999255","","","","","5","html-slider-response","1122","","","","5",""
"1927","hill","kushoto,kukimba,matumbo,sweta","matumbo","j","5","html-keyboard-response","1123","j","matumbo","true","",""
"11487.799999998882","","","","","5","html-slider-response","1124","","","","5",""
"5993","train","itik,dakika,mungu,sayari","sayari","n","5","html-keyboard-response","1125","j","mungu","false","",""
"4860.300000000745","","","","","5","html-slider-response","1126","","","","2",""
"4071","shop","nopya,kerida,ndezu,samaki","samaki","n","5","html-keyboard-response","1127","v","kerida","false","",""
"2570.199999999255","","","","","5","html-slider-response","1128","","","","5",""
"4722","nose","gubat,kopa,sehemu,kidole","sehemu","j","5","html-keyboard-response","1129","j","sehemu","true","",""
"3089","","","","","5","html-slider-response","1130","","","","4",""
"2757","boat","hamsi,agalon,pombe,kitanda","agalon","v","5","html-keyboard-response","1131","v","agalon","true","",""
"5251.5","","","","","5","html-slider-response","1132","","","","5",""
"3700","body","nyundu,jibini,kununa,tindashan","tindashan","n","5","html-keyboard-response","1133","n","tindashan","true","",""
"5355.4000000003725","","","","","5","html-slider-response","1134","","","","5",""
"2773","bed","mapintas,kalipay,haraka,starehe","mapintas","f","5","html-keyboard-response","1135","f","mapintas","true","",""
"3220.5","","","","","5","html-slider-response","1136","","","","5",""
"3572","squirrel","mahugaw,ukweli,kichwa,hofu","hofu","n","5","html-keyboard-response","1137","f","mahugaw","false","",""
"3293.0999999996275","","","","","5","html-slider-response","1138","","","","5",""
"24636","window","kweli,nanga,kujenga,umaga","kweli","f","5","html-keyboard-response","1139","j","kujenga","false","",""
"2564","","","","","5","html-slider-response","1140","","","","2",""
"4996","bonfire","mwezi,mfuko,goti,kusanya","goti","j","5","html-keyboard-response","1141","f","mwezi","false","",""
"3503.300000000745","","","","","5","html-slider-response","1142","","","","5",""
"5400","fish","bala,baho,imani,buli","buli","n","5","html-keyboard-response","1143","n","buli","true","",""
"5277.200000001118","","","","","5","html-slider-response","1144","","","","2",""
"4696","cat","neyemba,paghukom,baki,akili","paghukom","v","5","html-keyboard-response","1145","v","paghukom","true","",""
"4317.0999999996275","","","","","5","html-slider-response","1146","","","","5",""
"4188","spider","kamwe,bunyag,mkboa,atop","kamwe","f","5","html-keyboard-response","1147","j","mkboa","false","",""
"2405.5999999996275","","","","","5","html-slider-response","1148","","","","4",""
"6032","eel","ishara,kunywa,msumari,kabuang","msumari","j","5","html-keyboard-response","1149","v","kunywa","false","",""
"3230.5","","","","","5","html-slider-response","1150","","","","2",""
"4910","woman","bandari,bituin,pagtabon,kovuli","pagtabon","j","5","html-keyboard-response","1151","j","pagtabon","true","",""
"5454","","","","","5","html-slider-response","1152","","","","5",""
"2944","magazine","gundi,mchawi,bahandi,kiti","kiti","n","5","html-keyboard-response","1153","v","mchawi","false","",""
"2739.89999999851","","","","","5","html-slider-response","1154","","","","4",""
"6425","pudding","abug,mpishi,iring,aibu","aibu","n","5","html-keyboard-response","1155","n","aibu","true","",""
"4885.5","","","","","5","html-slider-response","1156","","","","4",""
"5461","lamp","afya,daub,bilaska,mbolea","afya","f","5","html-keyboard-response","1157","j","bilaska","false","",""
"2587.2999999988824","","","","","5","html-slider-response","1158","","","","4",""
"2935","cave","ganti,maisha,kesho,nyundo","kesho","j","5","html-keyboard-response","1159","n","nyundo","false","",""
"3319.699999999255","","","","","5","html-slider-response","1160","","","","4",""
"5175","shoulder","mkuu,kelele,ndaniya,guruwe","mkuu","f","5","html-keyboard-response","1161","f","mkuu","true","",""
"2713.300000000745","","","","","5","html-slider-response","1162","","","","5",""
"8685","stone","wingi,ulimwengu,mkasi,asili","wingi","f","5","html-keyboard-response","1163","j","mkasi","false","",""
"2456.199999999255","","","","","5","html-slider-response","1164","","","","2",""
"6008","column","pundok,ufagio,dila,pala","ufagio","v","5","html-keyboard-response","1165","v","ufagio","true","",""
"2475.800000000745","","","","","5","html-slider-response","1166","","","","2",""
"6418","page","wakala,wimbo,ishiri,skina","wimbo","v","5","html-keyboard-response","1167","v","wimbo","true","",""
"3737.4000000003725","","","","","5","html-slider-response","1168","","","","3",""
"57612","shoe","nyeusi,hatua,uyoga,kama","uyoga","j","5","html-keyboard-response","1169","f","nyeusi","false","",""
"2790.60000000149","","","","","5","html-slider-response","1170","","","","5",""
"1776","clock","mbwa,kartasi,abang,osha","mbwa","f","5","html-keyboard-response","1171","n","osha","false","",""
"2587.9000000003725","","","","","5","html-slider-response","1172","","","","5",""
"4143","towel","tembo,pagpalit,funzi,pito","pagpalit","v","5","html-keyboard-response","1173","f","tembo","false","",""
"2812.800000000745","","","","","5","html-slider-response","1174","","","","5",""
"4839","tomato","chupi,chupa,takatak,mvua","mvua","n","5","html-keyboard-response","1175","f","chupi","false","",""
"4384.39999999851","","","","","5","html-slider-response","1176","","","","2",""
"4276","bucket","baga,ijayo,kiatu,init","kiatu","j","5","html-keyboard-response","1177","j","kiatu","true","",""
"2302.0999999996275","","","","","5","html-slider-response","1178","","","","4",""
"1665","finger","simu,sufuria,lima,moyo","moyo","n","5","html-keyboard-response","1179","n","moyo","true","",""
"2875.7000000011176","","","","","5","html-slider-response","1180","","","","5",""
"1677","mother","kahawa,mbuzi,babaye,jokofu","babaye","j","5","html-keyboard-response","1181","j","babaye","true","",""
"3907.2000000011176","","","","","5","html-slider-response","1182","","","","5",""
"7566","human","tinapay,bado,kikapu,punguza","tinapay","f","5","html-keyboard-response","1183","n","punguza","false","",""
"2512.2999999988824","","","","","5","html-slider-response","1184","","","","5",""
"3878","sun","bendi,luha,uongo,basi","basi","n","5","html-keyboard-response","1185","j","uongo","false","",""
"4023.0999999996275","","","","","5","html-slider-response","1186","","","","5",""
"6513","fork","baboy,mgonjwa,paghago,gorisi","mgonjwa","v","5","html-keyboard-response","1187","v","mgonjwa","true","",""
"3519.5999999996275","","","","","5","html-slider-response","1188","","","","5",""
"12090","donkey","bloke,lalake,rombus,elfu","elfu","n","5","html-keyboard-response","1189","n","elfu","true","",""
"2938.2999999988824","","","","","5","html-slider-response","1190","","","","5",""
"6939","wolf","kaburi,lugha,ndizi,mchuzi","lugha","v","5","html-keyboard-response","1191","f","kaburi","false","",""
"3590.800000000745","","","","","5","html-slider-response","1192","","","","3",""
"6363","cigar","ndugu,kuta,mlango,adhabu","adhabu","n","5","html-keyboard-response","1193","j","mlango","false","",""
"2247.4000000003725","","","","","5","html-slider-response","1194","","","","5",""
"5486","olive","jiwe,bata,siagi,welder","jiwe","f","5","html-keyboard-response","1195","f","jiwe","true","",""
"2212.4000000003725","","","","","5","html-slider-response","1196","","","","2",""
"2973","key","chombo,miaka,goma,ahos","chombo","f","5","html-keyboard-response","1197","v","miaka","false","",""
"4247","","","","","5","html-slider-response","1198","","","","4",""
"4108","door","tena,surali,soko,nyota","surali","v","5","html-keyboard-response","1199","v","surali","true","",""
"2870.9000000003725","","","","","5","html-slider-response","1200","","","","4",""
"3894","wheel","punda,tawo,baadaye,bafuni","bafuni","n","5","html-keyboard-response","1201","n","bafuni","true","",""
"2626.0999999996275","","","","","5","html-slider-response","1202","","","","5",""
"2632","basket","kumba,kumbuka,utepe,hasira","kumba","f","5","html-keyboard-response","1203","v","kumbuka","false","",""
"2676.5999999996275","","","","","5","html-slider-response","1204","","","","4",""
"3563","elephant","petye,pagduol,suka,kito","kito","n","5","html-keyboard-response","1205","n","kito","true","",""
"2566.5999999996275","","","","","5","html-slider-response","1206","","","","5",""
"6868","office","hazini,leso,yatima,kuna","leso","v","5","html-keyboard-response","1207","f","hazini","false","",""
"2493.39999999851","","","","","5","html-slider-response","1208","","","","2",""
"6381","music","mraba,baiski,mageho,tumbo","baiski","v","5","html-keyboard-response","1209","f","mraba","false","",""
"2839.0999999996275","","","","","5","html-slider-response","1210","","","","5",""
"6800","tissue","lamigas,ugomvi,kisiwa,katika","ugomvi","v","5","html-keyboard-response","1211","n","katika","false","",""
"2880.4000000003725","","","","","5","html-slider-response","1212","","","","4",""
"2284","curtain","mchanga,lisud,bulwawan,chubani","mchanga","f","5","html-keyboard-response","1213","f","mchanga","true","",""
"2144.800000000745","","","","","5","html-slider-response","1214","","","","5",""
"5870","flag","ndege,trekta,mkate,kawa","trekta","v","5","html-keyboard-response","1215","v","trekta","true","",""
"4958.5","","","","","5","html-slider-response","1216","","","","4",""
"3451","dog","lubi,bahari,washia,kalamu","bahari","v","5","html-keyboard-response","1217","v","bahari","true","",""
"4184.9000000003725","","","","","5","html-slider-response","1218","","","","4",""
"5339","cup","matumai,dagat,shimoni,jeraha","matumai","f","5","html-keyboard-response","1219","f","matumai","true","",""
"2858.800000000745","","","","","5","html-slider-response","1220","","","","4",""
"4453","sheet","bililhon,juuya,watu,kamantis","bililhon","f","5","html-keyboard-response","1221","n","kamantis","false","",""
"2735.0999999996275","","","","","5","html-slider-response","1222","","","","5",""
"2189","spoon","betri,pagsulod,nzuri,ngazi","pagsulod","v","5","html-keyboard-response","1223","v","pagsulod","true","",""
"2260.9000000003725","","","","","5","html-slider-response","1224","","","","4",""
"6069","flower","tamasha,bega,lobo,usiku","bega","v","5","html-keyboard-response","1225","v","bega","true","",""
"2205.0999999996275","","","","","5","html-slider-response","1226","","","","4",""
"9992","picture","silya,chaki,kubwa,asin","kubwa","j","5","html-keyboard-response","1227","f","silya","false","",""
"2615.0999999996275","","","","","5","html-slider-response","1228","","","","4",""
"2793","puppet","napulo,mazishi,lamok,godoro","mazishi","v","5","html-keyboard-response","1229","v","mazishi","true","",""
"4409.699999999255","","","","","5","html-slider-response","1230","","","","5",""
"9119","banana","kasamok,hagdan,kazi,twai","kazi","j","5","html-keyboard-response","1231","f","kasamok","false","",""
"2898.7999999988824","","","","","5","html-slider-response","1232","","","","2",""
"10242","book","kuhesa,picha,mali,mara","mali","j","5","html-keyboard-response","1233","v","picha","false","",""
"2454.89999999851","","","","","5","html-slider-response","1234","","","","2",""
"2970","triangle","kasadpan,kihozi,bentaha,liog","kasadpan","f","5","html-keyboard-response","1235","f","kasadpan","true","",""
"2922.5999999996275","","","","","5","html-slider-response","1236","","","","5",""
"3380","poster","nchi,fedha,kasuko,madungog","madungog","n","5","html-keyboard-response","1237","n","madungog","true","",""
"2531.7000000011176","","","","","5","html-slider-response","1238","","","","5",""
"5965","box","kuacha,rafiki,kitande,adui","adui","n","5","html-keyboard-response","1239","f","kuacha","false","",""
"2362","","","","","5","html-slider-response","1240","","","","2",""
"1932","mosquito","isda,martilyo,taras,gutom","martilyo","v","5","html-keyboard-response","1241","v","martilyo","true","",""
"2342.5","","","","","5","html-slider-response","1242","","","","5",""
"3704","shelf","bungtod,pamahaw,kadaot,awit","pamahaw","v","5","html-keyboard-response","1243","f","bungtod","false","",""
"9080","","","","","5","html-slider-response","1244","","","","3",""
"5157","scissors","duga,tanuri,mtawa,suga","tanuri","v","5","html-keyboard-response","1245","j","mtawa","false","",""
"2331.800000000745","","","","","5","html-slider-response","1246","","","","5",""
"2553","hammer","napakyas,mekno,kitovu,layag","napakyas","f","5","html-keyboard-response","1247","f","napakyas","true","",""
"3319.699999999255","","","","","5","html-slider-response","1248","","","","5",""
