"rt","en_word","options","swa_word","correct_answer","phase","trial_type","trial_index","input_answer","input_word","accuracy","certainty","amt_choices"
"16009","bonfire","mwezi,goti,mfuko,kusanya","goti","v","2","html-keyboard-response","106","v","goti","true","",""
"1651","","","","","2","html-slider-response","107","","","","4",""
"4897","flower","tamasha,lobo,bega,usiku","bega","j","2","html-keyboard-response","108","j","bega","true","",""
"2443","","","","","2","html-slider-response","109","","","","4",""
"5552","column","pundok,dila,ufagio,pala","ufagio","j","2","html-keyboard-response","110","j","ufagio","true","",""
"1420","","","","","2","html-slider-response","111","","","","4",""
"3183","music","mraba,baiski,mageho,tumbo","baiski","v","2","html-keyboard-response","112","v","baiski","true","",""
"1497","","","","","2","html-slider-response","113","","","","4",""
"2955","spider","kamwe,bunyag,mkboa,atop","kamwe","f","2","html-keyboard-response","114","f","kamwe","true","",""
"1469","","","","","2","html-slider-response","115","","","","4",""
"5201","fork","baboy,paghago,gorisi,mgonjwa","mgonjwa","n","2","html-keyboard-response","116","n","mgonjwa","true","",""
"1222","","","","","2","html-slider-response","117","","","","4",""
"3593","mosquito","isda,martilyo,taras,gutom","martilyo","v","2","html-keyboard-response","118","v","martilyo","true","",""
"2087","","","","","2","html-slider-response","119","","","","5",""
"3836","banana","kasamok,kazi,hagdan,twai","kazi","v","2","html-keyboard-response","120","v","kazi","true","",""
"3500","","","","","2","html-slider-response","121","","","","4",""
"3585","cup","matumai,dagat,shimoni,jeraha","matumai","f","2","html-keyboard-response","122","f","matumai","true","",""
"1655","","","","","2","html-slider-response","123","","","","5",""
"4476","shop","nopya,kerida,samaki,ndezu","samaki","j","2","html-keyboard-response","124","j","samaki","true","",""
"1367","","","","","2","html-slider-response","125","","","","4",""
"3784","elephant","kito,petye,pagduol,suka","kito","f","2","html-keyboard-response","126","f","kito","true","",""
"1422","","","","","2","html-slider-response","127","","","","4",""
"3774","bucket","baga,kiatu,ijayo,init","kiatu","v","2","html-keyboard-response","128","v","kiatu","true","",""
"1281","","","","","2","html-slider-response","129","","","","4",""
"4374","book","kuhesa,mali,picha,mara","mali","v","2","html-keyboard-response","130","v","mali","true","",""
"2504","","","","","2","html-slider-response","131","","","","4",""
"1174","mirror","rangi,kanding,furaha,sulagma","sulagma","n","2","html-keyboard-response","132","n","sulagma","true","",""
"1852","","","","","2","html-slider-response","133","","","","2",""
"7856","office","hazini,yatima,leso,kuna","leso","j","2","html-keyboard-response","134","j","leso","true","",""
"1367","","","","","2","html-slider-response","135","","","","4",""
"3919","body","nyundu,jibini,tindashan,kununa","tindashan","j","2","html-keyboard-response","136","f","nyundu","false","",""
"1839","","","","","2","html-slider-response","137","","","","2",""
"7010","perfume","bino,sungura,katuyoan,ndogo","katuyoan","j","2","html-keyboard-response","138","j","katuyoan","true","",""
"1744","","","","","2","html-slider-response","139","","","","4",""
"4771","olive","bata,jiwe,siagi,welder","jiwe","v","2","html-keyboard-response","140","j","siagi","false","",""
"2212","","","","","2","html-slider-response","141","","","","1",""
"3423","magazine","gundi,mchawi,kiti,bahandi","kiti","j","2","html-keyboard-response","142","j","kiti","true","",""
"1723","","","","","2","html-slider-response","143","","","","4",""
"3866","bread","kaili,dizeli,dari,bugas","dari","j","2","html-keyboard-response","144","j","dari","true","",""
"2514","","","","","2","html-slider-response","145","","","","4",""
"5994","cave","ganti,maisha,kesho,nyundo","kesho","j","2","html-keyboard-response","146","f","ganti","false","",""
"1675","","","","","2","html-slider-response","147","","","","1",""
"4994","ladder","mashua,mwanga,pangalan,kamba","pangalan","j","2","html-keyboard-response","148","n","kamba","false","",""
"2058","","","","","2","html-slider-response","149","","","","1",""
"4510","human","tinapay,bado,kikapu,punguza","tinapay","f","2","html-keyboard-response","150","f","tinapay","true","",""
"1358","","","","","2","html-slider-response","151","","","","4",""
"3565","clock","kartasi,abang,mbwa,osha","mbwa","j","2","html-keyboard-response","152","j","mbwa","true","",""
"2191","","","","","2","html-slider-response","153","","","","4",""
"4608","shelf","pamahaw,bungtod,kadaot,awit","pamahaw","f","2","html-keyboard-response","154","f","pamahaw","true","",""
"2578","","","","","2","html-slider-response","155","","","","4",""
"3500","salmon","mzungu,seri,sensilyo,baharia","sensilyo","j","2","html-keyboard-response","156","j","sensilyo","true","",""
"1230","","","","","2","html-slider-response","157","","","","4",""
"3613","coffin","barua,kioo,tubag,hulma","kioo","v","2","html-keyboard-response","158","v","kioo","true","",""
"2122","","","","","2","html-slider-response","159","","","","5",""
"3432","notebook","kemia,msitu,kila,mdudu","kemia","f","2","html-keyboard-response","160","f","kemia","true","",""
"1353","","","","","2","html-slider-response","161","","","","4",""
"4143","shoulder","kelele,ndaniya,guruwe,mkuu","mkuu","n","2","html-keyboard-response","162","f","kelele","false","",""
"1986","","","","","2","html-slider-response","163","","","","2",""
"447","park","tambok,bunifu,pwani,ihalas","bunifu","v","2","html-keyboard-response","164","f","tambok","false","",""
"1518","","","","","2","html-slider-response","165","","","","2",""
"1379","number","shule,kengele,choori,mundamo","mundamo","n","2","html-keyboard-response","166","j","choori","false","",""
"2167","","","","","2","html-slider-response","167","","","","4",""
"348","apple","kisu,ukame,estante,edad","kisu","f","2","html-keyboard-response","168","j","estante","false","",""
"1549","","","","","2","html-slider-response","169","","","","4",""
"287","letter","filimbi,kifua,chuma,uhuru","kifua","v","2","html-keyboard-response","170","j","chuma","false","",""
"1916","","","","","2","html-slider-response","171","","","","4",""
"235","eel","ishara,msumari,kunywa,kabuang","msumari","v","2","html-keyboard-response","172","j","kunywa","false","",""
"1727","","","","","2","html-slider-response","173","","","","4",""
"6698","cop","bustani,jikoni,bakus,mechezo","mechezo","n","2","html-keyboard-response","174","n","mechezo","true","",""
"1506","","","","","2","html-slider-response","175","","","","4",""
"3399","wolf","kaburi,ndizi,lugha,mchuzi","lugha","j","2","html-keyboard-response","176","j","lugha","true","",""
"1539","","","","","2","html-slider-response","177","","","","5",""
"15674","squirrel","mahugaw,ukweli,kichwa,hofu","hofu","n","2","html-keyboard-response","178","n","hofu","true","",""
"1790","","","","","2","html-slider-response","179","","","","5",""
"3007","nose","gubat,sehemu,kopa,kidole","sehemu","v","2","html-keyboard-response","180","v","sehemu","true","",""
"1615","","","","","2","html-slider-response","181","","","","4",""
"6329","sock","mamba,ndoora,kimysa,mtirka","mamba","f","2","html-keyboard-response","182","f","mamba","true","",""
"1844","","","","","2","html-slider-response","183","","","","5",""
"4218","bank","kudhibi,tualya,silingan,ofisi","silingan","j","2","html-keyboard-response","184","j","silingan","true","",""
"1255","","","","","2","html-slider-response","185","","","","4",""
"2820","donkey","bloke,lalake,rombus,elfu","elfu","n","2","html-keyboard-response","186","n","elfu","true","",""
"1533","","","","","2","html-slider-response","187","","","","4",""
"192","poster","nchi,fedha,madungog,kasuko","madungog","j","2","html-keyboard-response","188","n","kasuko","false","",""
"1417","","","","","2","html-slider-response","189","","","","4",""
"218","puppet","mazishi,napulo,lamok,godoro","mazishi","f","2","html-keyboard-response","190","n","godoro","false","",""
"1336","","","","","2","html-slider-response","191","","","","4",""
"368","hill","kushoto,matumbo,kukimba,sweta","matumbo","v","2","html-keyboard-response","192","n","sweta","false","",""
"1355","","","","","2","html-slider-response","193","","","","4",""
"1528","tooth","kijiko,kabalaka,uadui,pahiyum","kabalaka","v","2","html-keyboard-response","194","f","kijiko","false","",""
"1534","","","","","2","html-slider-response","195","","","","4",""
"8257","woman","bandari,bituin,pagtabon,kovuli","pagtabon","j","2","html-keyboard-response","196","j","pagtabon","true","",""
"1446","","","","","2","html-slider-response","197","","","","4",""
"5265","wheel","punda,tawo,bafuni,baadaye","bafuni","j","2","html-keyboard-response","198","j","bafuni","true","",""
"1291","","","","","2","html-slider-response","199","","","","4",""
"3638","mother","kahawa,mbuzi,jokofu,babaye","babaye","n","2","html-keyboard-response","200","n","babaye","true","",""
"1571","","","","","2","html-slider-response","201","","","","4",""
"2633","bed","kalipay,mapintas,haraka,starehe","mapintas","v","2","html-keyboard-response","202","f","kalipay","false","",""
"1166","","","","","2","html-slider-response","203","","","","4",""
"294","key","miaka,goma,chombo,ahos","chombo","j","2","html-keyboard-response","204","f","miaka","false","",""
"1189","","","","","2","html-slider-response","205","","","","4",""
"209","page","wakala,ishiri,wimbo,skina","wimbo","j","2","html-keyboard-response","206","f","wakala","false","",""
"1297","","","","","2","html-slider-response","207","","","","4",""
"157","pants","pintal,chuki,hari,haki","haki","n","2","html-keyboard-response","208","f","pintal","false","",""
"2110","","","","","2","html-slider-response","209","","","","2",""
"4035","sun","bendi,luha,basi,uongo","basi","j","2","html-keyboard-response","210","j","basi","true","",""
"1294","","","","","2","html-slider-response","211","","","","5",""
"3784","finger","simu,moyo,sufuria,lima","moyo","v","2","html-keyboard-response","212","v","moyo","true","",""
"1845","","","","","2","html-slider-response","213","","","","5",""
"5178","shoe","nyeusi,uyoga,hatua,kama","uyoga","v","2","html-keyboard-response","214","v","uyoga","true","",""
"1623","","","","","2","html-slider-response","215","","","","5",""
"3856","giraffe","daraja,jumatu,hangyo,mahitabo","mahitabo","n","2","html-keyboard-response","216","n","mahitabo","true","",""
"1206","","","","","2","html-slider-response","217","","","","5",""
"5363","dog","lubi,washia,bahari,kalamu","bahari","j","2","html-keyboard-response","218","j","bahari","true","",""
"1207","","","","","2","html-slider-response","219","","","","4",""
"330","box","kuacha,rafiki,adui,kitande","adui","j","2","html-keyboard-response","220","j","adui","true","",""
"1892","","","","","2","html-slider-response","221","","","","1",""
"728","scissors","duga,tanuri,mtawa,suga","tanuri","v","2","html-keyboard-response","222","j","mtawa","false","",""
"1440","","","","","2","html-slider-response","223","","","","1",""
"194","cat","neyemba,baki,paghukom,akili","paghukom","j","2","html-keyboard-response","224","j","paghukom","true","",""
"1674","","","","","2","html-slider-response","225","","","","1",""
"255","basket","kumbuka,kumba,utepe,hasira","kumba","v","2","html-keyboard-response","226","j","utepe","false","",""
"1443","","","","","2","html-slider-response","227","","","","1",""
"10014","snake","pagtukod,jansa,karon,mvringo","pagtukod","f","2","html-keyboard-response","228","f","pagtukod","true","",""
"1427","","","","","2","html-slider-response","229","","","","4",""
"3015","gift","baba,nyange,pagtawag,baso","pagtawag","j","2","html-keyboard-response","230","j","pagtawag","true","",""
"1257","","","","","2","html-slider-response","231","","","","4",""
"3195","train","itik,sayari,dakika,mungu","sayari","v","2","html-keyboard-response","232","v","sayari","true","",""
"1509","","","","","2","html-slider-response","233","","","","5",""
"5790","pudding","abug,mpishi,iring,aibu","aibu","n","2","html-keyboard-response","234","j","iring","false","",""
"1458","","","","","2","html-slider-response","235","","","","2",""
"81","tomato","chupi,mvua,chupa,takatak","mvua","v","2","html-keyboard-response","236","j","chupa","false","",""
"1483","","","","","2","html-slider-response","237","","","","2",""
"172","stone","wingi,ulimwengu,mkasi,asili","wingi","f","2","html-keyboard-response","238","j","mkasi","false","",""
"1234","","","","","2","html-slider-response","239","","","","1",""
"139","hammer","napakyas,mekno,kitovu,layag","napakyas","f","2","html-keyboard-response","240","j","kitovu","false","",""
"1124","","","","","2","html-slider-response","241","","","","1",""
"155","knee","mvuke,duka,kubale,bili","duka","v","2","html-keyboard-response","242","j","kubale","false","",""
"1100","","","","","2","html-slider-response","243","","","","2",""
"140","ceiling","maua,kugita,kawaida,rayna","maua","f","2","html-keyboard-response","244","j","kawaida","false","",""
"1211","","","","","2","html-slider-response","245","","","","2",""
"4127","spoon","betri,nzuri,ngazi,pagsulod","pagsulod","n","2","html-keyboard-response","246","n","pagsulod","true","",""
"1206","","","","","2","html-slider-response","247","","","","5",""
"2412","marker","maji,mapafu,salita,atay","maji","f","2","html-keyboard-response","248","f","maji","true","",""
"1858","","","","","2","html-slider-response","249","","","","4",""
"5604","candle","gabi,geza,farasi,kupanda","geza","v","2","html-keyboard-response","250","v","geza","true","",""
"1300","","","","","2","html-slider-response","251","","","","4",""
"7283","tissue","ugomvi,lamigas,kisiwa,katika","ugomvi","f","2","html-keyboard-response","252","f","ugomvi","true","",""
"1586","","","","","2","html-slider-response","253","","","","4",""
"3826","bridge","daima,sahani,ngono,panya","sahani","v","2","html-keyboard-response","254","n","panya","false","",""
"2680","","","","","2","html-slider-response","255","","","","1",""
"805","berry","abogado,nogozi,kofia,kinywa","kofia","j","2","html-keyboard-response","256","n","kinywa","false","",""
"1339","","","","","2","html-slider-response","257","","","","2",""
"251","triangle","kihozi,bentaha,kasadpan,liog","kasadpan","j","2","html-keyboard-response","258","n","liog","false","",""
"1143","","","","","2","html-slider-response","259","","","","1",""
"177","door","tena,soko,nyota,surali","surali","n","2","html-keyboard-response","260","n","surali","true","",""
"1050","","","","","2","html-slider-response","261","","","","2",""
"5303","fish","bala,baho,buli,imani","buli","j","2","html-keyboard-response","262","j","buli","true","",""
"1042","","","","","2","html-slider-response","263","","","","4",""
"3691","curtain","mchanga,lisud,bulwawan,chubani","mchanga","f","2","html-keyboard-response","264","f","mchanga","true","",""
"1587","","","","","2","html-slider-response","265","","","","4",""
"2972","flag","ndege,mkate,trekta,kawa","trekta","j","2","html-keyboard-response","266","j","trekta","true","",""
"1778","","","","","2","html-slider-response","267","","","","5",""
"3128","boat","hamsi,pombe,kitanda,agalon","agalon","n","2","html-keyboard-response","268","n","agalon","true","",""
"1714","","","","","2","html-slider-response","269","","","","4",""
"3925","rose","singizi,paghalad,mwanake,amani","paghalad","v","2","html-keyboard-response","270","v","paghalad","true","",""
"1521","","","","","2","html-slider-response","271","","","","5",""
"3925","lamp","daub,afya,bilaska,mbolea","afya","v","2","html-keyboard-response","272","v","afya","true","",""
"2314","","","","","2","html-slider-response","273","","","","5",""
"6402","cigar","ndugu,adhabu,kuta,mlango","adhabu","v","2","html-keyboard-response","274","v","adhabu","true","",""
"2032","","","","","2","html-slider-response","275","","","","4",""
"3824","list","alizeti,kuzama,kaso,wingu","wingu","n","2","html-keyboard-response","276","v","kuzama","false","",""
"1183","","","","","2","html-slider-response","277","","","","4",""
"624","sheet","juuya,bililhon,watu,kamantis","bililhon","v","2","html-keyboard-response","278","v","bililhon","true","",""
"1452","","","","","2","html-slider-response","279","","","","1",""
"117","picture","silya,kubwa,chaki,asin","kubwa","v","2","html-keyboard-response","280","v","kubwa","true","",""
"1197","","","","","2","html-slider-response","281","","","","2",""
"331","towel","tembo,funzi,pagpalit,pito","pagpalit","j","2","html-keyboard-response","282","v","funzi","false","",""
"1035","","","","","2","html-slider-response","283","","","","1",""
"4045","window","nanga,kujenga,kweli,umaga","kweli","j","2","html-keyboard-response","284","j","kweli","true","",""
"1199","","","","","2","html-slider-response","285","","","","5",""
"19976","box","kuacha,rafiki,adui,kitande","adui","j","3","html-keyboard-response","293","j","adui","true","","4"
"3915","","","","","3","html-slider-response","294","","","","4",""
"1338","","","","","3","html-keyboard-response","295","","","","",""
"23940","pants","pintal,haki,chuki,hari","haki","v","3","html-keyboard-response","296","n","hari","false","","4"
"2450","","","","","3","html-slider-response","297","","","","5",""
"6422","","","","","3","html-keyboard-response","298","","","","",""
"48519","cup","dagat,shimoni,matumai,jeraha","matumai","j","3","html-keyboard-response","299","j","matumai","true","","4"
"2848","","","","","3","html-slider-response","300","","","","4",""
"1042","","","","","3","html-keyboard-response","301","","","","",""
"44513","triangle","kihozi,bentaha,liog,kasadpan","kasadpan","n","3","html-keyboard-response","302","n","kasadpan","true","","4"
"2535","","","","","3","html-slider-response","303","","","","5",""
"1169","","","","","3","html-keyboard-response","304","","","","",""
"10280","curtain","mchanga,lisud,bulwawan,chubani","mchanga","f","3","html-keyboard-response","305","f","mchanga","true","","4"
"1855","","","","","3","html-slider-response","306","","","","5",""
"1585","","","","","3","html-keyboard-response","307","","","","",""
"28135","clock","kartasi,abang,mbwa,osha","mbwa","j","3","html-keyboard-response","308","j","mbwa","true","","4"
"2416","","","","","3","html-slider-response","309","","","","5",""
"939","","","","","3","html-keyboard-response","310","","","","",""
"21761","mirror","sulagma,rangi,kanding,furaha","sulagma","f","3","html-keyboard-response","311","f","sulagma","true","","4"
"2497","","","","","3","html-slider-response","312","","","","5",""
"1038","","","","","3","html-keyboard-response","313","","","","",""
"28996","coffin","barua,tubag,kioo,hulma","kioo","j","3","html-keyboard-response","314","j","kioo","true","","1"
"1889","","","","","3","html-slider-response","315","","","","5",""
"1236","","","","","3","html-keyboard-response","316","","","","",""
"58527","magazine","gundi,kiti,mchawi,bahandi","kiti","v","3","html-keyboard-response","317","v","kiti","true","","4"
"5578","","","","","3","html-slider-response","318","","","","4",""
"776","","","","","3","html-keyboard-response","319","","","","",""
"7196","column","pundok,dila,pala,ufagio","ufagio","n","3","html-keyboard-response","320","n","ufagio","true","","1"
"3886","","","","","3","html-slider-response","321","","","","4",""
"2673","","","","","3","html-keyboard-response","322","","","","",""
"23720","number","shule,kengele,mundamo,choori","mundamo","j","3","html-keyboard-response","323","j","mundamo","true","","4"
"2857","","","","","3","html-slider-response","324","","","","5",""
"1198","","","","","3","html-keyboard-response","325","","","","",""
"34458","rose","singizi,mwanake,paghalad,amani","paghalad","j","3","html-keyboard-response","326","j","paghalad","true","","4"
"4370","","","","","3","html-slider-response","327","","","","4",""
"2825","","","","","3","html-keyboard-response","328","","","","",""
"30199","eel","msumari,ishara,kunywa,kabuang","msumari","f","3","html-keyboard-response","329","f","msumari","true","","4"
"2977","","","","","3","html-slider-response","330","","","","4",""
"1285","","","","","3","html-keyboard-response","331","","","","",""
"20311","gift","pagtawag,baba,nyange,baso","pagtawag","f","3","html-keyboard-response","332","f","pagtawag","true","","4"
"3050","","","","","3","html-slider-response","333","","","","4",""
"1471","","","","","3","html-keyboard-response","334","","","","",""
"34974","apple","ukame,estante,edad,kisu","kisu","n","3","html-keyboard-response","335","n","kisu","true","","1"
"2670","","","","","3","html-slider-response","336","","","","4",""
"2833","","","","","3","html-keyboard-response","337","","","","",""
"1726","wheel","punda,tawo,baadaye,bafuni","bafuni","n","3","html-keyboard-response","338","n","bafuni","true","","1"
"2277","","","","","3","html-slider-response","339","","","","5",""
"1116","","","","","3","html-keyboard-response","340","","","","",""
"42571","knee","mvuke,duka,kubale,bili","duka","v","3","html-keyboard-response","341","v","duka","true","","4"
"2374","","","","","3","html-slider-response","342","","","","5",""
"1128","","","","","3","html-keyboard-response","343","","","","",""
"1543","basket","kumba,kumbuka,utepe,hasira","kumba","f","3","html-keyboard-response","344","f","kumba","true","","1"
"2025","","","","","3","html-slider-response","345","","","","4",""
"1097","","","","","3","html-keyboard-response","346","","","","",""
"138892","park","bunifu,tambok,pwani,ihalas","bunifu","f","3","html-keyboard-response","347","f","bunifu","true","","4"
"5438","","","","","3","html-slider-response","348","","","","4",""
"1117","","","","","3","html-keyboard-response","349","","","","",""
"16752","finger","simu,sufuria,lima,moyo","moyo","n","3","html-keyboard-response","350","n","moyo","true","","4"
"2038","","","","","3","html-slider-response","351","","","","5",""
"1863","","","","","3","html-keyboard-response","352","","","","",""
"11053","boat","hamsi,agalon,pombe,kitanda","agalon","v","3","html-keyboard-response","353","v","agalon","true","","4"
"2867","","","","","3","html-slider-response","354","","","","4",""
"1087","","","","","3","html-keyboard-response","355","","","","",""
"30707","hill","kushoto,matumbo,kukimba,sweta","matumbo","v","3","html-keyboard-response","356","v","matumbo","true","","4"
"2619","","","","","3","html-slider-response","357","","","","5",""
"1276","","","","","3","html-keyboard-response","358","","","","",""
"24458","train","itik,dakika,sayari,mungu","sayari","j","3","html-keyboard-response","359","j","sayari","true","","4"
"1917","","","","","3","html-slider-response","360","","","","5",""
"1112","","","","","3","html-keyboard-response","361","","","","",""
"11598","wolf","lugha,kaburi,ndizi,mchuzi","lugha","f","3","html-keyboard-response","362","f","lugha","true","","4"
"2817","","","","","3","html-slider-response","363","","","","5",""
"1242","","","","","3","html-keyboard-response","364","","","","",""
"36970","snake","jansa,pagtukod,karon,mvringo","pagtukod","v","3","html-keyboard-response","365","v","pagtukod","true","","4"
"2010","","","","","3","html-slider-response","366","","","","5",""
"1091","","","","","3","html-keyboard-response","367","","","","",""
"40239","tooth","kijiko,uadui,kabalaka,pahiyum","kabalaka","j","3","html-keyboard-response","368","j","kabalaka","true","","4"
"2131","","","","","3","html-slider-response","369","","","","5",""
"1186","","","","","3","html-keyboard-response","370","","","","",""
"14920","notebook","msitu,kila,kemia,mdudu","kemia","j","3","html-keyboard-response","371","j","kemia","true","","4"
"2875","","","","","3","html-slider-response","372","","","","5",""
"1234","","","","","3","html-keyboard-response","373","","","","",""
"53041","flag","trekta,ndege,mkate,kawa","trekta","f","3","html-keyboard-response","374","f","trekta","true","","4"
"4438","","","","","3","html-slider-response","375","","","","5",""
"1165","","","","","3","html-keyboard-response","376","","","","",""
"9927","squirrel","hofu,mahugaw,ukweli,kichwa","hofu","f","3","html-keyboard-response","377","f","hofu","true","","4"
"2086","","","","","3","html-slider-response","378","","","","5",""
"1139","","","","","3","html-keyboard-response","379","","","","",""
"14678","door","tena,surali,soko,nyota","surali","v","3","html-keyboard-response","380","v","surali","true","","4"
"2574","","","","","3","html-slider-response","381","","","","5",""
"968","","","","","3","html-keyboard-response","382","","","","",""
"37275","salmon","mzungu,seri,baharia,sensilyo","sensilyo","n","3","html-keyboard-response","383","n","sensilyo","true","","4"
"2744","","","","","3","html-slider-response","384","","","","5",""
"1396","","","","","3","html-keyboard-response","385","","","","",""
"4346","shoulder","kelele,mkuu,ndaniya,guruwe","mkuu","v","3","html-keyboard-response","386","v","mkuu","true","","4"
"2055","","","","","3","html-slider-response","387","","","","5",""
"901","","","","","3","html-keyboard-response","388","","","","",""
"59776","lamp","daub,bilaska,afya,mbolea","afya","j","3","html-keyboard-response","389","j","afya","true","","4"
"1972","","","","","3","html-slider-response","390","","","","5",""
"1217","","","","","3","html-keyboard-response","391","","","","",""
"1890","shelf","bungtod,kadaot,pamahaw,awit","pamahaw","j","3","html-keyboard-response","392","j","pamahaw","true","","1"
"2723","","","","","3","html-slider-response","393","","","","4",""
"915","","","","","3","html-keyboard-response","394","","","","",""
"47379","human","tinapay,bado,kikapu,punguza","tinapay","f","3","html-keyboard-response","395","f","tinapay","true","","4"
"2679","","","","","3","html-slider-response","396","","","","5",""
"1184","","","","","3","html-keyboard-response","397","","","","",""
"59825","towel","tembo,funzi,pagpalit,pito","pagpalit","j","3","html-keyboard-response","398","j","pagpalit","true","","4"
"2706","","","","","3","html-slider-response","399","","","","5",""
"1226","","","","","3","html-keyboard-response","400","","","","",""
"16947","cat","neyemba,paghukom,baki,akili","paghukom","v","3","html-keyboard-response","401","v","paghukom","true","","4"
"2900","","","","","3","html-slider-response","402","","","","5",""
"1281","","","","","3","html-keyboard-response","403","","","","",""
"55849","spider","kamwe,bunyag,mkboa,atop","kamwe","f","3","html-keyboard-response","404","f","kamwe","true","","4"
"2072","","","","","3","html-slider-response","405","","","","5",""
"1296","","","","","3","html-keyboard-response","406","","","","",""
"42011","window","nanga,kweli,kujenga,umaga","kweli","v","3","html-keyboard-response","407","v","kweli","true","","4"
"1823","","","","","3","html-slider-response","408","","","","5",""
"1131","","","","","3","html-keyboard-response","409","","","","",""
"1935","woman","bandari,bituin,pagtabon,kovuli","pagtabon","j","3","html-keyboard-response","410","j","pagtabon","true","","1"
"2537","","","","","3","html-slider-response","411","","","","5",""
"883","","","","","3","html-keyboard-response","412","","","","",""
"55445","giraffe","daraja,jumatu,hangyo,mahitabo","mahitabo","n","3","html-keyboard-response","413","n","mahitabo","true","","4"
"5417","","","","","3","html-slider-response","414","","","","5",""
"861","","","","","3","html-keyboard-response","415","","","","",""
"14566","elephant","petye,pagduol,suka,kito","kito","n","3","html-keyboard-response","416","n","kito","true","","4"
"5563","","","","","3","html-slider-response","417","","","","4",""
"1050","","","","","3","html-keyboard-response","418","","","","",""
"13589","cave","ganti,kesho,maisha,nyundo","kesho","v","3","html-keyboard-response","419","v","kesho","true","","4"
"5071","","","","","3","html-slider-response","420","","","","5",""
"1083","","","","","3","html-keyboard-response","421","","","","",""
"5721","bread","kaili,dari,dizeli,bugas","dari","v","3","html-keyboard-response","422","v","dari","true","","4"
"3909","","","","","3","html-slider-response","423","","","","5",""
"1072","","","","","3","html-keyboard-response","424","","","","",""
"37518","stone","ulimwengu,mkasi,wingi,asili","wingi","j","3","html-keyboard-response","425","j","wingi","true","","4"
"4864","","","","","3","html-slider-response","426","","","","5",""
"1034","","","","","3","html-keyboard-response","427","","","","",""
"19598","donkey","bloke,lalake,elfu,rombus","elfu","j","3","html-keyboard-response","428","j","elfu","true","","4"
"4604","","","","","3","html-slider-response","429","","","","5",""
"1101","","","","","3","html-keyboard-response","430","","","","",""
"60988","bridge","daima,ngono,panya,sahani","sahani","n","3","html-keyboard-response","431","n","sahani","true","","4"
"3146","","","","","3","html-slider-response","432","","","","4",""
"946","","","","","3","html-keyboard-response","433","","","","",""
"5149","bonfire","goti,mwezi,mfuko,kusanya","goti","f","3","html-keyboard-response","434","f","goti","true","","4"
"4576","","","","","3","html-slider-response","435","","","","5",""
"1166","","","","","3","html-keyboard-response","436","","","","",""
"19810","book","kuhesa,picha,mara,mali","mali","n","3","html-keyboard-response","437","n","mali","true","","4"
"5257","","","","","3","html-slider-response","438","","","","5",""
"3573","","","","","3","html-keyboard-response","439","","","","",""
"48519","fish","bala,buli,baho,imani","buli","v","3","html-keyboard-response","440","v","buli","true","","4"
"5811","","","","","3","html-slider-response","441","","","","4",""
"1037","","","","","3","html-keyboard-response","442","","","","",""
"17352","spoon","betri,nzuri,ngazi,pagsulod","pagsulod","n","3","html-keyboard-response","443","n","pagsulod","true","","4"
"3526","","","","","3","html-slider-response","444","","","","5",""
"994","","","","","3","html-keyboard-response","445","","","","",""
"9176","scissors","tanuri,duga,mtawa,suga","tanuri","f","3","html-keyboard-response","446","f","tanuri","true","","4"
"3503","","","","","3","html-slider-response","447","","","","4",""
"939","","","","","3","html-keyboard-response","448","","","","",""
"27033","page","wakala,wimbo,ishiri,skina","wimbo","v","3","html-keyboard-response","449","v","wimbo","true","","4"
"2661","","","","","3","html-slider-response","450","","","","5",""
"1201","","","","","3","html-keyboard-response","451","","","","",""
"1893","nose","gubat,kopa,sehemu,kidole","sehemu","j","3","html-keyboard-response","452","j","sehemu","true","","1"
"4156","","","","","3","html-slider-response","453","","","","5",""
"1002","","","","","3","html-keyboard-response","454","","","","",""
"22802","ceiling","kugita,maua,kawaida,rayna","maua","v","3","html-keyboard-response","455","v","maua","true","","4"
"2498","","","","","3","html-slider-response","456","","","","5",""
"781","","","","","3","html-keyboard-response","457","","","","",""
"58535","bucket","kiatu,baga,ijayo,init","kiatu","f","3","html-keyboard-response","458","f","kiatu","true","","4"
"2956","","","","","3","html-slider-response","459","","","","5",""
"1134","","","","","3","html-keyboard-response","460","","","","",""
"1864","berry","abogado,nogozi,kofia,kinywa","kofia","j","3","html-keyboard-response","461","j","kofia","true","","1"
"2422","","","","","3","html-slider-response","462","","","","4",""
"888","","","","","3","html-keyboard-response","463","","","","",""
"1879","mother","kahawa,mbuzi,babaye,jokofu","babaye","j","3","html-keyboard-response","464","j","babaye","true","","1"
"2350","","","","","3","html-slider-response","465","","","","4",""
"1051","","","","","3","html-keyboard-response","466","","","","",""
"9247","mosquito","martilyo,isda,taras,gutom","martilyo","f","3","html-keyboard-response","467","f","martilyo","true","","4"
"3091","","","","","3","html-slider-response","468","","","","4",""
"649","","","","","3","html-keyboard-response","469","","","","",""
"12263","perfume","bino,sungura,ndogo,katuyoan","katuyoan","n","3","html-keyboard-response","470","n","katuyoan","true","","4"
"5011","","","","","3","html-slider-response","471","","","","5",""
"1024","","","","","3","html-keyboard-response","472","","","","",""
"87296","sheet","juuya,bililhon,watu,kamantis","bililhon","v","3","html-keyboard-response","473","v","bililhon","true","","4"
"3631","","","","","3","html-slider-response","474","","","","5",""
"917","","","","","3","html-keyboard-response","475","","","","",""
"1626","puppet","napulo,mazishi,lamok,godoro","mazishi","v","3","html-keyboard-response","476","v","mazishi","true","","1"
"4068","","","","","3","html-slider-response","477","","","","5",""
"1008","","","","","3","html-keyboard-response","478","","","","",""
"33662","poster","nchi,fedha,kasuko,madungog","madungog","n","3","html-keyboard-response","479","n","madungog","true","","4"
"4328","","","","","3","html-slider-response","480","","","","5",""
"1129","","","","","3","html-keyboard-response","481","","","","",""
"59931","music","baiski,mraba,mageho,tumbo","baiski","f","3","html-keyboard-response","482","f","baiski","true","","4"
"3041","","","","","3","html-slider-response","483","","","","5",""
"1214","","","","","3","html-keyboard-response","484","","","","",""
"25036","key","miaka,goma,ahos,chombo","chombo","n","3","html-keyboard-response","485","n","chombo","true","","4"
"2608","","","","","3","html-slider-response","486","","","","5",""
"1205","","","","","3","html-keyboard-response","487","","","","",""
"28002","sock","ndoora,mamba,kimysa,mtirka","mamba","v","3","html-keyboard-response","488","v","mamba","true","","4"
"2353","","","","","3","html-slider-response","489","","","","5",""
"1068","","","","","3","html-keyboard-response","490","","","","",""
"41803","marker","maji,mapafu,salita,atay","maji","f","3","html-keyboard-response","491","f","maji","true","","4"
"2019","","","","","3","html-slider-response","492","","","","4",""
"1028","","","","","3","html-keyboard-response","493","","","","",""
"16615","office","hazini,yatima,kuna,leso","leso","n","3","html-keyboard-response","494","n","leso","true","","4"
"1944","","","","","3","html-slider-response","495","","","","5",""
"1116","","","","","3","html-keyboard-response","496","","","","",""
"36798","shoe","uyoga,nyeusi,hatua,kama","uyoga","f","3","html-keyboard-response","497","f","uyoga","true","","4"
"2367","","","","","3","html-slider-response","498","","","","5",""
"1055","","","","","3","html-keyboard-response","499","","","","",""
"43489","cop","bustani,mechezo,jikoni,bakus","mechezo","v","3","html-keyboard-response","500","v","mechezo","true","","4"
"2660","","","","","3","html-slider-response","501","","","","5",""
"812","","","","","3","html-keyboard-response","502","","","","",""
"29336","bank","kudhibi,tualya,ofisi,silingan","silingan","n","3","html-keyboard-response","503","n","silingan","true","","4"
"1780","","","","","3","html-slider-response","504","","","","5",""
"1074","","","","","3","html-keyboard-response","505","","","","",""
"2059","letter","filimbi,chuma,uhuru,kifua","kifua","n","3","html-keyboard-response","506","n","kifua","true","","1"
"1948","","","","","3","html-slider-response","507","","","","4",""
"703","","","","","3","html-keyboard-response","508","","","","",""
"1565","dog","lubi,washia,kalamu,bahari","bahari","n","3","html-keyboard-response","509","n","bahari","true","","1"
"2072","","","","","3","html-slider-response","510","","","","4",""
"665","","","","","3","html-keyboard-response","511","","","","",""
"12810","shop","nopya,kerida,samaki,ndezu","samaki","j","3","html-keyboard-response","512","j","samaki","true","","4"
"1963","","","","","3","html-slider-response","513","","","","5",""
"673","","","","","3","html-keyboard-response","514","","","","",""
"5196","flower","bega,tamasha,lobo,usiku","bega","f","3","html-keyboard-response","515","f","bega","true","","4"
"1790","","","","","3","html-slider-response","516","","","","5",""
"753","","","","","3","html-keyboard-response","517","","","","",""
"1727","cigar","ndugu,kuta,adhabu,mlango","adhabu","j","3","html-keyboard-response","518","j","adhabu","true","","1"
"1977","","","","","3","html-slider-response","519","","","","4",""
"655","","","","","3","html-keyboard-response","520","","","","",""
"36696","hammer","mekno,kitovu,layag,napakyas","napakyas","n","3","html-keyboard-response","521","n","napakyas","true","","4"
"2373","","","","","3","html-slider-response","522","","","","4",""
"1080","","","","","3","html-keyboard-response","523","","","","",""
"50584","fork","baboy,paghago,gorisi,mgonjwa","mgonjwa","n","3","html-keyboard-response","524","n","mgonjwa","true","","4"
"2074","","","","","3","html-slider-response","525","","","","5",""
"982","","","","","3","html-keyboard-response","526","","","","",""
"1952","sun","bendi,luha,basi,uongo","basi","j","3","html-keyboard-response","527","j","basi","true","","1"
"1989","","","","","3","html-slider-response","528","","","","4",""
"775","","","","","3","html-keyboard-response","529","","","","",""
"15487","ladder","mashua,mwanga,pangalan,kamba","pangalan","j","3","html-keyboard-response","530","j","pangalan","true","","4"
"2000","","","","","3","html-slider-response","531","","","","4",""
"1231","","","","","3","html-keyboard-response","532","","","","",""
"1647","banana","kasamok,hagdan,kazi,twai","kazi","j","3","html-keyboard-response","533","j","kazi","true","","1"
"4844","","","","","3","html-slider-response","534","","","","4",""
"1624","","","","","3","html-keyboard-response","535","","","","",""
"18024","pudding","abug,mpishi,iring,aibu","aibu","n","3","html-keyboard-response","536","n","aibu","true","","4"
"2280","","","","","3","html-slider-response","537","","","","5",""
"1494","","","","","3","html-keyboard-response","538","","","","",""
"19217","body","tindashan,nyundu,jibini,kununa","tindashan","f","3","html-keyboard-response","539","f","tindashan","true","","4"
"3171","","","","","3","html-slider-response","540","","","","5",""
"1059","","","","","3","html-keyboard-response","541","","","","",""
"31477","bed","kalipay,haraka,starehe,mapintas","mapintas","n","3","html-keyboard-response","542","n","mapintas","true","","4"
"2362","","","","","3","html-slider-response","543","","","","4",""
"1016","","","","","3","html-keyboard-response","544","","","","",""
"17883","tissue","lamigas,kisiwa,ugomvi,katika","ugomvi","j","3","html-keyboard-response","545","j","ugomvi","true","","4"
"2437","","","","","3","html-slider-response","546","","","","4",""
"1171","","","","","3","html-keyboard-response","547","","","","",""
"4437","candle","geza,gabi,farasi,kupanda","geza","f","3","html-keyboard-response","548","f","geza","true","","4"
"2188","","","","","3","html-slider-response","549","","","","5",""
"951","","","","","3","html-keyboard-response","550","","","","",""
"1723","tomato","chupi,chupa,mvua,takatak","mvua","j","3","html-keyboard-response","551","j","mvua","true","","1"
"1847","","","","","3","html-slider-response","552","","","","4",""
"753","","","","","3","html-keyboard-response","553","","","","",""
"57918","list","alizeti,kuzama,kaso,wingu","wingu","n","3","html-keyboard-response","554","n","wingu","true","","4"
"1993","","","","","3","html-slider-response","555","","","","5",""
"795","","","","","3","html-keyboard-response","556","","","","",""
"6549","olive","jiwe,bata,siagi,welder","jiwe","f","3","html-keyboard-response","557","f","jiwe","true","","4"
"2100","","","","","3","html-slider-response","558","","","","4",""
"2888","","","","","3","html-keyboard-response","559","","","","",""
"1480","picture","kubwa,silya,chaki,asin","kubwa","f","3","html-keyboard-response","560","f","kubwa","true","","1"
"2178","","","","","3","html-slider-response","561","","","","4",""
"864","","","","","3","html-keyboard-response","562","","","","",""
"30475","page","wakala,wimbo,ishiri,skina","wimbo","v","4","html-keyboard-response","888","v","wimbo","true","",""
"2007","","","","","4","html-slider-response","889","","","","5",""
"2320","sheet","bililhon,juuya,watu,kamantis","bililhon","f","4","html-keyboard-response","890","v","juuya","false","",""
"2580","","","","","4","html-slider-response","891","","","","5",""
"1417","ladder","pangalan,mashua,mwanga,kamba","pangalan","f","4","html-keyboard-response","892","j","mwanga","false","",""
"1973","","","","","4","html-slider-response","893","","","","4",""
"481","door","tena,surali,soko,nyota","surali","v","4","html-keyboard-response","894","j","soko","false","",""
"1337","","","","","4","html-slider-response","895","","","","4",""
"784","spider","bunyag,mkboa,atop,kamwe","kamwe","n","4","html-keyboard-response","896","v","mkboa","false","",""
"4091","","","","","4","html-slider-response","897","","","","4",""
"155","picture","silya,kubwa,chaki,asin","kubwa","v","4","html-keyboard-response","898","v","kubwa","true","",""
"2257","","","","","4","html-slider-response","899","","","","4",""
"7654","boat","hamsi,agalon,pombe,kitanda","agalon","v","4","html-keyboard-response","900","f","hamsi","false","",""
"1454","","","","","4","html-slider-response","901","","","","4",""
"2101","donkey","elfu,bloke,lalake,rombus","elfu","f","4","html-keyboard-response","902","f","elfu","true","",""
"1263","","","","","4","html-slider-response","903","","","","4",""
"5798","book","kuhesa,picha,mali,mara","mali","j","4","html-keyboard-response","904","j","mali","true","",""
"1929","","","","","4","html-slider-response","905","","","","5",""
"3368","cup","dagat,shimoni,jeraha,matumai","matumai","n","4","html-keyboard-response","906","j","jeraha","false","",""
"1668","","","","","4","html-slider-response","907","","","","2",""
"6367","sun","bendi,luha,uongo,basi","basi","n","4","html-keyboard-response","908","v","luha","false","",""
"2116","","","","","4","html-slider-response","909","","","","2",""
"8646","pudding","abug,mpishi,aibu,iring","aibu","j","4","html-keyboard-response","910","j","aibu","true","",""
"2094","","","","","4","html-slider-response","911","","","","4",""
"1733","human","tinapay,bado,kikapu,punguza","tinapay","f","4","html-keyboard-response","912","f","tinapay","true","",""
"2458","","","","","4","html-slider-response","913","","","","2",""
"9826","squirrel","mahugaw,ukweli,hofu,kichwa","hofu","j","4","html-keyboard-response","914","j","hofu","true","",""
"1402","","","","","4","html-slider-response","915","","","","4",""
"10400","park","tambok,bunifu,pwani,ihalas","bunifu","v","4","html-keyboard-response","916","v","bunifu","true","",""
"2053","","","","","4","html-slider-response","917","","","","5",""
"2051","poster","nchi,madungog,fedha,kasuko","madungog","v","4","html-keyboard-response","918","f","nchi","false","",""
"1227","","","","","4","html-slider-response","919","","","","5",""
"3246","wolf","kaburi,lugha,ndizi,mchuzi","lugha","v","4","html-keyboard-response","920","v","lugha","true","",""
"1462","","","","","4","html-slider-response","921","","","","5",""
"4201","cat","neyemba,baki,akili,paghukom","paghukom","n","4","html-keyboard-response","922","n","paghukom","true","",""
"1247","","","","","4","html-slider-response","923","","","","5",""
"1215","fish","bala,baho,imani,buli","buli","n","4","html-keyboard-response","924","n","buli","true","",""
"4796","","","","","4","html-slider-response","925","","","","4",""
"886","tooth","kijiko,uadui,pahiyum,kabalaka","kabalaka","n","4","html-keyboard-response","926","v","uadui","false","",""
"1450","","","","","4","html-slider-response","927","","","","4",""
"1320","cave","kesho,ganti,maisha,nyundo","kesho","f","4","html-keyboard-response","928","f","kesho","true","",""
"1414","","","","","4","html-slider-response","929","","","","2",""
"2956","lamp","daub,afya,bilaska,mbolea","afya","v","4","html-keyboard-response","930","j","bilaska","false","",""
"1585","","","","","4","html-slider-response","931","","","","5",""
"4157","banana","kasamok,hagdan,twai,kazi","kazi","n","4","html-keyboard-response","932","j","twai","false","",""
"1337","","","","","4","html-slider-response","933","","","","5",""
"3628","bonfire","mwezi,mfuko,kusanya,goti","goti","n","4","html-keyboard-response","934","n","goti","true","",""
"1426","","","","","4","html-slider-response","935","","","","4",""
"2622","cop","bustani,jikoni,mechezo,bakus","mechezo","j","4","html-keyboard-response","936","n","bakus","false","",""
"2097","","","","","4","html-slider-response","937","","","","4",""
"2552","marker","mapafu,maji,salita,atay","maji","v","4","html-keyboard-response","938","j","salita","false","",""
"2028","","","","","4","html-slider-response","939","","","","4",""
"855","window","nanga,kujenga,kweli,umaga","kweli","j","4","html-keyboard-response","940","v","kujenga","false","",""
"3192","","","","","4","html-slider-response","941","","","","2",""
"7592","body","nyundu,jibini,tindashan,kununa","tindashan","j","4","html-keyboard-response","942","j","tindashan","true","",""
"1472","","","","","4","html-slider-response","943","","","","5",""
"2140","apple","ukame,kisu,estante,edad","kisu","v","4","html-keyboard-response","944","j","estante","false","",""
"1256","","","","","4","html-slider-response","945","","","","5",""
"1717","salmon","sensilyo,mzungu,seri,baharia","sensilyo","f","4","html-keyboard-response","946","n","baharia","false","",""
"2160","","","","","4","html-slider-response","947","","","","2",""
"1356","bed","kalipay,mapintas,haraka,starehe","mapintas","v","4","html-keyboard-response","948","v","mapintas","true","",""
"1407","","","","","4","html-slider-response","949","","","","4",""
"2193","berry","abogado,kofia,nogozi,kinywa","kofia","v","4","html-keyboard-response","950","n","kinywa","false","",""
"1929","","","","","4","html-slider-response","951","","","","2",""
"8950","mirror","rangi,sulagma,kanding,furaha","sulagma","v","4","html-keyboard-response","952","v","sulagma","true","",""
"1488","","","","","4","html-slider-response","953","","","","4",""
"3894","flag","ndege,mkate,kawa,trekta","trekta","n","4","html-keyboard-response","954","v","mkate","false","",""
"2431","","","","","4","html-slider-response","955","","","","2",""
"3192","shoulder","kelele,ndaniya,guruwe,mkuu","mkuu","n","4","html-keyboard-response","956","n","mkuu","true","",""
"1460","","","","","4","html-slider-response","957","","","","5",""
"2033","tissue","lamigas,kisiwa,katika,ugomvi","ugomvi","n","4","html-keyboard-response","958","v","kisiwa","false","",""
"1309","","","","","4","html-slider-response","959","","","","4",""
"4412","notebook","msitu,kila,mdudu,kemia","kemia","n","4","html-keyboard-response","960","f","msitu","false","",""
"1903","","","","","4","html-slider-response","961","","","","2",""
"1657","snake","jansa,karon,pagtukod,mvringo","pagtukod","j","4","html-keyboard-response","962","f","jansa","false","",""
"2121","","","","","4","html-slider-response","963","","","","2",""
"1780","finger","simu,moyo,sufuria,lima","moyo","v","4","html-keyboard-response","964","n","lima","false","",""
"1129","","","","","4","html-slider-response","965","","","","4",""
"2547","basket","kumbuka,utepe,hasira,kumba","kumba","n","4","html-keyboard-response","966","v","utepe","false","",""
"1463","","","","","4","html-slider-response","967","","","","2",""
"5304","curtain","mchanga,lisud,bulwawan,chubani","mchanga","f","4","html-keyboard-response","968","f","mchanga","true","",""
"1636","","","","","4","html-slider-response","969","","","","2",""
"1693","perfume","bino,sungura,katuyoan,ndogo","katuyoan","j","4","html-keyboard-response","970","f","bino","false","",""
"1351","","","","","4","html-slider-response","971","","","","4",""
"1540","key","miaka,goma,chombo,ahos","chombo","j","4","html-keyboard-response","972","n","ahos","false","",""
"1427","","","","","4","html-slider-response","973","","","","4",""
"1745","olive","bata,siagi,jiwe,welder","jiwe","j","4","html-keyboard-response","974","n","welder","false","",""
"1251","","","","","4","html-slider-response","975","","","","4",""
"3662","rose","singizi,paghalad,mwanake,amani","paghalad","v","4","html-keyboard-response","976","j","mwanake","false","",""
"2083","","","","","4","html-slider-response","977","","","","2",""
"1019","bridge","daima,sahani,ngono,panya","sahani","v","4","html-keyboard-response","978","v","sahani","true","",""
"1774","","","","","4","html-slider-response","979","","","","4",""
"4113","hill","kushoto,kukimba,sweta,matumbo","matumbo","n","4","html-keyboard-response","980","j","sweta","false","",""
"1656","","","","","4","html-slider-response","981","","","","4",""
"1874","letter","filimbi,kifua,chuma,uhuru","kifua","v","4","html-keyboard-response","982","v","kifua","true","",""
"1762","","","","","4","html-slider-response","983","","","","2",""
"1373","sock","ndoora,kimysa,mtirka,mamba","mamba","n","4","html-keyboard-response","984","v","kimysa","false","",""
"3472","","","","","4","html-slider-response","985","","","","2",""
"1262","fork","mgonjwa,baboy,paghago,gorisi","mgonjwa","f","4","html-keyboard-response","986","j","paghago","false","",""
"1762","","","","","4","html-slider-response","987","","","","4",""
"2059","box","kuacha,rafiki,kitande,adui","adui","n","4","html-keyboard-response","988","n","adui","true","",""
"2201","","","","","4","html-slider-response","989","","","","2",""
"1888","gift","baba,nyange,baso,pagtawag","pagtawag","n","4","html-keyboard-response","990","j","baso","false","",""
"2691","","","","","4","html-slider-response","991","","","","2",""
"7740","bucket","baga,kiatu,ijayo,init","kiatu","v","4","html-keyboard-response","992","f","baga","false","",""
"1622","","","","","4","html-slider-response","993","","","","2",""
"1944","shop","nopya,samaki,kerida,ndezu","samaki","v","4","html-keyboard-response","994","v","samaki","true","",""
"1866","","","","","4","html-slider-response","995","","","","4",""
"3142","puppet","mazishi,napulo,lamok,godoro","mazishi","f","4","html-keyboard-response","996","j","lamok","false","",""
"1374","","","","","4","html-slider-response","997","","","","4",""
"1430","nose","gubat,kopa,sehemu,kidole","sehemu","j","4","html-keyboard-response","998","f","gubat","false","",""
"1313","","","","","4","html-slider-response","999","","","","2",""
"1494","music","baiski,mraba,mageho,tumbo","baiski","f","4","html-keyboard-response","1000","v","mraba","false","",""
"2412","","","","","4","html-slider-response","1001","","","","4",""
"580","dog","lubi,bahari,washia,kalamu","bahari","v","4","html-keyboard-response","1002","v","bahari","true","",""
"1225","","","","","4","html-slider-response","1003","","","","4",""
"6317","eel","ishara,msumari,kunywa,kabuang","msumari","v","4","html-keyboard-response","1004","v","msumari","true","",""
"1384","","","","","4","html-slider-response","1005","","","","4",""
"1818","number","shule,kengele,choori,mundamo","mundamo","n","4","html-keyboard-response","1006","f","shule","false","",""
"2164","","","","","4","html-slider-response","1007","","","","2",""
"1258","tomato","chupi,mvua,chupa,takatak","mvua","v","4","html-keyboard-response","1008","f","chupi","false","",""
"1788","","","","","4","html-slider-response","1009","","","","2",""
"532","coffin","barua,tubag,hulma,kioo","kioo","n","4","html-keyboard-response","1010","f","barua","false","",""
"2552","","","","","4","html-slider-response","1011","","","","2",""
"8279","knee","mvuke,duka,kubale,bili","duka","v","4","html-keyboard-response","1012","j","kubale","false","",""
"1926","","","","","4","html-slider-response","1013","","","","4",""
"6582","woman","pagtabon,bandari,bituin,kovuli","pagtabon","f","4","html-keyboard-response","1014","f","pagtabon","true","",""
"1816","","","","","4","html-slider-response","1015","","","","4",""
"2237","stone","wingi,ulimwengu,mkasi,asili","wingi","f","4","html-keyboard-response","1016","n","asili","false","",""
"2593","","","","","4","html-slider-response","1017","","","","2",""
"3501","bread","kaili,dizeli,bugas,dari","dari","n","4","html-keyboard-response","1018","f","kaili","false","",""
"1707","","","","","4","html-slider-response","1019","","","","4",""
"1792","triangle","kasadpan,kihozi,bentaha,liog","kasadpan","f","4","html-keyboard-response","1020","v","kihozi","false","",""
"2424","","","","","4","html-slider-response","1021","","","","2",""
"2138","scissors","duga,mtawa,tanuri,suga","tanuri","j","4","html-keyboard-response","1022","f","duga","false","",""
"1778","","","","","4","html-slider-response","1023","","","","2",""
"5521","giraffe","daraja,mahitabo,jumatu,hangyo","mahitabo","v","4","html-keyboard-response","1024","n","hangyo","false","",""
"1413","","","","","4","html-slider-response","1025","","","","4",""
"1204","flower","tamasha,bega,lobo,usiku","bega","v","4","html-keyboard-response","1026","n","usiku","false","",""
"1751","","","","","4","html-slider-response","1027","","","","4",""
"4155","candle","gabi,farasi,geza,kupanda","geza","j","4","html-keyboard-response","1028","j","geza","true","",""
"2091","","","","","4","html-slider-response","1029","","","","4",""
"4008","mother","kahawa,mbuzi,jokofu,babaye","babaye","n","4","html-keyboard-response","1030","j","jokofu","false","",""
"2001","","","","","4","html-slider-response","1031","","","","5",""
"1353","towel","pagpalit,tembo,funzi,pito","pagpalit","f","4","html-keyboard-response","1032","f","pagpalit","true","",""
"1629","","","","","4","html-slider-response","1033","","","","2",""
"1121","elephant","petye,kito,pagduol,suka","kito","v","4","html-keyboard-response","1034","f","petye","false","",""
"1786","","","","","4","html-slider-response","1035","","","","2",""
"6920","shelf","pamahaw,bungtod,kadaot,awit","pamahaw","f","4","html-keyboard-response","1036","v","bungtod","false","",""
"2161","","","","","4","html-slider-response","1037","","","","2",""
"14995","mosquito","isda,martilyo,taras,gutom","martilyo","v","4","html-keyboard-response","1038","v","martilyo","true","",""
"1779","","","","","4","html-slider-response","1039","","","","5",""
"17770","column","pundok,dila,pala,ufagio","ufagio","n","4","html-keyboard-response","1040","n","ufagio","true","",""
"1707","","","","","4","html-slider-response","1041","","","","5",""
"1810","pants","haki,pintal,chuki,hari","haki","f","4","html-keyboard-response","1042","f","haki","true","",""
"3463","","","","","4","html-slider-response","1043","","","","2",""
"190","list","wingu,alizeti,kuzama,kaso","wingu","f","4","html-keyboard-response","1044","f","wingu","true","",""
"1927","","","","","4","html-slider-response","1045","","","","2",""
"2374","bank","kudhibi,silingan,tualya,ofisi","silingan","v","4","html-keyboard-response","1046","j","tualya","false","",""
"2198","","","","","4","html-slider-response","1047","","","","4",""
"1006","clock","kartasi,abang,osha,mbwa","mbwa","n","4","html-keyboard-response","1048","f","kartasi","false","",""
"2335","","","","","4","html-slider-response","1049","","","","2",""
"496","ceiling","maua,kugita,kawaida,rayna","maua","f","4","html-keyboard-response","1050","v","kugita","false","",""
"1619","","","","","4","html-slider-response","1051","","","","2",""
"1288","train","itik,dakika,sayari,mungu","sayari","j","4","html-keyboard-response","1052","f","itik","false","",""
"1270","","","","","4","html-slider-response","1053","","","","2",""
"1566","magazine","gundi,mchawi,kiti,bahandi","kiti","j","4","html-keyboard-response","1054","j","kiti","true","",""
"1632","","","","","4","html-slider-response","1055","","","","4",""
"1463","office","hazini,yatima,leso,kuna","leso","j","4","html-keyboard-response","1056","f","hazini","false","",""
"1391","","","","","4","html-slider-response","1057","","","","2",""
"893","wheel","punda,tawo,bafuni,baadaye","bafuni","j","4","html-keyboard-response","1058","n","baadaye","false","",""
"1590","","","","","4","html-slider-response","1059","","","","4",""
"759","spoon","betri,pagsulod,nzuri,ngazi","pagsulod","v","4","html-keyboard-response","1060","n","ngazi","false","",""
"1541","","","","","4","html-slider-response","1061","","","","4",""
"1522","hammer","mekno,kitovu,layag,napakyas","napakyas","n","4","html-keyboard-response","1062","v","kitovu","false","",""
"1995","","","","","4","html-slider-response","1063","","","","2",""
"601","cigar","ndugu,kuta,adhabu,mlango","adhabu","j","4","html-keyboard-response","1064","v","kuta","false","",""
"1300","","","","","4","html-slider-response","1065","","","","2",""
"1493","shoe","uyoga,nyeusi,hatua,kama","uyoga","f","4","html-keyboard-response","1066","j","hatua","false","",""
"1092","","","","","4","html-slider-response","1067","","","","4",""
"6980","list","alizeti,wingu,kuzama,kaso","wingu","v","5","html-keyboard-response","1069","j","kuzama","false","",""
"1669","","","","","5","html-slider-response","1070","","","","2",""
"2423","number","shule,kengele,choori,mundamo","mundamo","n","5","html-keyboard-response","1071","f","shule","false","",""
"1272","","","","","5","html-slider-response","1072","","","","2",""
"1267","apple","ukame,estante,edad,kisu","kisu","n","5","html-keyboard-response","1073","n","kisu","true","",""
"1500","","","","","5","html-slider-response","1074","","","","4",""
"905","knee","duka,mvuke,kubale,bili","duka","f","5","html-keyboard-response","1075","n","bili","false","",""
"1085","","","","","5","html-slider-response","1076","","","","2",""
"2257","tooth","kijiko,kabalaka,uadui,pahiyum","kabalaka","v","5","html-keyboard-response","1077","j","uadui","false","",""
"1265","","","","","5","html-slider-response","1078","","","","4",""
"2213","berry","kofia,abogado,nogozi,kinywa","kofia","f","5","html-keyboard-response","1079","v","abogado","false","",""
"1369","","","","","5","html-slider-response","1080","","","","2",""
"25095","bridge","daima,ngono,sahani,panya","sahani","j","5","html-keyboard-response","1081","v","ngono","false","",""
"2319","","","","","5","html-slider-response","1082","","","","4",""
"1439","perfume","bino,sungura,ndogo,katuyoan","katuyoan","n","5","html-keyboard-response","1083","j","ndogo","false","",""
"3198","","","","","5","html-slider-response","1084","","","","4",""
"5931","ladder","mashua,pangalan,mwanga,kamba","pangalan","v","5","html-keyboard-response","1085","f","mashua","false","",""
"1566","","","","","5","html-slider-response","1086","","","","5",""
"4110","pants","pintal,haki,chuki,hari","haki","v","5","html-keyboard-response","1087","f","pintal","false","",""
"1646","","","","","5","html-slider-response","1088","","","","2",""
"9929","salmon","mzungu,sensilyo,seri,baharia","sensilyo","v","5","html-keyboard-response","1089","f","mzungu","false","",""
"1858","","","","","5","html-slider-response","1090","","","","4",""
"10362","coffin","barua,tubag,kioo,hulma","kioo","j","5","html-keyboard-response","1091","j","kioo","true","",""
"1532","","","","","5","html-slider-response","1092","","","","4",""
"7906","park","tambok,pwani,bunifu,ihalas","bunifu","j","5","html-keyboard-response","1093","j","bunifu","true","",""
"2299","","","","","5","html-slider-response","1094","","","","5",""
"7698","giraffe","mahitabo,daraja,jumatu,hangyo","mahitabo","f","5","html-keyboard-response","1095","f","mahitabo","true","",""
"1266","","","","","5","html-slider-response","1096","","","","4",""
"11157","mirror","rangi,kanding,sulagma,furaha","sulagma","j","5","html-keyboard-response","1097","j","sulagma","true","",""
"1449","","","","","5","html-slider-response","1098","","","","5",""
"1784","ceiling","maua,kugita,kawaida,rayna","maua","f","5","html-keyboard-response","1099","f","maua","true","",""
"1339","","","","","5","html-slider-response","1100","","","","4",""
"2383","marker","maji,mapafu,salita,atay","maji","f","5","html-keyboard-response","1101","f","maji","true","",""
"1343","","","","","5","html-slider-response","1102","","","","4",""
"2363","sock","ndoora,kimysa,mamba,mtirka","mamba","j","5","html-keyboard-response","1103","j","mamba","true","",""
"1756","","","","","5","html-slider-response","1104","","","","2",""
"2801","cop","bustani,mechezo,jikoni,bakus","mechezo","v","5","html-keyboard-response","1105","n","bakus","false","",""
"1204","","","","","5","html-slider-response","1106","","","","5",""
"2758","gift","baba,nyange,pagtawag,baso","pagtawag","j","5","html-keyboard-response","1107","n","baso","false","",""
"1439","","","","","5","html-slider-response","1108","","","","2",""
"3870","notebook","msitu,kila,mdudu,kemia","kemia","n","5","html-keyboard-response","1109","j","mdudu","false","",""
"1664","","","","","5","html-slider-response","1110","","","","4",""
"2117","bank","kudhibi,tualya,silingan,ofisi","silingan","j","5","html-keyboard-response","1111","n","ofisi","false","",""
"1302","","","","","5","html-slider-response","1112","","","","4",""
"6177","letter","kifua,filimbi,chuma,uhuru","kifua","f","5","html-keyboard-response","1113","n","uhuru","false","",""
"1477","","","","","5","html-slider-response","1114","","","","4",""
"2131","candle","geza,gabi,farasi,kupanda","geza","f","5","html-keyboard-response","1115","j","farasi","false","",""
"1015","","","","","5","html-slider-response","1116","","","","4",""
"1968","bread","kaili,dizeli,dari,bugas","dari","j","5","html-keyboard-response","1117","j","dari","true","",""
"1189","","","","","5","html-slider-response","1118","","","","4",""
"2313","snake","pagtukod,jansa,karon,mvringo","pagtukod","f","5","html-keyboard-response","1119","v","jansa","false","",""
"1379","","","","","5","html-slider-response","1120","","","","2",""
"3839","rose","singizi,mwanake,paghalad,amani","paghalad","j","5","html-keyboard-response","1121","j","paghalad","true","",""
"1939","","","","","5","html-slider-response","1122","","","","4",""
"2376","hill","kushoto,kukimba,sweta,matumbo","matumbo","n","5","html-keyboard-response","1123","j","sweta","false","",""
"1733","","","","","5","html-slider-response","1124","","","","2",""
"3131","train","itik,sayari,dakika,mungu","sayari","v","5","html-keyboard-response","1125","n","mungu","false","",""
"1787","","","","","5","html-slider-response","1126","","","","2",""
"2978","shop","nopya,kerida,samaki,ndezu","samaki","j","5","html-keyboard-response","1127","n","ndezu","false","",""
"1411","","","","","5","html-slider-response","1128","","","","4",""
"2112","nose","gubat,kopa,kidole,sehemu","sehemu","n","5","html-keyboard-response","1129","v","kopa","false","",""
"2171","","","","","5","html-slider-response","1130","","","","2",""
"3366","boat","agalon,hamsi,pombe,kitanda","agalon","f","5","html-keyboard-response","1131","v","hamsi","false","",""
"1516","","","","","5","html-slider-response","1132","","","","4",""
"1485","body","nyundu,jibini,kununa,tindashan","tindashan","n","5","html-keyboard-response","1133","j","kununa","false","",""
"1304","","","","","5","html-slider-response","1134","","","","4",""
"1335","bed","kalipay,haraka,starehe,mapintas","mapintas","n","5","html-keyboard-response","1135","n","mapintas","true","",""
"2143","","","","","5","html-slider-response","1136","","","","2",""
"6114","squirrel","mahugaw,ukweli,hofu,kichwa","hofu","j","5","html-keyboard-response","1137","j","hofu","true","",""
"1639","","","","","5","html-slider-response","1138","","","","5",""
"7598","window","nanga,kujenga,umaga,kweli","kweli","n","5","html-keyboard-response","1139","f","nanga","false","",""
"1342","","","","","5","html-slider-response","1140","","","","2",""
"4861","bonfire","mwezi,goti,mfuko,kusanya","goti","v","5","html-keyboard-response","1141","v","goti","true","",""
"1383","","","","","5","html-slider-response","1142","","","","4",""
"4229","fish","buli,bala,baho,imani","buli","f","5","html-keyboard-response","1143","j","baho","false","",""
"1201","","","","","5","html-slider-response","1144","","","","4",""
"3296","cat","neyemba,paghukom,baki,akili","paghukom","v","5","html-keyboard-response","1145","f","neyemba","false","",""
"2254","","","","","5","html-slider-response","1146","","","","2",""
"1649","spider","bunyag,kamwe,mkboa,atop","kamwe","v","5","html-keyboard-response","1147","j","mkboa","false","",""
"1099","","","","","5","html-slider-response","1148","","","","4",""
"5222","eel","ishara,kunywa,msumari,kabuang","msumari","j","5","html-keyboard-response","1149","v","kunywa","false","",""
"2239","","","","","5","html-slider-response","1150","","","","2",""
"3532","woman","bandari,bituin,pagtabon,kovuli","pagtabon","j","5","html-keyboard-response","1151","j","pagtabon","true","",""
"1312","","","","","5","html-slider-response","1152","","","","4",""
"4577","magazine","gundi,mchawi,bahandi,kiti","kiti","n","5","html-keyboard-response","1153","f","gundi","false","",""
"1206","","","","","5","html-slider-response","1154","","","","2",""
"1212","pudding","aibu,abug,mpishi,iring","aibu","f","5","html-keyboard-response","1155","f","aibu","true","",""
"1239","","","","","5","html-slider-response","1156","","","","4",""
"853","lamp","daub,afya,bilaska,mbolea","afya","v","5","html-keyboard-response","1157","j","bilaska","false","",""
"1368","","","","","5","html-slider-response","1158","","","","4",""
"791","cave","ganti,kesho,maisha,nyundo","kesho","v","5","html-keyboard-response","1159","v","kesho","true","",""
"1332","","","","","5","html-slider-response","1160","","","","4",""
"650","shoulder","mkuu,kelele,ndaniya,guruwe","mkuu","f","5","html-keyboard-response","1161","n","guruwe","false","",""
"2001","","","","","5","html-slider-response","1162","","","","4",""
"197","stone","ulimwengu,mkasi,asili,wingi","wingi","n","5","html-keyboard-response","1163","n","wingi","true","",""
"1421","","","","","5","html-slider-response","1164","","","","4",""
"272","column","pundok,dila,pala,ufagio","ufagio","n","5","html-keyboard-response","1165","n","ufagio","true","",""
"1132","","","","","5","html-slider-response","1166","","","","4",""
"714","page","wakala,wimbo,ishiri,skina","wimbo","v","5","html-keyboard-response","1167","f","wakala","false","",""
"2577","","","","","5","html-slider-response","1168","","","","2",""
"378","shoe","uyoga,nyeusi,hatua,kama","uyoga","f","5","html-keyboard-response","1169","f","uyoga","true","",""
"1173","","","","","5","html-slider-response","1170","","","","2",""
"288","clock","kartasi,abang,osha,mbwa","mbwa","n","5","html-keyboard-response","1171","f","kartasi","false","",""
"1024","","","","","5","html-slider-response","1172","","","","2",""
"870","towel","tembo,funzi,pito,pagpalit","pagpalit","n","5","html-keyboard-response","1173","v","funzi","false","",""
"1589","","","","","5","html-slider-response","1174","","","","4",""
"334","tomato","chupi,chupa,mvua,takatak","mvua","j","5","html-keyboard-response","1175","v","chupa","false","",""
"1068","","","","","5","html-slider-response","1176","","","","4",""
"334","bucket","baga,kiatu,ijayo,init","kiatu","v","5","html-keyboard-response","1177","v","kiatu","true","",""
"997","","","","","5","html-slider-response","1178","","","","4",""
"351","finger","simu,sufuria,moyo,lima","moyo","j","5","html-keyboard-response","1179","v","sufuria","false","",""
"1627","","","","","5","html-slider-response","1180","","","","4",""
"739","mother","kahawa,mbuzi,babaye,jokofu","babaye","j","5","html-keyboard-response","1181","j","babaye","true","",""
"1396","","","","","5","html-slider-response","1182","","","","4",""
"393","human","bado,kikapu,punguza,tinapay","tinapay","n","5","html-keyboard-response","1183","j","punguza","false","",""
"1093","","","","","5","html-slider-response","1184","","","","4",""
"576","sun","bendi,luha,basi,uongo","basi","j","5","html-keyboard-response","1185","j","basi","true","",""
"1654","","","","","5","html-slider-response","1186","","","","2",""
"387","fork","baboy,paghago,mgonjwa,gorisi","mgonjwa","j","5","html-keyboard-response","1187","j","mgonjwa","true","",""
"1505","","","","","5","html-slider-response","1188","","","","4",""
"172","donkey","bloke,lalake,elfu,rombus","elfu","j","5","html-keyboard-response","1189","j","elfu","true","",""
"1480","","","","","5","html-slider-response","1190","","","","2",""
"899","wolf","kaburi,lugha,ndizi,mchuzi","lugha","v","5","html-keyboard-response","1191","n","mchuzi","false","",""
"1633","","","","","5","html-slider-response","1192","","","","4",""
"207","cigar","ndugu,kuta,adhabu,mlango","adhabu","j","5","html-keyboard-response","1193","n","mlango","false","",""
"1221","","","","","5","html-slider-response","1194","","","","4",""
"274","olive","bata,siagi,welder,jiwe","jiwe","n","5","html-keyboard-response","1195","n","jiwe","true","",""
"1633","","","","","5","html-slider-response","1196","","","","2",""
"236","key","miaka,chombo,goma,ahos","chombo","v","5","html-keyboard-response","1197","n","ahos","false","",""
"1496","","","","","5","html-slider-response","1198","","","","4",""
"229","door","surali,tena,soko,nyota","surali","f","5","html-keyboard-response","1199","n","nyota","false","",""
"1336","","","","","5","html-slider-response","1200","","","","4",""
"1261","wheel","punda,tawo,bafuni,baadaye","bafuni","j","5","html-keyboard-response","1201","j","bafuni","true","",""
"4439","","","","","5","html-slider-response","1202","","","","2",""
"1212","basket","kumbuka,utepe,hasira,kumba","kumba","n","5","html-keyboard-response","1203","v","utepe","false","",""
"2117","","","","","5","html-slider-response","1204","","","","4",""
"675","elephant","petye,pagduol,suka,kito","kito","n","5","html-keyboard-response","1205","v","pagduol","false","",""
"2169","","","","","5","html-slider-response","1206","","","","2",""
"126","office","hazini,yatima,kuna,leso","leso","n","5","html-keyboard-response","1207","v","yatima","false","",""
"2039","","","","","5","html-slider-response","1208","","","","5",""
"1730","music","mraba,mageho,baiski,tumbo","baiski","j","5","html-keyboard-response","1209","f","mraba","false","",""
"1406","","","","","5","html-slider-response","1210","","","","2",""
"358","tissue","ugomvi,lamigas,kisiwa,katika","ugomvi","f","5","html-keyboard-response","1211","f","ugomvi","true","",""
"1092","","","","","5","html-slider-response","1212","","","","2",""
"349","curtain","lisud,bulwawan,chubani,mchanga","mchanga","n","5","html-keyboard-response","1213","f","lisud","false","",""
"1637","","","","","5","html-slider-response","1214","","","","2",""
"737","flag","ndege,trekta,mkate,kawa","trekta","v","5","html-keyboard-response","1215","f","ndege","false","",""
"1391","","","","","5","html-slider-response","1216","","","","2",""
"684","dog","lubi,washia,bahari,kalamu","bahari","j","5","html-keyboard-response","1217","n","kalamu","false","",""
"1314","","","","","5","html-slider-response","1218","","","","4",""
"394","cup","dagat,shimoni,matumai,jeraha","matumai","j","5","html-keyboard-response","1219","n","jeraha","false","",""
"1466","","","","","5","html-slider-response","1220","","","","4",""
"433","sheet","bililhon,juuya,watu,kamantis","bililhon","f","5","html-keyboard-response","1221","n","kamantis","false","",""
"1653","","","","","5","html-slider-response","1222","","","","4",""
"270","spoon","betri,pagsulod,nzuri,ngazi","pagsulod","v","5","html-keyboard-response","1223","n","ngazi","false","",""
"1815","","","","","5","html-slider-response","1224","","","","5",""
"1553","flower","tamasha,lobo,bega,usiku","bega","j","5","html-keyboard-response","1225","j","bega","true","",""
"1534","","","","","5","html-slider-response","1226","","","","2",""
"374","picture","silya,chaki,asin,kubwa","kubwa","n","5","html-keyboard-response","1227","j","asin","false","",""
"1502","","","","","5","html-slider-response","1228","","","","4",""
"215","puppet","napulo,lamok,godoro,mazishi","mazishi","n","5","html-keyboard-response","1229","j","godoro","false","",""
"1578","","","","","5","html-slider-response","1230","","","","4",""
"843","banana","kasamok,kazi,hagdan,twai","kazi","v","5","html-keyboard-response","1231","j","hagdan","false","",""
"2143","","","","","5","html-slider-response","1232","","","","5",""
"861","book","kuhesa,mali,picha,mara","mali","v","5","html-keyboard-response","1233","v","mali","true","",""
"1511","","","","","5","html-slider-response","1234","","","","2",""
"1728","triangle","kihozi,bentaha,liog,kasadpan","kasadpan","n","5","html-keyboard-response","1235","f","kihozi","false","",""
"1402","","","","","5","html-slider-response","1236","","","","4",""
"277","poster","nchi,madungog,fedha,kasuko","madungog","v","5","html-keyboard-response","1237","f","nchi","false","",""
"2350","","","","","5","html-slider-response","1238","","","","4",""
"2500","box","kuacha,rafiki,kitande,adui","adui","n","5","html-keyboard-response","1239","f","kuacha","false","",""
"1445","","","","","5","html-slider-response","1240","","","","5",""
"1268","mosquito","isda,taras,martilyo,gutom","martilyo","j","5","html-keyboard-response","1241","n","gutom","false","",""
"1496","","","","","5","html-slider-response","1242","","","","4",""
"208","shelf","pamahaw,bungtod,kadaot,awit","pamahaw","f","5","html-keyboard-response","1243","n","awit","false","",""
"1444","","","","","5","html-slider-response","1244","","","","4",""
"240","scissors","duga,mtawa,tanuri,suga","tanuri","j","5","html-keyboard-response","1245","n","suga","false","",""
"1189","","","","","5","html-slider-response","1246","","","","4",""
"461","hammer","mekno,napakyas,kitovu,layag","napakyas","v","5","html-keyboard-response","1247","n","layag","false","",""
"2181","","","","","5","html-slider-response","1248","","","","4",""
