"rt","en_word","options","swa_word","correct_answer","phase","trial_type","trial_index","input_answer","input_word","accuracy","certainty","amt_choices"
"2397","bonfire","mwezi,mfuko,kusanya,goti","goti","n","2","html-keyboard-response","106","n","goti","true","",""
"1359.2000002861023","","","","","2","html-slider-response","107","","","","5",""
"2374","flower","tamasha,lobo,usiku,bega","bega","n","2","html-keyboard-response","108","n","bega","true","",""
"1327.4000000953674","","","","","2","html-slider-response","109","","","","5",""
"3452","column","pundok,dila,ufagio,pala","ufagio","j","2","html-keyboard-response","110","j","ufagio","true","",""
"1562","","","","","2","html-slider-response","111","","","","2",""
"2796","music","mraba,mageho,tumbo,baiski","baiski","n","2","html-keyboard-response","112","f","mraba","false","",""
"1356.7000002861023","","","","","2","html-slider-response","113","","","","2",""
"2578","spider","bunyag,mkboa,atop,kamwe","kamwe","n","2","html-keyboard-response","114","n","kamwe","true","",""
"1134.0999999046326","","","","","2","html-slider-response","115","","","","4",""
"3086","fork","baboy,mgonjwa,paghago,gorisi","mgonjwa","v","2","html-keyboard-response","116","j","paghago","false","",""
"1748.3000001907349","","","","","2","html-slider-response","117","","","","4",""
"8553","mosquito","isda,martilyo,taras,gutom","martilyo","v","2","html-keyboard-response","118","v","martilyo","true","",""
"1355.3000001907349","","","","","2","html-slider-response","119","","","","5",""
"2922","banana","kasamok,hagdan,kazi,twai","kazi","j","2","html-keyboard-response","120","j","kazi","true","",""
"1198.5","","","","","2","html-slider-response","121","","","","4",""
"3130","cup","dagat,matumai,shimoni,jeraha","matumai","v","2","html-keyboard-response","122","v","matumai","true","",""
"1103.4000000953674","","","","","2","html-slider-response","123","","","","4",""
"4106","shop","nopya,kerida,samaki,ndezu","samaki","j","2","html-keyboard-response","124","j","samaki","true","",""
"1025.7999997138977","","","","","2","html-slider-response","125","","","","4",""
"2170","elephant","petye,pagduol,suka,kito","kito","n","2","html-keyboard-response","126","n","kito","true","",""
"1857.1999998092651","","","","","2","html-slider-response","127","","","","5",""
"3645","bucket","baga,ijayo,kiatu,init","kiatu","j","2","html-keyboard-response","128","j","kiatu","true","",""
"1065.2999997138977","","","","","2","html-slider-response","129","","","","2",""
"3244","book","kuhesa,picha,mali,mara","mali","j","2","html-keyboard-response","130","n","mara","false","",""
"1259","","","","","2","html-slider-response","131","","","","4",""
"3307","mirror","sulagma,rangi,kanding,furaha","sulagma","f","2","html-keyboard-response","132","f","sulagma","true","",""
"1457.8000001907349","","","","","2","html-slider-response","133","","","","2",""
"3028","office","hazini,yatima,leso,kuna","leso","j","2","html-keyboard-response","134","f","hazini","false","",""
"954.5","","","","","2","html-slider-response","135","","","","2",""
"2811","body","nyundu,jibini,tindashan,kununa","tindashan","j","2","html-keyboard-response","136","n","kununa","false","",""
"976.5","","","","","2","html-slider-response","137","","","","2",""
"3326","perfume","bino,sungura,katuyoan,ndogo","katuyoan","j","2","html-keyboard-response","138","j","katuyoan","true","",""
"2307.800000190735","","","","","2","html-slider-response","139","","","","2",""
"4118","olive","bata,jiwe,siagi,welder","jiwe","v","2","html-keyboard-response","140","v","jiwe","true","",""
"1736","","","","","2","html-slider-response","141","","","","2",""
"3494","magazine","gundi,mchawi,kiti,bahandi","kiti","j","2","html-keyboard-response","142","v","mchawi","false","",""
"1578","","","","","2","html-slider-response","143","","","","4",""
"3947","bread","dari,kaili,dizeli,bugas","dari","f","2","html-keyboard-response","144","f","dari","true","",""
"945.4000000953674","","","","","2","html-slider-response","145","","","","2",""
"3523","cave","kesho,ganti,maisha,nyundo","kesho","f","2","html-keyboard-response","146","n","nyundo","false","",""
"1433.4000000953674","","","","","2","html-slider-response","147","","","","2",""
"4146","ladder","pangalan,mashua,mwanga,kamba","pangalan","f","2","html-keyboard-response","148","f","pangalan","true","",""
"1007.7000002861023","","","","","2","html-slider-response","149","","","","2",""
"5500","human","tinapay,bado,kikapu,punguza","tinapay","f","2","html-keyboard-response","150","f","tinapay","true","",""
"1132.0999999046326","","","","","2","html-slider-response","151","","","","2",""
"3577","clock","kartasi,abang,osha,mbwa","mbwa","n","2","html-keyboard-response","152","n","mbwa","true","",""
"1202.1999998092651","","","","","2","html-slider-response","153","","","","5",""
"2756","shelf","bungtod,kadaot,awit,pamahaw","pamahaw","n","2","html-keyboard-response","154","n","pamahaw","true","",""
"1130.2000002861023","","","","","2","html-slider-response","155","","","","4",""
"5442","salmon","mzungu,seri,baharia,sensilyo","sensilyo","n","2","html-keyboard-response","156","j","baharia","false","",""
"1693.9000000953674","","","","","2","html-slider-response","157","","","","2",""
"4896","coffin","barua,tubag,hulma,kioo","kioo","n","2","html-keyboard-response","158","v","tubag","false","",""
"1584.3999996185303","","","","","2","html-slider-response","159","","","","2",""
"7892","notebook","msitu,kila,kemia,mdudu","kemia","j","2","html-keyboard-response","160","j","kemia","true","",""
"1284","","","","","2","html-slider-response","161","","","","2",""
"6631","shoulder","mkuu,kelele,ndaniya,guruwe","mkuu","f","2","html-keyboard-response","162","n","guruwe","false","",""
"1026.7000002861023","","","","","2","html-slider-response","163","","","","2",""
"4567","park","tambok,pwani,ihalas,bunifu","bunifu","n","2","html-keyboard-response","164","v","pwani","false","",""
"1638","","","","","2","html-slider-response","165","","","","2",""
"5128","number","shule,kengele,choori,mundamo","mundamo","n","2","html-keyboard-response","166","n","mundamo","true","",""
"1115.0999999046326","","","","","2","html-slider-response","167","","","","2",""
"2952","apple","kisu,ukame,estante,edad","kisu","f","2","html-keyboard-response","168","f","kisu","true","",""
"1253.0999999046326","","","","","2","html-slider-response","169","","","","4",""
"3040","letter","filimbi,chuma,kifua,uhuru","kifua","j","2","html-keyboard-response","170","j","kifua","true","",""
"1634.8000001907349","","","","","2","html-slider-response","171","","","","2",""
"3906","eel","ishara,kunywa,kabuang,msumari","msumari","n","2","html-keyboard-response","172","n","msumari","true","",""
"1028","","","","","2","html-slider-response","173","","","","4",""
"4329","cop","bustani,jikoni,bakus,mechezo","mechezo","n","2","html-keyboard-response","174","j","bakus","false","",""
"1068.2999997138977","","","","","2","html-slider-response","175","","","","2",""
"3082","wolf","kaburi,lugha,ndizi,mchuzi","lugha","v","2","html-keyboard-response","176","v","lugha","true","",""
"1442.8999996185303","","","","","2","html-slider-response","177","","","","5",""
"3239","squirrel","mahugaw,ukweli,kichwa,hofu","hofu","n","2","html-keyboard-response","178","v","ukweli","false","",""
"1118.3000001907349","","","","","2","html-slider-response","179","","","","2",""
"3143","nose","sehemu,gubat,kopa,kidole","sehemu","f","2","html-keyboard-response","180","f","sehemu","true","",""
"1563","","","","","2","html-slider-response","181","","","","4",""
"3732","sock","ndoora,kimysa,mamba,mtirka","mamba","j","2","html-keyboard-response","182","j","mamba","true","",""
"1296.1000003814697","","","","","2","html-slider-response","183","","","","5",""
"4857","bank","kudhibi,silingan,tualya,ofisi","silingan","v","2","html-keyboard-response","184","f","kudhibi","false","",""
"1135.5","","","","","2","html-slider-response","185","","","","2",""
"2677","donkey","bloke,lalake,rombus,elfu","elfu","n","2","html-keyboard-response","186","n","elfu","true","",""
"1289.4000000953674","","","","","2","html-slider-response","187","","","","5",""
"4291","poster","nchi,fedha,madungog,kasuko","madungog","j","2","html-keyboard-response","188","n","kasuko","false","",""
"1703.9000000953674","","","","","2","html-slider-response","189","","","","2",""
"4198","puppet","napulo,mazishi,lamok,godoro","mazishi","v","2","html-keyboard-response","190","v","mazishi","true","",""
"1054.6000003814697","","","","","2","html-slider-response","191","","","","2",""
"3965","hill","kushoto,matumbo,kukimba,sweta","matumbo","v","2","html-keyboard-response","192","j","kukimba","false","",""
"1125","","","","","2","html-slider-response","193","","","","2",""
"5073","tooth","kabalaka,kijiko,uadui,pahiyum","kabalaka","f","2","html-keyboard-response","194","f","kabalaka","true","",""
"990.0999999046326","","","","","2","html-slider-response","195","","","","4",""
"4296","woman","bandari,pagtabon,bituin,kovuli","pagtabon","v","2","html-keyboard-response","196","v","pagtabon","true","",""
"1014.0999999046326","","","","","2","html-slider-response","197","","","","2",""
"4366","wheel","punda,tawo,baadaye,bafuni","bafuni","n","2","html-keyboard-response","198","f","punda","false","",""
"1699.5999999046326","","","","","2","html-slider-response","199","","","","2",""
"3755","mother","babaye,kahawa,mbuzi,jokofu","babaye","f","2","html-keyboard-response","200","f","babaye","true","",""
"2376.9000000953674","","","","","2","html-slider-response","201","","","","4",""
"4755","bed","kalipay,haraka,starehe,mapintas","mapintas","n","2","html-keyboard-response","202","n","mapintas","true","",""
"1450.0999999046326","","","","","2","html-slider-response","203","","","","2",""
"4098","key","miaka,goma,chombo,ahos","chombo","j","2","html-keyboard-response","204","f","miaka","false","",""
"996.1999998092651","","","","","2","html-slider-response","205","","","","2",""
"4089","page","wimbo,wakala,ishiri,skina","wimbo","f","2","html-keyboard-response","206","f","wimbo","true","",""
"1953.0999999046326","","","","","2","html-slider-response","207","","","","4",""
"3203","pants","pintal,haki,chuki,hari","haki","v","2","html-keyboard-response","208","v","haki","true","",""
"1330.9000000953674","","","","","2","html-slider-response","209","","","","5",""
"3347","sun","bendi,basi,luha,uongo","basi","v","2","html-keyboard-response","210","v","basi","true","",""
"1418.0999999046326","","","","","2","html-slider-response","211","","","","5",""
"5076","finger","moyo,simu,sufuria,lima","moyo","f","2","html-keyboard-response","212","j","sufuria","false","",""
"1347.9000000953674","","","","","2","html-slider-response","213","","","","2",""
"2911","shoe","nyeusi,uyoga,hatua,kama","uyoga","v","2","html-keyboard-response","214","n","kama","false","",""
"1421.9000000953674","","","","","2","html-slider-response","215","","","","2",""
"3768","giraffe","daraja,jumatu,hangyo,mahitabo","mahitabo","n","2","html-keyboard-response","216","n","mahitabo","true","",""
"2085.8999996185303","","","","","2","html-slider-response","217","","","","2",""
"3455","dog","lubi,bahari,washia,kalamu","bahari","v","2","html-keyboard-response","218","v","bahari","true","",""
"1193.3000001907349","","","","","2","html-slider-response","219","","","","2",""
"3851","box","adui,kuacha,rafiki,kitande","adui","f","2","html-keyboard-response","220","n","kitande","false","",""
"1168.0999999046326","","","","","2","html-slider-response","221","","","","2",""
"3245","scissors","duga,mtawa,tanuri,suga","tanuri","j","2","html-keyboard-response","222","j","tanuri","true","",""
"1660","","","","","2","html-slider-response","223","","","","2",""
"2968","cat","neyemba,baki,akili,paghukom","paghukom","n","2","html-keyboard-response","224","j","akili","false","",""
"1097.5","","","","","2","html-slider-response","225","","","","2",""
"7578","basket","kumbuka,kumba,utepe,hasira","kumba","v","2","html-keyboard-response","226","n","hasira","false","",""
"1132.7999997138977","","","","","2","html-slider-response","227","","","","2",""
"3247","snake","jansa,karon,pagtukod,mvringo","pagtukod","j","2","html-keyboard-response","228","n","mvringo","false","",""
"1350.4000000953674","","","","","2","html-slider-response","229","","","","2",""
"4207","gift","baba,nyange,baso,pagtawag","pagtawag","n","2","html-keyboard-response","230","n","pagtawag","true","",""
"1034.4000000953674","","","","","2","html-slider-response","231","","","","4",""
"2930","train","itik,dakika,mungu,sayari","sayari","n","2","html-keyboard-response","232","n","sayari","true","",""
"1018.5","","","","","2","html-slider-response","233","","","","5",""
"3620","pudding","aibu,abug,mpishi,iring","aibu","f","2","html-keyboard-response","234","j","mpishi","false","",""
"1320.6999998092651","","","","","2","html-slider-response","235","","","","2",""
"3603","tomato","chupi,chupa,mvua,takatak","mvua","j","2","html-keyboard-response","236","j","mvua","true","",""
"1092.7000002861023","","","","","2","html-slider-response","237","","","","2",""
"3596","stone","ulimwengu,wingi,mkasi,asili","wingi","v","2","html-keyboard-response","238","j","mkasi","false","",""
"998.0999999046326","","","","","2","html-slider-response","239","","","","2",""
"2999","hammer","mekno,napakyas,kitovu,layag","napakyas","v","2","html-keyboard-response","240","v","napakyas","true","",""
"1366.3999996185303","","","","","2","html-slider-response","241","","","","2",""
"3336","knee","duka,mvuke,kubale,bili","duka","f","2","html-keyboard-response","242","j","kubale","false","",""
"942.7999997138977","","","","","2","html-slider-response","243","","","","2",""
"3517","ceiling","kugita,kawaida,maua,rayna","maua","j","2","html-keyboard-response","244","v","kawaida","false","",""
"956.5999999046326","","","","","2","html-slider-response","245","","","","2",""
"3809","spoon","pagsulod,betri,nzuri,ngazi","pagsulod","f","2","html-keyboard-response","246","f","pagsulod","true","",""
"1103.0999999046326","","","","","2","html-slider-response","247","","","","2",""
"3952","marker","mapafu,maji,salita,atay","maji","v","2","html-keyboard-response","248","v","maji","true","",""
"1008.8000001907349","","","","","2","html-slider-response","249","","","","2",""
"2884","candle","gabi,farasi,geza,kupanda","geza","j","2","html-keyboard-response","250","n","kupanda","false","",""
"1025.4000000953674","","","","","2","html-slider-response","251","","","","2",""
"3462","tissue","ugomvi,lamigas,kisiwa,katika","ugomvi","f","2","html-keyboard-response","252","j","kisiwa","false","",""
"1147.7000002861023","","","","","2","html-slider-response","253","","","","2",""
"5881","bridge","daima,ngono,sahani,panya","sahani","j","2","html-keyboard-response","254","v","ngono","false","",""
"1448.4000000953674","","","","","2","html-slider-response","255","","","","2",""
"3368","berry","abogado,nogozi,kofia,kinywa","kofia","j","2","html-keyboard-response","256","f","abogado","false","",""
"874","","","","","2","html-slider-response","257","","","","2",""
"2578","triangle","kihozi,bentaha,liog,kasadpan","kasadpan","n","2","html-keyboard-response","258","n","kasadpan","true","",""
"1050.9000000953674","","","","","2","html-slider-response","259","","","","2",""
"2584","door","tena,surali,soko,nyota","surali","v","2","html-keyboard-response","260","j","soko","false","",""
"5418.199999809265","","","","","2","html-slider-response","261","","","","2",""
"4484","fish","bala,baho,buli,imani","buli","j","2","html-keyboard-response","262","v","baho","false","",""
"1290","","","","","2","html-slider-response","263","","","","2",""
"2447","curtain","lisud,bulwawan,chubani,mchanga","mchanga","n","2","html-keyboard-response","264","j","chubani","false","",""
"1078.2000002861023","","","","","2","html-slider-response","265","","","","2",""
"3310","flag","ndege,trekta,mkate,kawa","trekta","v","2","html-keyboard-response","266","f","ndege","false","",""
"1055.3000001907349","","","","","2","html-slider-response","267","","","","2",""
"2446","boat","hamsi,pombe,kitanda,agalon","agalon","n","2","html-keyboard-response","268","j","kitanda","false","",""
"1046.4000000953674","","","","","2","html-slider-response","269","","","","2",""
"6151","rose","singizi,mwanake,amani,paghalad","paghalad","n","2","html-keyboard-response","270","v","mwanake","false","",""
"1613.2999997138977","","","","","2","html-slider-response","271","","","","2",""
"2993","lamp","daub,afya,bilaska,mbolea","afya","v","2","html-keyboard-response","272","n","mbolea","false","",""
"1092.2000002861023","","","","","2","html-slider-response","273","","","","2",""
"3863","cigar","adhabu,ndugu,kuta,mlango","adhabu","f","2","html-keyboard-response","274","v","ndugu","false","",""
"1199.3000001907349","","","","","2","html-slider-response","275","","","","2",""
"3220","list","wingu,alizeti,kuzama,kaso","wingu","f","2","html-keyboard-response","276","f","wingu","true","",""
"1264.5","","","","","2","html-slider-response","277","","","","4",""
"2949","sheet","juuya,bililhon,watu,kamantis","bililhon","v","2","html-keyboard-response","278","j","watu","false","",""
"1252.9000000953674","","","","","2","html-slider-response","279","","","","2",""
"3033","picture","silya,kubwa,chaki,asin","kubwa","v","2","html-keyboard-response","280","v","kubwa","true","",""
"1292.7000002861023","","","","","2","html-slider-response","281","","","","2",""
"2621","towel","tembo,funzi,pito,pagpalit","pagpalit","n","2","html-keyboard-response","282","f","tembo","false","",""
"1023.9000000953674","","","","","2","html-slider-response","283","","","","2",""
"2399","window","nanga,kweli,kujenga,umaga","kweli","v","2","html-keyboard-response","284","j","kujenga","false","",""
"1065.9000000953674","","","","","2","html-slider-response","285","","","","2",""
"2991","box","adui,kuacha,rafiki,kitande","adui","f","3","html-keyboard-response","293","n","kitande","false","","4"
"1226","","","","","3","html-slider-response","294","","","","2",""
"1388","","","","","3","html-keyboard-response","295","","","","",""
"3455","pants","pintal,haki,chuki,hari","haki","v","3","html-keyboard-response","296","v","haki","true","","4"
"1738.0999999046326","","","","","3","html-slider-response","297","","","","5",""
"953","","","","","3","html-keyboard-response","298","","","","",""
"3405","cup","dagat,shimoni,jeraha,matumai","matumai","n","3","html-keyboard-response","299","n","matumai","true","","4"
"1780.2000002861023","","","","","3","html-slider-response","300","","","","2",""
"1188","","","","","3","html-keyboard-response","301","","","","",""
"2127","triangle","kihozi,bentaha,liog,kasadpan","kasadpan","n","3","html-keyboard-response","302","n","kasadpan","true","","4"
"1266.4000000953674","","","","","3","html-slider-response","303","","","","2",""
"1958","","","","","3","html-keyboard-response","304","","","","",""
"2614","curtain","lisud,bulwawan,chubani,mchanga","mchanga","n","3","html-keyboard-response","305","j","chubani","false","","4"
"1265.3000001907349","","","","","3","html-slider-response","306","","","","2",""
"1339","","","","","3","html-keyboard-response","307","","","","",""
"2886","clock","kartasi,abang,mbwa,osha","mbwa","j","3","html-keyboard-response","308","j","mbwa","true","","4"
"1127.0999999046326","","","","","3","html-slider-response","309","","","","5",""
"831","","","","","3","html-keyboard-response","310","","","","",""
"2294","mirror","rangi,kanding,sulagma,furaha","sulagma","j","3","html-keyboard-response","311","j","sulagma","true","","4"
"1194.4000000953674","","","","","3","html-slider-response","312","","","","2",""
"1570","","","","","3","html-keyboard-response","313","","","","",""
"3526","coffin","kioo,barua,tubag,hulma","kioo","f","3","html-keyboard-response","314","f","kioo","true","","1"
"1548.6999998092651","","","","","3","html-slider-response","315","","","","5",""
"857","","","","","3","html-keyboard-response","316","","","","",""
"3333","magazine","kiti,gundi,mchawi,bahandi","kiti","f","3","html-keyboard-response","317","j","mchawi","false","","4"
"1134.5999999046326","","","","","3","html-slider-response","318","","","","2",""
"1391","","","","","3","html-keyboard-response","319","","","","",""
"2294","column","pundok,ufagio,dila,pala","ufagio","v","3","html-keyboard-response","320","v","ufagio","true","","1"
"1784.5999999046326","","","","","3","html-slider-response","321","","","","5",""
"749","","","","","3","html-keyboard-response","322","","","","",""
"2486","number","shule,mundamo,kengele,choori","mundamo","v","3","html-keyboard-response","323","v","mundamo","true","","4"
"1100.9000000953674","","","","","3","html-slider-response","324","","","","2",""
"1662","","","","","3","html-keyboard-response","325","","","","",""
"2567","rose","singizi,mwanake,amani,paghalad","paghalad","n","3","html-keyboard-response","326","n","paghalad","true","","4"
"1311.5","","","","","3","html-slider-response","327","","","","2",""
"1171","","","","","3","html-keyboard-response","328","","","","",""
"2344","eel","ishara,kunywa,msumari,kabuang","msumari","j","3","html-keyboard-response","329","j","msumari","true","","4"
"1308.3000001907349","","","","","3","html-slider-response","330","","","","5",""
"525","","","","","3","html-keyboard-response","331","","","","",""
"2559","gift","baba,pagtawag,nyange,baso","pagtawag","v","3","html-keyboard-response","332","n","baso","false","","4"
"1056.9000000953674","","","","","3","html-slider-response","333","","","","2",""
"1298","","","","","3","html-keyboard-response","334","","","","",""
"2319","apple","kisu,ukame,estante,edad","kisu","f","3","html-keyboard-response","335","f","kisu","true","","1"
"1358.3000001907349","","","","","3","html-slider-response","336","","","","5",""
"624","","","","","3","html-keyboard-response","337","","","","",""
"2160","wheel","bafuni,punda,tawo,baadaye","bafuni","f","3","html-keyboard-response","338","f","bafuni","true","","1"
"1759.0999999046326","","","","","3","html-slider-response","339","","","","5",""
"394","","","","","3","html-keyboard-response","340","","","","",""
"3168","knee","duka,mvuke,kubale,bili","duka","f","3","html-keyboard-response","341","j","kubale","false","","4"
"1879.7000002861023","","","","","3","html-slider-response","342","","","","2",""
"1133","","","","","3","html-keyboard-response","343","","","","",""
"2454","basket","kumbuka,kumba,utepe,hasira","kumba","v","3","html-keyboard-response","344","v","kumba","true","","1"
"2000.5999999046326","","","","","3","html-slider-response","345","","","","5",""
"829","","","","","3","html-keyboard-response","346","","","","",""
"2255","park","bunifu,tambok,pwani,ihalas","bunifu","f","3","html-keyboard-response","347","j","pwani","false","","4"
"968.7999997138977","","","","","3","html-slider-response","348","","","","2",""
"972","","","","","3","html-keyboard-response","349","","","","",""
"2702","finger","simu,sufuria,moyo,lima","moyo","j","3","html-keyboard-response","350","v","sufuria","false","","4"
"1078.2000002861023","","","","","3","html-slider-response","351","","","","2",""
"1205","","","","","3","html-keyboard-response","352","","","","",""
"2391","boat","agalon,hamsi,pombe,kitanda","agalon","f","3","html-keyboard-response","353","n","kitanda","false","","4"
"1373.0999999046326","","","","","3","html-slider-response","354","","","","2",""
"6999","","","","","3","html-keyboard-response","355","","","","",""
"2094","hill","kushoto,kukimba,matumbo,sweta","matumbo","j","3","html-keyboard-response","356","j","matumbo","true","","4"
"1685.5999999046326","","","","","3","html-slider-response","357","","","","2",""
"874","","","","","3","html-keyboard-response","358","","","","",""
"2558","train","itik,dakika,mungu,sayari","sayari","n","3","html-keyboard-response","359","n","sayari","true","","4"
"1469","","","","","3","html-slider-response","360","","","","5",""
"774","","","","","3","html-keyboard-response","361","","","","",""
"1957","wolf","lugha,kaburi,ndizi,mchuzi","lugha","f","3","html-keyboard-response","362","f","lugha","true","","4"
"1613","","","","","3","html-slider-response","363","","","","5",""
"986","","","","","3","html-keyboard-response","364","","","","",""
"2262","snake","pagtukod,jansa,karon,mvringo","pagtukod","f","3","html-keyboard-response","365","f","pagtukod","true","","4"
"1068.6000003814697","","","","","3","html-slider-response","366","","","","2",""
"1290","","","","","3","html-keyboard-response","367","","","","",""
"3571","tooth","kijiko,uadui,pahiyum,kabalaka","kabalaka","n","3","html-keyboard-response","368","n","kabalaka","true","","4"
"1021.5999999046326","","","","","3","html-slider-response","369","","","","2",""
"931","","","","","3","html-keyboard-response","370","","","","",""
"4150","notebook","msitu,kila,mdudu,kemia","kemia","n","3","html-keyboard-response","371","v","kila","false","","4"
"1402.5999999046326","","","","","3","html-slider-response","372","","","","2",""
"1210","","","","","3","html-keyboard-response","373","","","","",""
"2095","flag","trekta,ndege,mkate,kawa","trekta","f","3","html-keyboard-response","374","j","mkate","false","","4"
"1041.2000002861023","","","","","3","html-slider-response","375","","","","2",""
"1284","","","","","3","html-keyboard-response","376","","","","",""
"2568","squirrel","mahugaw,hofu,ukweli,kichwa","hofu","v","3","html-keyboard-response","377","v","hofu","true","","4"
"1222.7000002861023","","","","","3","html-slider-response","378","","","","2",""
"1280","","","","","3","html-keyboard-response","379","","","","",""
"1788","door","tena,surali,soko,nyota","surali","v","3","html-keyboard-response","380","j","soko","false","","4"
"916.9000000953674","","","","","3","html-slider-response","381","","","","2",""
"1528","","","","","3","html-keyboard-response","382","","","","",""
"2726","salmon","mzungu,sensilyo,seri,baharia","sensilyo","v","3","html-keyboard-response","383","n","baharia","false","","4"
"1352.8000001907349","","","","","3","html-slider-response","384","","","","2",""
"1695","","","","","3","html-keyboard-response","385","","","","",""
"2132","shoulder","kelele,ndaniya,mkuu,guruwe","mkuu","j","3","html-keyboard-response","386","j","mkuu","true","","4"
"1424.2000002861023","","","","","3","html-slider-response","387","","","","2",""
"1333","","","","","3","html-keyboard-response","388","","","","",""
"2365","lamp","daub,bilaska,afya,mbolea","afya","j","3","html-keyboard-response","389","n","mbolea","false","","4"
"1221.9000000953674","","","","","3","html-slider-response","390","","","","2",""
"1976","","","","","3","html-keyboard-response","391","","","","",""
"2150","shelf","pamahaw,bungtod,kadaot,awit","pamahaw","f","3","html-keyboard-response","392","f","pamahaw","true","","1"
"1759.9000000953674","","","","","3","html-slider-response","393","","","","5",""
"752","","","","","3","html-keyboard-response","394","","","","",""
"4237","human","tinapay,bado,kikapu,punguza","tinapay","f","3","html-keyboard-response","395","n","punguza","false","","4"
"1455.8000001907349","","","","","3","html-slider-response","396","","","","2",""
"1351","","","","","3","html-keyboard-response","397","","","","",""
"2647","towel","tembo,funzi,pagpalit,pito","pagpalit","j","3","html-keyboard-response","398","f","tembo","false","","4"
"1956.7000002861023","","","","","3","html-slider-response","399","","","","2",""
"1318","","","","","3","html-keyboard-response","400","","","","",""
"1959","cat","neyemba,baki,akili,paghukom","paghukom","n","3","html-keyboard-response","401","j","akili","false","","4"
"1531","","","","","3","html-slider-response","402","","","","2",""
"1195","","","","","3","html-keyboard-response","403","","","","",""
"4277","spider","bunyag,mkboa,kamwe,atop","kamwe","j","3","html-keyboard-response","404","j","kamwe","true","","4"
"1351.5","","","","","3","html-slider-response","405","","","","4",""
"710","","","","","3","html-keyboard-response","406","","","","",""
"2965","window","nanga,kujenga,kweli,umaga","kweli","j","3","html-keyboard-response","407","v","kujenga","false","","4"
"1307.5999999046326","","","","","3","html-slider-response","408","","","","2",""
"1041","","","","","3","html-keyboard-response","409","","","","",""
"2717","woman","bandari,bituin,kovuli,pagtabon","pagtabon","n","3","html-keyboard-response","410","n","pagtabon","true","","1"
"2216.2000002861023","","","","","3","html-slider-response","411","","","","5",""
"637","","","","","3","html-keyboard-response","412","","","","",""
"2423","giraffe","daraja,jumatu,hangyo,mahitabo","mahitabo","n","3","html-keyboard-response","413","n","mahitabo","true","","4"
"1209.5","","","","","3","html-slider-response","414","","","","2",""
"13685","","","","","3","html-keyboard-response","415","","","","",""
"2470","elephant","kito,petye,pagduol,suka","kito","f","3","html-keyboard-response","416","f","kito","true","","4"
"1152.7000002861023","","","","","3","html-slider-response","417","","","","5",""
"743","","","","","3","html-keyboard-response","418","","","","",""
"4723","cave","ganti,kesho,maisha,nyundo","kesho","v","3","html-keyboard-response","419","v","kesho","true","","4"
"1150.3000001907349","","","","","3","html-slider-response","420","","","","2",""
"818","","","","","3","html-keyboard-response","421","","","","",""
"2683","bread","kaili,dari,dizeli,bugas","dari","v","3","html-keyboard-response","422","f","kaili","false","","4"
"1585.0999999046326","","","","","3","html-slider-response","423","","","","2",""
"1156","","","","","3","html-keyboard-response","424","","","","",""
"9182","stone","ulimwengu,mkasi,wingi,asili","wingi","j","3","html-keyboard-response","425","v","mkasi","false","","4"
"1048.0999999046326","","","","","3","html-slider-response","426","","","","2",""
"1789","","","","","3","html-keyboard-response","427","","","","",""
"2167","donkey","bloke,elfu,lalake,rombus","elfu","v","3","html-keyboard-response","428","v","elfu","true","","4"
"1170.7000002861023","","","","","3","html-slider-response","429","","","","5",""
"788","","","","","3","html-keyboard-response","430","","","","",""
"3037","bridge","sahani,daima,ngono,panya","sahani","f","3","html-keyboard-response","431","j","ngono","false","","4"
"1218.8999996185303","","","","","3","html-slider-response","432","","","","2",""
"915","","","","","3","html-keyboard-response","433","","","","",""
"2982","bonfire","mwezi,mfuko,kusanya,goti","goti","n","3","html-keyboard-response","434","n","goti","true","","4"
"1920.5","","","","","3","html-slider-response","435","","","","5",""
"476","","","","","3","html-keyboard-response","436","","","","",""
"3216","book","kuhesa,mali,picha,mara","mali","v","3","html-keyboard-response","437","v","mali","true","","4"
"1064.0999999046326","","","","","3","html-slider-response","438","","","","2",""
"762","","","","","3","html-keyboard-response","439","","","","",""
"3640","fish","bala,buli,baho,imani","buli","v","3","html-keyboard-response","440","j","baho","false","","4"
"1015.0999999046326","","","","","3","html-slider-response","441","","","","2",""
"1838","","","","","3","html-keyboard-response","442","","","","",""
"2373","spoon","betri,nzuri,ngazi,pagsulod","pagsulod","n","3","html-keyboard-response","443","n","pagsulod","true","","4"
"884.5","","","","","3","html-slider-response","444","","","","2",""
"848","","","","","3","html-keyboard-response","445","","","","",""
"2964","scissors","duga,mtawa,suga,tanuri","tanuri","n","3","html-keyboard-response","446","v","mtawa","false","","4"
"919.7000002861023","","","","","3","html-slider-response","447","","","","2",""
"1464","","","","","3","html-keyboard-response","448","","","","",""
"3700","page","wakala,wimbo,ishiri,skina","wimbo","v","3","html-keyboard-response","449","v","wimbo","true","","4"
"1019.3999996185303","","","","","3","html-slider-response","450","","","","4",""
"642","","","","","3","html-keyboard-response","451","","","","",""
"2096","nose","gubat,kopa,kidole,sehemu","sehemu","n","3","html-keyboard-response","452","n","sehemu","true","","1"
"2348.7000002861023","","","","","3","html-slider-response","453","","","","5",""
"816","","","","","3","html-keyboard-response","454","","","","",""
"2904","ceiling","maua,kugita,kawaida,rayna","maua","f","3","html-keyboard-response","455","j","kawaida","false","","4"
"1197.8000001907349","","","","","3","html-slider-response","456","","","","2",""
"941","","","","","3","html-keyboard-response","457","","","","",""
"3240","bucket","baga,ijayo,kiatu,init","kiatu","j","3","html-keyboard-response","458","j","kiatu","true","","4"
"1328","","","","","3","html-slider-response","459","","","","2",""
"2179","","","","","3","html-keyboard-response","460","","","","",""
"2447","berry","kofia,abogado,nogozi,kinywa","kofia","f","3","html-keyboard-response","461","f","kofia","true","","1"
"1557.4000000953674","","","","","3","html-slider-response","462","","","","5",""
"5569","","","","","3","html-keyboard-response","463","","","","",""
"3380","mother","kahawa,mbuzi,babaye,jokofu","babaye","j","3","html-keyboard-response","464","j","babaye","true","","1"
"1224.2000002861023","","","","","3","html-slider-response","465","","","","5",""
"1053","","","","","3","html-keyboard-response","466","","","","",""
"3183","mosquito","isda,martilyo,taras,gutom","martilyo","v","3","html-keyboard-response","467","v","martilyo","true","","4"
"1318.2000002861023","","","","","3","html-slider-response","468","","","","5",""
"1176","","","","","3","html-keyboard-response","469","","","","",""
"3102","perfume","bino,sungura,katuyoan,ndogo","katuyoan","j","3","html-keyboard-response","470","v","sungura","false","","4"
"2386.800000190735","","","","","3","html-slider-response","471","","","","2",""
"1179","","","","","3","html-keyboard-response","472","","","","",""
"3113","sheet","juuya,watu,kamantis,bililhon","bililhon","n","3","html-keyboard-response","473","v","watu","false","","4"
"1655.1999998092651","","","","","3","html-slider-response","474","","","","2",""
"899","","","","","3","html-keyboard-response","475","","","","",""
"1966","puppet","napulo,lamok,mazishi,godoro","mazishi","j","3","html-keyboard-response","476","j","mazishi","true","","1"
"1892.9000000953674","","","","","3","html-slider-response","477","","","","5",""
"672","","","","","3","html-keyboard-response","478","","","","",""
"2863","poster","madungog,nchi,fedha,kasuko","madungog","f","3","html-keyboard-response","479","n","kasuko","false","","4"
"1377.6999998092651","","","","","3","html-slider-response","480","","","","2",""
"906","","","","","3","html-keyboard-response","481","","","","",""
"3176","music","mraba,mageho,baiski,tumbo","baiski","j","3","html-keyboard-response","482","n","tumbo","false","","4"
"1253.5","","","","","3","html-slider-response","483","","","","2",""
"748","","","","","3","html-keyboard-response","484","","","","",""
"3679","key","miaka,goma,ahos,chombo","chombo","n","3","html-keyboard-response","485","n","chombo","true","","4"
"1161.8999996185303","","","","","3","html-slider-response","486","","","","2",""
"893","","","","","3","html-keyboard-response","487","","","","",""
"4692","sock","ndoora,kimysa,mtirka,mamba","mamba","n","3","html-keyboard-response","488","n","mamba","true","","4"
"1753.6999998092651","","","","","3","html-slider-response","489","","","","5",""
"823","","","","","3","html-keyboard-response","490","","","","",""
"2848","marker","mapafu,salita,atay,maji","maji","n","3","html-keyboard-response","491","f","mapafu","false","","4"
"1550.2000002861023","","","","","3","html-slider-response","492","","","","2",""
"814","","","","","3","html-keyboard-response","493","","","","",""
"3296","office","leso,hazini,yatima,kuna","leso","f","3","html-keyboard-response","494","v","hazini","false","","4"
"1173.7999997138977","","","","","3","html-slider-response","495","","","","2",""
"1246","","","","","3","html-keyboard-response","496","","","","",""
"3783","shoe","nyeusi,uyoga,hatua,kama","uyoga","v","3","html-keyboard-response","497","j","hatua","false","","4"
"1095.2000002861023","","","","","3","html-slider-response","498","","","","2",""
"1005","","","","","3","html-keyboard-response","499","","","","",""
"2353","cop","bustani,jikoni,bakus,mechezo","mechezo","n","3","html-keyboard-response","500","j","bakus","false","","4"
"1020.1999998092651","","","","","3","html-slider-response","501","","","","2",""
"1045","","","","","3","html-keyboard-response","502","","","","",""
"2656","bank","silingan,kudhibi,tualya,ofisi","silingan","f","3","html-keyboard-response","503","n","ofisi","false","","4"
"1211.9000000953674","","","","","3","html-slider-response","504","","","","2",""
"1148","","","","","3","html-keyboard-response","505","","","","",""
"2258","letter","filimbi,kifua,chuma,uhuru","kifua","v","3","html-keyboard-response","506","v","kifua","true","","1"
"1822.2000002861023","","","","","3","html-slider-response","507","","","","5",""
"862","","","","","3","html-keyboard-response","508","","","","",""
"2463","dog","lubi,washia,kalamu,bahari","bahari","n","3","html-keyboard-response","509","n","bahari","true","","1"
"2326.2999997138977","","","","","3","html-slider-response","510","","","","5",""
"45310","","","","","3","html-keyboard-response","511","","","","",""
"4101","shop","samaki,nopya,kerida,ndezu","samaki","f","3","html-keyboard-response","512","f","samaki","true","","4"
"1379.9000000953674","","","","","3","html-slider-response","513","","","","2",""
"856","","","","","3","html-keyboard-response","514","","","","",""
"2580","flower","bega,tamasha,lobo,usiku","bega","f","3","html-keyboard-response","515","f","bega","true","","4"
"1583.3000001907349","","","","","3","html-slider-response","516","","","","5",""
"703","","","","","3","html-keyboard-response","517","","","","",""
"3583","cigar","ndugu,kuta,adhabu,mlango","adhabu","j","3","html-keyboard-response","518","j","adhabu","true","","1"
"3009.699999809265","","","","","3","html-slider-response","519","","","","5",""
"3811","","","","","3","html-keyboard-response","520","","","","",""
"3223","hammer","napakyas,mekno,kitovu,layag","napakyas","f","3","html-keyboard-response","521","f","napakyas","true","","4"
"1200.8000001907349","","","","","3","html-slider-response","522","","","","2",""
"5036","","","","","3","html-keyboard-response","523","","","","",""
"2565","fork","baboy,mgonjwa,paghago,gorisi","mgonjwa","v","3","html-keyboard-response","524","j","paghago","false","","4"
"1605.0999999046326","","","","","3","html-slider-response","525","","","","2",""
"1698","","","","","3","html-keyboard-response","526","","","","",""
"3302","sun","bendi,luha,uongo,basi","basi","n","3","html-keyboard-response","527","n","basi","true","","1"
"1342.6000003814697","","","","","3","html-slider-response","528","","","","5",""
"1388","","","","","3","html-keyboard-response","529","","","","",""
"3317","ladder","pangalan,mashua,mwanga,kamba","pangalan","f","3","html-keyboard-response","530","f","pangalan","true","","4"
"1149.8000001907349","","","","","3","html-slider-response","531","","","","2",""
"1289","","","","","3","html-keyboard-response","532","","","","",""
"4909","banana","kasamok,kazi,hagdan,twai","kazi","v","3","html-keyboard-response","533","v","kazi","true","","1"
"2898.300000190735","","","","","3","html-slider-response","534","","","","5",""
"1320","","","","","3","html-keyboard-response","535","","","","",""
"3942","pudding","abug,mpishi,iring,aibu","aibu","n","3","html-keyboard-response","536","v","mpishi","false","","4"
"1651.3999996185303","","","","","3","html-slider-response","537","","","","2",""
"1434","","","","","3","html-keyboard-response","538","","","","",""
"3070","body","nyundu,jibini,kununa,tindashan","tindashan","n","3","html-keyboard-response","539","f","nyundu","false","","4"
"1709.8000001907349","","","","","3","html-slider-response","540","","","","2",""
"4783","","","","","3","html-keyboard-response","541","","","","",""
"3007","bed","kalipay,mapintas,haraka,starehe","mapintas","v","3","html-keyboard-response","542","v","mapintas","true","","4"
"1094.7000002861023","","","","","3","html-slider-response","543","","","","2",""
"900","","","","","3","html-keyboard-response","544","","","","",""
"2606","tissue","lamigas,kisiwa,ugomvi,katika","ugomvi","j","3","html-keyboard-response","545","n","katika","false","","4"
"928.5999999046326","","","","","3","html-slider-response","546","","","","2",""
"3500","","","","","3","html-keyboard-response","547","","","","",""
"3151","candle","gabi,farasi,kupanda,geza","geza","n","3","html-keyboard-response","548","j","kupanda","false","","4"
"1450.8000001907349","","","","","3","html-slider-response","549","","","","2",""
"899","","","","","3","html-keyboard-response","550","","","","",""
"2431","tomato","chupi,chupa,mvua,takatak","mvua","j","3","html-keyboard-response","551","j","mvua","true","","1"
"1419.4000000953674","","","","","3","html-slider-response","552","","","","5",""
"4895","","","","","3","html-keyboard-response","553","","","","",""
"4678","list","wingu,alizeti,kuzama,kaso","wingu","f","3","html-keyboard-response","554","n","kaso","false","","4"
"1220.8000001907349","","","","","3","html-slider-response","555","","","","2",""
"906","","","","","3","html-keyboard-response","556","","","","",""
"5012","olive","jiwe,bata,siagi,welder","jiwe","f","3","html-keyboard-response","557","f","jiwe","true","","4"
"904.6999998092651","","","","","3","html-slider-response","558","","","","2",""
"756","","","","","3","html-keyboard-response","559","","","","",""
"2087","picture","kubwa,silya,chaki,asin","kubwa","f","3","html-keyboard-response","560","f","kubwa","true","","1"
"1744.5","","","","","3","html-slider-response","561","","","","5",""
"934","","","","","3","html-keyboard-response","562","","","","",""
"3096","page","wakala,ishiri,wimbo,skina","wimbo","j","4","html-keyboard-response","888","j","wimbo","true","",""
"1670.3999996185303","","","","","4","html-slider-response","889","","","","5",""
"5060","sheet","juuya,watu,bililhon,kamantis","bililhon","j","4","html-keyboard-response","890","j","bililhon","true","",""
"1049.1000003814697","","","","","4","html-slider-response","891","","","","2",""
"2260","ladder","pangalan,mashua,mwanga,kamba","pangalan","f","4","html-keyboard-response","892","f","pangalan","true","",""
"1418.0999999046326","","","","","4","html-slider-response","893","","","","4",""
"4796","door","tena,surali,soko,nyota","surali","v","4","html-keyboard-response","894","v","surali","true","",""
"997.5","","","","","4","html-slider-response","895","","","","2",""
"1815","spider","bunyag,mkboa,atop,kamwe","kamwe","n","4","html-keyboard-response","896","n","kamwe","true","",""
"992.4000000953674","","","","","4","html-slider-response","897","","","","5",""
"6510","picture","silya,kubwa,chaki,asin","kubwa","v","4","html-keyboard-response","898","v","kubwa","true","",""
"949.0999999046326","","","","","4","html-slider-response","899","","","","2",""
"2585","boat","hamsi,agalon,pombe,kitanda","agalon","v","4","html-keyboard-response","900","v","agalon","true","",""
"1251","","","","","4","html-slider-response","901","","","","4",""
"1519","donkey","elfu,bloke,lalake,rombus","elfu","f","4","html-keyboard-response","902","f","elfu","true","",""
"959.0999999046326","","","","","4","html-slider-response","903","","","","5",""
"3927","book","kuhesa,picha,mali,mara","mali","j","4","html-keyboard-response","904","j","mali","true","",""
"1234.2999997138977","","","","","4","html-slider-response","905","","","","4",""
"2267","cup","dagat,matumai,shimoni,jeraha","matumai","v","4","html-keyboard-response","906","v","matumai","true","",""
"1048.9000000953674","","","","","4","html-slider-response","907","","","","5",""
"2409","sun","bendi,luha,uongo,basi","basi","n","4","html-keyboard-response","908","n","basi","true","",""
"1573.1999998092651","","","","","4","html-slider-response","909","","","","5",""
"4609","pudding","aibu,abug,mpishi,iring","aibu","f","4","html-keyboard-response","910","f","aibu","true","",""
"1578.5","","","","","4","html-slider-response","911","","","","4",""
"4800","human","bado,kikapu,punguza,tinapay","tinapay","n","4","html-keyboard-response","912","n","tinapay","true","",""
"1309.8000001907349","","","","","4","html-slider-response","913","","","","5",""
"2776","squirrel","mahugaw,ukweli,hofu,kichwa","hofu","j","4","html-keyboard-response","914","j","hofu","true","",""
"1133.0999999046326","","","","","4","html-slider-response","915","","","","5",""
"3311","park","bunifu,tambok,pwani,ihalas","bunifu","f","4","html-keyboard-response","916","f","bunifu","true","",""
"3586.800000190735","","","","","4","html-slider-response","917","","","","4",""
"6696","poster","nchi,fedha,kasuko,madungog","madungog","n","4","html-keyboard-response","918","n","madungog","true","",""
"1182.5","","","","","4","html-slider-response","919","","","","4",""
"1726","wolf","lugha,kaburi,ndizi,mchuzi","lugha","f","4","html-keyboard-response","920","f","lugha","true","",""
"1845.0999999046326","","","","","4","html-slider-response","921","","","","5",""
"3968","cat","neyemba,paghukom,baki,akili","paghukom","v","4","html-keyboard-response","922","v","paghukom","true","",""
"1092","","","","","4","html-slider-response","923","","","","5",""
"2873","fish","buli,bala,baho,imani","buli","f","4","html-keyboard-response","924","f","buli","true","",""
"1228.3000001907349","","","","","4","html-slider-response","925","","","","5",""
"2057","tooth","kijiko,kabalaka,uadui,pahiyum","kabalaka","v","4","html-keyboard-response","926","v","kabalaka","true","",""
"1477.5999999046326","","","","","4","html-slider-response","927","","","","5",""
"2976","cave","ganti,maisha,nyundo,kesho","kesho","n","4","html-keyboard-response","928","n","kesho","true","",""
"968.8000001907349","","","","","4","html-slider-response","929","","","","4",""
"2940","lamp","daub,afya,bilaska,mbolea","afya","v","4","html-keyboard-response","930","f","daub","false","",""
"2017.8000001907349","","","","","4","html-slider-response","931","","","","2",""
"1953","banana","kasamok,kazi,hagdan,twai","kazi","v","4","html-keyboard-response","932","v","kazi","true","",""
"2017.4000000953674","","","","","4","html-slider-response","933","","","","5",""
"1612","bonfire","mwezi,goti,mfuko,kusanya","goti","v","4","html-keyboard-response","934","v","goti","true","",""
"1629.1999998092651","","","","","4","html-slider-response","935","","","","5",""
"2459","cop","bustani,jikoni,mechezo,bakus","mechezo","j","4","html-keyboard-response","936","j","mechezo","true","",""
"1058.7999997138977","","","","","4","html-slider-response","937","","","","5",""
"4654","marker","mapafu,maji,salita,atay","maji","v","4","html-keyboard-response","938","j","salita","false","",""
"1135.7000002861023","","","","","4","html-slider-response","939","","","","2",""
"5414","window","nanga,kujenga,kweli,umaga","kweli","j","4","html-keyboard-response","940","j","kweli","true","",""
"1318.1999998092651","","","","","4","html-slider-response","941","","","","2",""
"6031","body","nyundu,tindashan,jibini,kununa","tindashan","v","4","html-keyboard-response","942","v","tindashan","true","",""
"898.5","","","","","4","html-slider-response","943","","","","2",""
"2002","apple","ukame,estante,kisu,edad","kisu","j","4","html-keyboard-response","944","j","kisu","true","",""
"1299","","","","","4","html-slider-response","945","","","","5",""
"2494","salmon","mzungu,seri,sensilyo,baharia","sensilyo","j","4","html-keyboard-response","946","j","sensilyo","true","",""
"1102","","","","","4","html-slider-response","947","","","","5",""
"1987","bed","kalipay,haraka,mapintas,starehe","mapintas","j","4","html-keyboard-response","948","j","mapintas","true","",""
"1040.8000001907349","","","","","4","html-slider-response","949","","","","5",""
"2419","berry","abogado,kofia,nogozi,kinywa","kofia","v","4","html-keyboard-response","950","v","kofia","true","",""
"1372.5","","","","","4","html-slider-response","951","","","","5",""
"2850","mirror","rangi,kanding,furaha,sulagma","sulagma","n","4","html-keyboard-response","952","n","sulagma","true","",""
"1004.8000001907349","","","","","4","html-slider-response","953","","","","4",""
"2279","flag","ndege,trekta,mkate,kawa","trekta","v","4","html-keyboard-response","954","v","trekta","true","",""
"1077.4000000953674","","","","","4","html-slider-response","955","","","","5",""
"7007","shoulder","kelele,ndaniya,mkuu,guruwe","mkuu","j","4","html-keyboard-response","956","j","mkuu","true","",""
"1132.9000000953674","","","","","4","html-slider-response","957","","","","5",""
"4613","tissue","lamigas,kisiwa,katika,ugomvi","ugomvi","n","4","html-keyboard-response","958","v","kisiwa","false","",""
"876.9000000953674","","","","","4","html-slider-response","959","","","","2",""
"2448","notebook","msitu,kila,kemia,mdudu","kemia","j","4","html-keyboard-response","960","j","kemia","true","",""
"2688.3999996185303","","","","","4","html-slider-response","961","","","","4",""
"3731","snake","jansa,karon,mvringo,pagtukod","pagtukod","n","4","html-keyboard-response","962","n","pagtukod","true","",""
"1177.6999998092651","","","","","4","html-slider-response","963","","","","5",""
"1523","finger","simu,sufuria,moyo,lima","moyo","j","4","html-keyboard-response","964","j","moyo","true","",""
"1534.4000000953674","","","","","4","html-slider-response","965","","","","5",""
"3193","basket","kumbuka,kumba,utepe,hasira","kumba","v","4","html-keyboard-response","966","v","kumba","true","",""
"1469.7000002861023","","","","","4","html-slider-response","967","","","","5",""
"4885","curtain","mchanga,lisud,bulwawan,chubani","mchanga","f","4","html-keyboard-response","968","f","mchanga","true","",""
"1144.5","","","","","4","html-slider-response","969","","","","4",""
"2282","perfume","bino,sungura,katuyoan,ndogo","katuyoan","j","4","html-keyboard-response","970","j","katuyoan","true","",""
"991.7000002861023","","","","","4","html-slider-response","971","","","","5",""
"2758","key","miaka,goma,ahos,chombo","chombo","n","4","html-keyboard-response","972","n","chombo","true","",""
"986.1999998092651","","","","","4","html-slider-response","973","","","","4",""
"2452","olive","bata,jiwe,siagi,welder","jiwe","v","4","html-keyboard-response","974","v","jiwe","true","",""
"1134.4000000953674","","","","","4","html-slider-response","975","","","","5",""
"3207","rose","singizi,mwanake,amani,paghalad","paghalad","n","4","html-keyboard-response","976","n","paghalad","true","",""
"1163.4000000953674","","","","","4","html-slider-response","977","","","","4",""
"3100","bridge","sahani,daima,ngono,panya","sahani","f","4","html-keyboard-response","978","f","sahani","true","",""
"808.5999999046326","","","","","4","html-slider-response","979","","","","2",""
"2385","hill","kushoto,kukimba,sweta,matumbo","matumbo","n","4","html-keyboard-response","980","n","matumbo","true","",""
"1990.9000000953674","","","","","4","html-slider-response","981","","","","5",""
"3333","letter","kifua,filimbi,chuma,uhuru","kifua","f","4","html-keyboard-response","982","f","kifua","true","",""
"1179.2999997138977","","","","","4","html-slider-response","983","","","","4",""
"2123","sock","ndoora,kimysa,mtirka,mamba","mamba","n","4","html-keyboard-response","984","n","mamba","true","",""
"1130.5","","","","","4","html-slider-response","985","","","","5",""
"4147","fork","baboy,mgonjwa,paghago,gorisi","mgonjwa","v","4","html-keyboard-response","986","f","baboy","false","",""
"1224.3999996185303","","","","","4","html-slider-response","987","","","","2",""
"3863","box","kuacha,adui,rafiki,kitande","adui","v","4","html-keyboard-response","988","n","kitande","false","",""
"1651.9000000953674","","","","","4","html-slider-response","989","","","","2",""
"2164","gift","pagtawag,baba,nyange,baso","pagtawag","f","4","html-keyboard-response","990","f","pagtawag","true","",""
"1132.5999999046326","","","","","4","html-slider-response","991","","","","5",""
"2915","bucket","baga,kiatu,ijayo,init","kiatu","v","4","html-keyboard-response","992","v","kiatu","true","",""
"1000.3000001907349","","","","","4","html-slider-response","993","","","","4",""
"2180","shop","nopya,samaki,kerida,ndezu","samaki","v","4","html-keyboard-response","994","v","samaki","true","",""
"1017.5","","","","","4","html-slider-response","995","","","","4",""
"3538","puppet","napulo,mazishi,lamok,godoro","mazishi","v","4","html-keyboard-response","996","v","mazishi","true","",""
"1192.0999999046326","","","","","4","html-slider-response","997","","","","5",""
"1878","nose","sehemu,gubat,kopa,kidole","sehemu","f","4","html-keyboard-response","998","f","sehemu","true","",""
"1137.4000000953674","","","","","4","html-slider-response","999","","","","5",""
"3458","music","baiski,mraba,mageho,tumbo","baiski","f","4","html-keyboard-response","1000","f","baiski","true","",""
"933.5","","","","","4","html-slider-response","1001","","","","2",""
"4448","dog","lubi,washia,bahari,kalamu","bahari","j","4","html-keyboard-response","1002","j","bahari","true","",""
"1517.7000002861023","","","","","4","html-slider-response","1003","","","","4",""
"2883","eel","ishara,kunywa,msumari,kabuang","msumari","j","4","html-keyboard-response","1004","j","msumari","true","",""
"1004.0999999046326","","","","","4","html-slider-response","1005","","","","5",""
"3130","number","shule,mundamo,kengele,choori","mundamo","v","4","html-keyboard-response","1006","v","mundamo","true","",""
"1508","","","","","4","html-slider-response","1007","","","","2",""
"3038","tomato","mvua,chupi,chupa,takatak","mvua","f","4","html-keyboard-response","1008","f","mvua","true","",""
"873.0999999046326","","","","","4","html-slider-response","1009","","","","4",""
"1771","coffin","barua,tubag,hulma,kioo","kioo","n","4","html-keyboard-response","1010","n","kioo","true","",""
"1006.5","","","","","4","html-slider-response","1011","","","","5",""
"6087","knee","duka,mvuke,kubale,bili","duka","f","4","html-keyboard-response","1012","n","bili","false","",""
"1837.6999998092651","","","","","4","html-slider-response","1013","","","","2",""
"3120","woman","bandari,bituin,pagtabon,kovuli","pagtabon","j","4","html-keyboard-response","1014","j","pagtabon","true","",""
"1008.5","","","","","4","html-slider-response","1015","","","","4",""
"5253","stone","ulimwengu,wingi,mkasi,asili","wingi","v","4","html-keyboard-response","1016","v","wingi","true","",""
"1369.1999998092651","","","","","4","html-slider-response","1017","","","","4",""
"3268","bread","dari,kaili,dizeli,bugas","dari","f","4","html-keyboard-response","1018","f","dari","true","",""
"950.1999998092651","","","","","4","html-slider-response","1019","","","","4",""
"2613","triangle","kihozi,bentaha,kasadpan,liog","kasadpan","j","4","html-keyboard-response","1020","j","kasadpan","true","",""
"1180.0999999046326","","","","","4","html-slider-response","1021","","","","5",""
"2194","scissors","duga,mtawa,tanuri,suga","tanuri","j","4","html-keyboard-response","1022","j","tanuri","true","",""
"1908.5999999046326","","","","","4","html-slider-response","1023","","","","5",""
"2984","giraffe","mahitabo,daraja,jumatu,hangyo","mahitabo","f","4","html-keyboard-response","1024","f","mahitabo","true","",""
"896","","","","","4","html-slider-response","1025","","","","4",""
"2427","flower","tamasha,lobo,usiku,bega","bega","n","4","html-keyboard-response","1026","n","bega","true","",""
"1294.6999998092651","","","","","4","html-slider-response","1027","","","","5",""
"5100","candle","gabi,farasi,kupanda,geza","geza","n","4","html-keyboard-response","1028","n","geza","true","",""
"1111.9000000953674","","","","","4","html-slider-response","1029","","","","2",""
"6998","mother","kahawa,babaye,mbuzi,jokofu","babaye","v","4","html-keyboard-response","1030","v","babaye","true","",""
"1715.2999997138977","","","","","4","html-slider-response","1031","","","","5",""
"2344","towel","tembo,funzi,pito,pagpalit","pagpalit","n","4","html-keyboard-response","1032","n","pagpalit","true","",""
"984.0999999046326","","","","","4","html-slider-response","1033","","","","4",""
"6563","elephant","petye,pagduol,kito,suka","kito","j","4","html-keyboard-response","1034","j","kito","true","",""
"1848.4000000953674","","","","","4","html-slider-response","1035","","","","5",""
"9684","shelf","bungtod,kadaot,awit,pamahaw","pamahaw","n","4","html-keyboard-response","1036","n","pamahaw","true","",""
"1669.1000003814697","","","","","4","html-slider-response","1037","","","","5",""
"6390","mosquito","isda,taras,gutom,martilyo","martilyo","n","4","html-keyboard-response","1038","n","martilyo","true","",""
"1148.9000000953674","","","","","4","html-slider-response","1039","","","","5",""
"3416","column","pundok,ufagio,dila,pala","ufagio","v","4","html-keyboard-response","1040","v","ufagio","true","",""
"1101.6999998092651","","","","","4","html-slider-response","1041","","","","5",""
"2826","pants","pintal,haki,chuki,hari","haki","v","4","html-keyboard-response","1042","v","haki","true","",""
"1159.3000001907349","","","","","4","html-slider-response","1043","","","","5",""
"2403","list","alizeti,kuzama,wingu,kaso","wingu","j","4","html-keyboard-response","1044","j","wingu","true","",""
"1212.4000000953674","","","","","4","html-slider-response","1045","","","","5",""
"2559","bank","silingan,kudhibi,tualya,ofisi","silingan","f","4","html-keyboard-response","1046","f","silingan","true","",""
"1220","","","","","4","html-slider-response","1047","","","","5",""
"3699","clock","kartasi,mbwa,abang,osha","mbwa","v","4","html-keyboard-response","1048","v","mbwa","true","",""
"1233","","","","","4","html-slider-response","1049","","","","5",""
"3338","ceiling","kugita,maua,kawaida,rayna","maua","v","4","html-keyboard-response","1050","v","maua","true","",""
"907.3000001907349","","","","","4","html-slider-response","1051","","","","4",""
"2121","train","itik,dakika,sayari,mungu","sayari","j","4","html-keyboard-response","1052","j","sayari","true","",""
"1351.5999999046326","","","","","4","html-slider-response","1053","","","","5",""
"2472","magazine","gundi,mchawi,kiti,bahandi","kiti","j","4","html-keyboard-response","1054","j","kiti","true","",""
"1287.5","","","","","4","html-slider-response","1055","","","","5",""
"2566","office","leso,hazini,yatima,kuna","leso","f","4","html-keyboard-response","1056","f","leso","true","",""
"1259.0999999046326","","","","","4","html-slider-response","1057","","","","5",""
"7085","wheel","bafuni,punda,tawo,baadaye","bafuni","f","4","html-keyboard-response","1058","f","bafuni","true","",""
"2431.6000003814697","","","","","4","html-slider-response","1059","","","","2",""
"6437","spoon","betri,nzuri,ngazi,pagsulod","pagsulod","n","4","html-keyboard-response","1060","n","pagsulod","true","",""
"1583.5","","","","","4","html-slider-response","1061","","","","5",""
"3045","hammer","napakyas,mekno,kitovu,layag","napakyas","f","4","html-keyboard-response","1062","f","napakyas","true","",""
"1166.3000001907349","","","","","4","html-slider-response","1063","","","","2",""
"5183","cigar","ndugu,kuta,mlango,adhabu","adhabu","n","4","html-keyboard-response","1064","n","adhabu","true","",""
"1139.0999999046326","","","","","4","html-slider-response","1065","","","","2",""
"5600","shoe","nyeusi,hatua,kama,uyoga","uyoga","n","4","html-keyboard-response","1066","f","nyeusi","false","",""
"1196.1999998092651","","","","","4","html-slider-response","1067","","","","2",""
"3185","list","alizeti,kuzama,kaso,wingu","wingu","n","5","html-keyboard-response","1069","n","wingu","true","",""
"2182.2000002861023","","","","","5","html-slider-response","1070","","","","2",""
"2109","number","shule,mundamo,kengele,choori","mundamo","v","5","html-keyboard-response","1071","v","mundamo","true","",""
"1257.6999998092651","","","","","5","html-slider-response","1072","","","","2",""
"1747","apple","ukame,estante,edad,kisu","kisu","n","5","html-keyboard-response","1073","n","kisu","true","",""
"1066.8000001907349","","","","","5","html-slider-response","1074","","","","5",""
"3340","knee","mvuke,kubale,bili,duka","duka","n","5","html-keyboard-response","1075","j","bili","false","",""
"1092.1999998092651","","","","","5","html-slider-response","1076","","","","4",""
"2118","tooth","kabalaka,kijiko,uadui,pahiyum","kabalaka","f","5","html-keyboard-response","1077","f","kabalaka","true","",""
"1085.2999997138977","","","","","5","html-slider-response","1078","","","","5",""
"2415","berry","abogado,nogozi,kinywa,kofia","kofia","n","5","html-keyboard-response","1079","n","kofia","true","",""
"1268.6999998092651","","","","","5","html-slider-response","1080","","","","5",""
"3810","bridge","daima,ngono,panya,sahani","sahani","n","5","html-keyboard-response","1081","n","sahani","true","",""
"2143.7999997138977","","","","","5","html-slider-response","1082","","","","2",""
"6830","perfume","bino,sungura,ndogo,katuyoan","katuyoan","n","5","html-keyboard-response","1083","n","katuyoan","true","",""
"1207.5999999046326","","","","","5","html-slider-response","1084","","","","5",""
"4254","ladder","mashua,mwanga,pangalan,kamba","pangalan","j","5","html-keyboard-response","1085","j","pangalan","true","",""
"1021.1999998092651","","","","","5","html-slider-response","1086","","","","2",""
"2096","pants","pintal,haki,chuki,hari","haki","v","5","html-keyboard-response","1087","v","haki","true","",""
"1048.6999998092651","","","","","5","html-slider-response","1088","","","","5",""
"2741","salmon","sensilyo,mzungu,seri,baharia","sensilyo","f","5","html-keyboard-response","1089","f","sensilyo","true","",""
"1082","","","","","5","html-slider-response","1090","","","","5",""
"1523","coffin","barua,kioo,tubag,hulma","kioo","v","5","html-keyboard-response","1091","v","kioo","true","",""
"1865.8000001907349","","","","","5","html-slider-response","1092","","","","5",""
"3356","park","tambok,pwani,bunifu,ihalas","bunifu","j","5","html-keyboard-response","1093","j","bunifu","true","",""
"1044.2000002861023","","","","","5","html-slider-response","1094","","","","2",""
"1720","giraffe","daraja,mahitabo,jumatu,hangyo","mahitabo","v","5","html-keyboard-response","1095","v","mahitabo","true","",""
"880.0999999046326","","","","","5","html-slider-response","1096","","","","4",""
"2710","mirror","rangi,kanding,sulagma,furaha","sulagma","j","5","html-keyboard-response","1097","v","kanding","false","",""
"1447.0999999046326","","","","","5","html-slider-response","1098","","","","2",""
"2598","ceiling","kugita,kawaida,maua,rayna","maua","j","5","html-keyboard-response","1099","j","maua","true","",""
"1627.6999998092651","","","","","5","html-slider-response","1100","","","","4",""
"2527","marker","maji,mapafu,salita,atay","maji","f","5","html-keyboard-response","1101","v","mapafu","false","",""
"976.0999999046326","","","","","5","html-slider-response","1102","","","","2",""
"2164","sock","mamba,ndoora,kimysa,mtirka","mamba","f","5","html-keyboard-response","1103","f","mamba","true","",""
"1265.6999998092651","","","","","5","html-slider-response","1104","","","","5",""
"8499","cop","bustani,mechezo,jikoni,bakus","mechezo","v","5","html-keyboard-response","1105","v","mechezo","true","",""
"1439.2999997138977","","","","","5","html-slider-response","1106","","","","5",""
"9988","gift","baba,nyange,baso,pagtawag","pagtawag","n","5","html-keyboard-response","1107","n","pagtawag","true","",""
"2296.9000000953674","","","","","5","html-slider-response","1108","","","","5",""
"4468","notebook","msitu,kila,mdudu,kemia","kemia","n","5","html-keyboard-response","1109","n","kemia","true","",""
"1386.7999997138977","","","","","5","html-slider-response","1110","","","","5",""
"2851","bank","kudhibi,silingan,tualya,ofisi","silingan","v","5","html-keyboard-response","1111","v","silingan","true","",""
"1238.7000002861023","","","","","5","html-slider-response","1112","","","","5",""
"3383","letter","kifua,filimbi,chuma,uhuru","kifua","f","5","html-keyboard-response","1113","f","kifua","true","",""
"1399.5999999046326","","","","","5","html-slider-response","1114","","","","2",""
"3964","candle","geza,gabi,farasi,kupanda","geza","f","5","html-keyboard-response","1115","n","kupanda","false","",""
"1282.5","","","","","5","html-slider-response","1116","","","","2",""
"1505","bread","dari,kaili,dizeli,bugas","dari","f","5","html-keyboard-response","1117","f","dari","true","",""
"838","","","","","5","html-slider-response","1118","","","","4",""
"2504","snake","pagtukod,jansa,karon,mvringo","pagtukod","f","5","html-keyboard-response","1119","f","pagtukod","true","",""
"946.7000002861023","","","","","5","html-slider-response","1120","","","","5",""
"4273","rose","singizi,mwanake,amani,paghalad","paghalad","n","5","html-keyboard-response","1121","n","paghalad","true","",""
"1022.7000002861023","","","","","5","html-slider-response","1122","","","","5",""
"4271","hill","kushoto,matumbo,kukimba,sweta","matumbo","v","5","html-keyboard-response","1123","v","matumbo","true","",""
"1044.8000001907349","","","","","5","html-slider-response","1124","","","","5",""
"4488","train","itik,sayari,dakika,mungu","sayari","v","5","html-keyboard-response","1125","v","sayari","true","",""
"1658.7999997138977","","","","","5","html-slider-response","1126","","","","5",""
"3691","shop","nopya,samaki,kerida,ndezu","samaki","v","5","html-keyboard-response","1127","v","samaki","true","",""
"1400.3000001907349","","","","","5","html-slider-response","1128","","","","5",""
"3202","nose","gubat,sehemu,kopa,kidole","sehemu","v","5","html-keyboard-response","1129","v","sehemu","true","",""
"1801.0999999046326","","","","","5","html-slider-response","1130","","","","5",""
"2909","boat","hamsi,pombe,kitanda,agalon","agalon","n","5","html-keyboard-response","1131","n","agalon","true","",""
"882.9000000953674","","","","","5","html-slider-response","1132","","","","4",""
"1672","body","nyundu,jibini,tindashan,kununa","tindashan","j","5","html-keyboard-response","1133","j","tindashan","true","",""
"1603.1999998092651","","","","","5","html-slider-response","1134","","","","4",""
"1944","bed","kalipay,haraka,starehe,mapintas","mapintas","n","5","html-keyboard-response","1135","n","mapintas","true","",""
"2169.300000190735","","","","","5","html-slider-response","1136","","","","5",""
"2166","squirrel","mahugaw,hofu,ukweli,kichwa","hofu","v","5","html-keyboard-response","1137","v","hofu","true","",""
"1621.6999998092651","","","","","5","html-slider-response","1138","","","","5",""
"3877","window","nanga,kweli,kujenga,umaga","kweli","v","5","html-keyboard-response","1139","v","kweli","true","",""
"995.1999998092651","","","","","5","html-slider-response","1140","","","","2",""
"1608","bonfire","mwezi,mfuko,goti,kusanya","goti","j","5","html-keyboard-response","1141","j","goti","true","",""
"1026.4000000953674","","","","","5","html-slider-response","1142","","","","5",""
"1795","fish","bala,baho,imani,buli","buli","n","5","html-keyboard-response","1143","n","buli","true","",""
"1118","","","","","5","html-slider-response","1144","","","","5",""
"1713","cat","neyemba,baki,akili,paghukom","paghukom","n","5","html-keyboard-response","1145","n","paghukom","true","",""
"1308.6999998092651","","","","","5","html-slider-response","1146","","","","5",""
"2546","spider","kamwe,bunyag,mkboa,atop","kamwe","f","5","html-keyboard-response","1147","f","kamwe","true","",""
"1108","","","","","5","html-slider-response","1148","","","","5",""
"1926","eel","ishara,msumari,kunywa,kabuang","msumari","v","5","html-keyboard-response","1149","v","msumari","true","",""
"1384.6999998092651","","","","","5","html-slider-response","1150","","","","5",""
"1754","woman","bandari,bituin,kovuli,pagtabon","pagtabon","n","5","html-keyboard-response","1151","n","pagtabon","true","",""
"1485.5999999046326","","","","","5","html-slider-response","1152","","","","5",""
"1288","magazine","gundi,mchawi,kiti,bahandi","kiti","j","5","html-keyboard-response","1153","j","kiti","true","",""
"1388.5","","","","","5","html-slider-response","1154","","","","5",""
"2554","pudding","abug,mpishi,iring,aibu","aibu","n","5","html-keyboard-response","1155","n","aibu","true","",""
"1246.2000002861023","","","","","5","html-slider-response","1156","","","","5",""
"3340","lamp","daub,afya,bilaska,mbolea","afya","v","5","html-keyboard-response","1157","v","afya","true","",""
"1076.3000001907349","","","","","5","html-slider-response","1158","","","","2",""
"2530","cave","kesho,ganti,maisha,nyundo","kesho","f","5","html-keyboard-response","1159","f","kesho","true","",""
"949.0999999046326","","","","","5","html-slider-response","1160","","","","2",""
"1534","shoulder","kelele,ndaniya,mkuu,guruwe","mkuu","j","5","html-keyboard-response","1161","j","mkuu","true","",""
"1120.1999998092651","","","","","5","html-slider-response","1162","","","","5",""
"2957","stone","ulimwengu,wingi,mkasi,asili","wingi","v","5","html-keyboard-response","1163","v","wingi","true","",""
"2256.5999999046326","","","","","5","html-slider-response","1164","","","","4",""
"2020","column","pundok,dila,ufagio,pala","ufagio","j","5","html-keyboard-response","1165","j","ufagio","true","",""
"1122.7000002861023","","","","","5","html-slider-response","1166","","","","5",""
"2556","page","wakala,ishiri,wimbo,skina","wimbo","j","5","html-keyboard-response","1167","j","wimbo","true","",""
"1198.5999999046326","","","","","5","html-slider-response","1168","","","","5",""
"4483","shoe","uyoga,nyeusi,hatua,kama","uyoga","f","5","html-keyboard-response","1169","f","uyoga","true","",""
"1494.4000000953674","","","","","5","html-slider-response","1170","","","","2",""
"2638","clock","kartasi,abang,osha,mbwa","mbwa","n","5","html-keyboard-response","1171","n","mbwa","true","",""
"1266","","","","","5","html-slider-response","1172","","","","5",""
"2172","towel","tembo,funzi,pito,pagpalit","pagpalit","n","5","html-keyboard-response","1173","n","pagpalit","true","",""
"1299.5","","","","","5","html-slider-response","1174","","","","4",""
"1705","tomato","chupi,chupa,mvua,takatak","mvua","j","5","html-keyboard-response","1175","j","mvua","true","",""
"1247.0999999046326","","","","","5","html-slider-response","1176","","","","5",""
"2447","bucket","baga,ijayo,kiatu,init","kiatu","j","5","html-keyboard-response","1177","j","kiatu","true","",""
"2375.699999809265","","","","","5","html-slider-response","1178","","","","4",""
"1453","finger","simu,sufuria,moyo,lima","moyo","j","5","html-keyboard-response","1179","j","moyo","true","",""
"986.1999998092651","","","","","5","html-slider-response","1180","","","","5",""
"2163","mother","kahawa,mbuzi,jokofu,babaye","babaye","n","5","html-keyboard-response","1181","n","babaye","true","",""
"1222.5","","","","","5","html-slider-response","1182","","","","5",""
"3134","human","bado,tinapay,kikapu,punguza","tinapay","v","5","html-keyboard-response","1183","v","tinapay","true","",""
"1129","","","","","5","html-slider-response","1184","","","","5",""
"1750","sun","bendi,luha,basi,uongo","basi","j","5","html-keyboard-response","1185","j","basi","true","",""
"991.1999998092651","","","","","5","html-slider-response","1186","","","","5",""
"2421","fork","mgonjwa,baboy,paghago,gorisi","mgonjwa","f","5","html-keyboard-response","1187","j","paghago","false","",""
"997.3999996185303","","","","","5","html-slider-response","1188","","","","4",""
"1576","donkey","elfu,bloke,lalake,rombus","elfu","f","5","html-keyboard-response","1189","f","elfu","true","",""
"997.6999998092651","","","","","5","html-slider-response","1190","","","","5",""
"2247","wolf","kaburi,ndizi,mchuzi,lugha","lugha","n","5","html-keyboard-response","1191","n","lugha","true","",""
"1147.0999999046326","","","","","5","html-slider-response","1192","","","","5",""
"3501","cigar","ndugu,adhabu,kuta,mlango","adhabu","v","5","html-keyboard-response","1193","v","adhabu","true","",""
"1169.1999998092651","","","","","5","html-slider-response","1194","","","","2",""
"2399","olive","bata,jiwe,siagi,welder","jiwe","v","5","html-keyboard-response","1195","v","jiwe","true","",""
"1207.7999997138977","","","","","5","html-slider-response","1196","","","","5",""
"3373","key","miaka,goma,chombo,ahos","chombo","j","5","html-keyboard-response","1197","j","chombo","true","",""
"1034.6999998092651","","","","","5","html-slider-response","1198","","","","2",""
"2731","door","tena,soko,nyota,surali","surali","n","5","html-keyboard-response","1199","n","surali","true","",""
"1887.5999999046326","","","","","5","html-slider-response","1200","","","","2",""
"3518","wheel","bafuni,punda,tawo,baadaye","bafuni","f","5","html-keyboard-response","1201","v","punda","false","",""
"1220.2000002861023","","","","","5","html-slider-response","1202","","","","4",""
"2225","basket","kumbuka,utepe,kumba,hasira","kumba","j","5","html-keyboard-response","1203","j","kumba","true","",""
"1032.9000000953674","","","","","5","html-slider-response","1204","","","","5",""
"1916","elephant","petye,kito,pagduol,suka","kito","v","5","html-keyboard-response","1205","v","kito","true","",""
"2044.2999997138977","","","","","5","html-slider-response","1206","","","","5",""
"1931","office","hazini,yatima,kuna,leso","leso","n","5","html-keyboard-response","1207","n","leso","true","",""
"1054.9000000953674","","","","","5","html-slider-response","1208","","","","5",""
"8563","music","mraba,mageho,baiski,tumbo","baiski","j","5","html-keyboard-response","1209","j","baiski","true","",""
"1482.1999998092651","","","","","5","html-slider-response","1210","","","","4",""
"2801","tissue","lamigas,ugomvi,kisiwa,katika","ugomvi","v","5","html-keyboard-response","1211","j","kisiwa","false","",""
"973.0999999046326","","","","","5","html-slider-response","1212","","","","2",""
"3032","curtain","lisud,bulwawan,mchanga,chubani","mchanga","j","5","html-keyboard-response","1213","j","mchanga","true","",""
"1834.6000003814697","","","","","5","html-slider-response","1214","","","","2",""
"1883","flag","ndege,trekta,mkate,kawa","trekta","v","5","html-keyboard-response","1215","v","trekta","true","",""
"1727.8999996185303","","","","","5","html-slider-response","1216","","","","5",""
"3516","dog","bahari,lubi,washia,kalamu","bahari","f","5","html-keyboard-response","1217","f","bahari","true","",""
"1244.5","","","","","5","html-slider-response","1218","","","","5",""
"1776","cup","dagat,shimoni,jeraha,matumai","matumai","n","5","html-keyboard-response","1219","n","matumai","true","",""
"1039.4000000953674","","","","","5","html-slider-response","1220","","","","5",""
"2431","sheet","bililhon,juuya,watu,kamantis","bililhon","f","5","html-keyboard-response","1221","f","bililhon","true","",""
"1037.5999999046326","","","","","5","html-slider-response","1222","","","","4",""
"1722","spoon","betri,nzuri,pagsulod,ngazi","pagsulod","j","5","html-keyboard-response","1223","j","pagsulod","true","",""
"1358.3000001907349","","","","","5","html-slider-response","1224","","","","4",""
"2363","flower","tamasha,bega,lobo,usiku","bega","v","5","html-keyboard-response","1225","v","bega","true","",""
"2110.5999999046326","","","","","5","html-slider-response","1226","","","","5",""
"6518","picture","kubwa,silya,chaki,asin","kubwa","f","5","html-keyboard-response","1227","v","silya","false","",""
"1492.1999998092651","","","","","5","html-slider-response","1228","","","","2",""
"1764","puppet","napulo,lamok,godoro,mazishi","mazishi","n","5","html-keyboard-response","1229","n","mazishi","true","",""
"1293.5999999046326","","","","","5","html-slider-response","1230","","","","5",""
"1568","banana","kasamok,hagdan,kazi,twai","kazi","j","5","html-keyboard-response","1231","j","kazi","true","",""
"1004.5","","","","","5","html-slider-response","1232","","","","5",""
"2273","book","kuhesa,mali,picha,mara","mali","v","5","html-keyboard-response","1233","v","mali","true","",""
"940.9000000953674","","","","","5","html-slider-response","1234","","","","2",""
"1734","triangle","kasadpan,kihozi,bentaha,liog","kasadpan","f","5","html-keyboard-response","1235","f","kasadpan","true","",""
"1004.5999999046326","","","","","5","html-slider-response","1236","","","","5",""
"1640","poster","nchi,madungog,fedha,kasuko","madungog","v","5","html-keyboard-response","1237","v","madungog","true","",""
"917.4000000953674","","","","","5","html-slider-response","1238","","","","5",""
"5472","box","adui,kuacha,rafiki,kitande","adui","f","5","html-keyboard-response","1239","n","kitande","false","",""
"2281.800000190735","","","","","5","html-slider-response","1240","","","","2",""
"1443","mosquito","isda,taras,gutom,martilyo","martilyo","n","5","html-keyboard-response","1241","n","martilyo","true","",""
"1349.8999996185303","","","","","5","html-slider-response","1242","","","","5",""
"4071","shelf","bungtod,kadaot,pamahaw,awit","pamahaw","j","5","html-keyboard-response","1243","j","pamahaw","true","",""
"1263.5","","","","","5","html-slider-response","1244","","","","5",""
"2357","scissors","duga,tanuri,mtawa,suga","tanuri","v","5","html-keyboard-response","1245","v","tanuri","true","",""
"1224.0999999046326","","","","","5","html-slider-response","1246","","","","5",""
"4484","hammer","napakyas,mekno,kitovu,layag","napakyas","f","5","html-keyboard-response","1247","f","napakyas","true","",""
"1188.7999997138977","","","","","5","html-slider-response","1248","","","","2",""
