rt,en_word,options,swa_word,correct_answer,phase,trial_type,trial_index,input_answer,input_word,accuracy,certainty,amt_choices
5204,bonfire,"mwezi,mfuko,kusanya,goti",goti,n,2,html-keyboard-response,106,n,goti,TRUE,,
8066,,,,,2,html-slider-response,107,,,,4,
13523,flower,"tamasha,bega,lobo,usiku",bega,v,2,html-keyboard-response,108,f,tamasha,FALSE,,
4619.3,,,,,2,html-slider-response,109,,,,2,
11158,column,"pundok,ufagio,dila,pala",ufagio,v,2,html-keyboard-response,110,v,ufagio,TRUE,,
3746.4,,,,,2,html-slider-response,111,,,,2,
10286,music,"mraba,mageho,tumbo,baiski",baiski,n,2,html-keyboard-response,112,n,baiski,TRUE,,
11957.4,,,,,2,html-slider-response,113,,,,4,
15347,spider,"bunyag,kamwe,mkboa,atop",kamwe,v,2,html-keyboard-response,114,v,kamwe,TRUE,,
9564.1,,,,,2,html-slider-response,115,,,,2,
7543,fork,"mgonjwa,baboy,paghago,gorisi",mgonjwa,f,2,html-keyboard-response,116,v,baboy,FALSE,,
4837.2,,,,,2,html-slider-response,117,,,,1,
6913,mosquito,"isda,martilyo,taras,gutom",martilyo,v,2,html-keyboard-response,118,n,gutom,FALSE,,
10641.1,,,,,2,html-slider-response,119,,,,2,
7918,banana,"kasamok,kazi,hagdan,twai",kazi,v,2,html-keyboard-response,120,f,kasamok,FALSE,,
4199,,,,,2,html-slider-response,121,,,,2,
7877,cup,"dagat,shimoni,matumai,jeraha",matumai,j,2,html-keyboard-response,122,f,dagat,FALSE,,
4165.3,,,,,2,html-slider-response,123,,,,2,
8079,shop,"nopya,kerida,ndezu,samaki",samaki,n,2,html-keyboard-response,124,n,samaki,TRUE,,
12608.3,,,,,2,html-slider-response,125,,,,2,
7517,elephant,"petye,pagduol,suka,kito",kito,n,2,html-keyboard-response,126,v,pagduol,FALSE,,
3598,,,,,2,html-slider-response,127,,,,2,
4693,bucket,"kiatu,baga,ijayo,init",kiatu,f,2,html-keyboard-response,128,v,baga,FALSE,,
4633.6,,,,,2,html-slider-response,129,,,,2,
4788,book,"kuhesa,picha,mali,mara",mali,j,2,html-keyboard-response,130,v,picha,FALSE,,
3049.2,,,,,2,html-slider-response,131,,,,2,
4833,mirror,"rangi,kanding,sulagma,furaha",sulagma,j,2,html-keyboard-response,132,n,furaha,FALSE,,
3366.9,,,,,2,html-slider-response,133,,,,2,
9664,office,"hazini,yatima,leso,kuna",leso,j,2,html-keyboard-response,134,n,kuna,FALSE,,
3615.1,,,,,2,html-slider-response,135,,,,2,
3526,body,"nyundu,jibini,tindashan,kununa",tindashan,j,2,html-keyboard-response,136,v,jibini,FALSE,,
4344.9,,,,,2,html-slider-response,137,,,,2,
9405,perfume,"bino,sungura,katuyoan,ndogo",katuyoan,j,2,html-keyboard-response,138,v,sungura,FALSE,,
3319.3,,,,,2,html-slider-response,139,,,,2,
7286,olive,"bata,siagi,welder,jiwe",jiwe,n,2,html-keyboard-response,140,n,jiwe,TRUE,,
4422.2,,,,,2,html-slider-response,141,,,,2,
3940,magazine,"gundi,kiti,mchawi,bahandi",kiti,v,2,html-keyboard-response,142,j,mchawi,FALSE,,
8545.2,,,,,2,html-slider-response,143,,,,3,
11767,bread,"kaili,dizeli,dari,bugas",dari,j,2,html-keyboard-response,144,n,bugas,FALSE,,
13866.1,,,,,2,html-slider-response,145,,,,2,
5839,cave,"ganti,maisha,kesho,nyundo",kesho,j,2,html-keyboard-response,146,f,ganti,FALSE,,
3534.6,,,,,2,html-slider-response,147,,,,2,
3689,ladder,"pangalan,mashua,mwanga,kamba",pangalan,f,2,html-keyboard-response,148,f,pangalan,TRUE,,
4566.2,,,,,2,html-slider-response,149,,,,5,
3527,human,"bado,kikapu,tinapay,punguza",tinapay,j,2,html-keyboard-response,150,j,tinapay,TRUE,,
3979.2,,,,,2,html-slider-response,151,,,,5,
6765,clock,"mbwa,kartasi,abang,osha",mbwa,f,2,html-keyboard-response,152,f,mbwa,TRUE,,
3224.2,,,,,2,html-slider-response,153,,,,2,
4036,shelf,"bungtod,kadaot,pamahaw,awit",pamahaw,j,2,html-keyboard-response,154,v,kadaot,FALSE,,
2906.4,,,,,2,html-slider-response,155,,,,2,
4989,salmon,"sensilyo,mzungu,seri,baharia",sensilyo,f,2,html-keyboard-response,156,f,sensilyo,TRUE,,
4507.5,,,,,2,html-slider-response,157,,,,2,
5825,coffin,"barua,tubag,kioo,hulma",kioo,j,2,html-keyboard-response,158,f,barua,FALSE,,
13194.9,,,,,2,html-slider-response,159,,,,2,
5164,notebook,"msitu,kila,kemia,mdudu",kemia,j,2,html-keyboard-response,160,j,kemia,TRUE,,
14150.9,,,,,2,html-slider-response,161,,,,2,
3900,shoulder,"kelele,mkuu,ndaniya,guruwe",mkuu,v,2,html-keyboard-response,162,n,guruwe,FALSE,,
3027.3,,,,,2,html-slider-response,163,,,,2,
4951,park,"tambok,pwani,ihalas,bunifu",bunifu,n,2,html-keyboard-response,164,f,tambok,FALSE,,
4784.4,,,,,2,html-slider-response,165,,,,2,
4681,number,"mundamo,shule,kengele,choori",mundamo,f,2,html-keyboard-response,166,f,mundamo,TRUE,,
15656.8,,,,,2,html-slider-response,167,,,,1,
4279,apple,"kisu,ukame,estante,edad",kisu,f,2,html-keyboard-response,168,f,kisu,TRUE,,
3041.4,,,,,2,html-slider-response,169,,,,2,
9239,letter,"filimbi,chuma,uhuru,kifua",kifua,n,2,html-keyboard-response,170,f,filimbi,FALSE,,
4122.4,,,,,2,html-slider-response,171,,,,2,
5585,eel,"msumari,ishara,kunywa,kabuang",msumari,f,2,html-keyboard-response,172,f,msumari,TRUE,,
2943.9,,,,,2,html-slider-response,173,,,,2,
7970,cop,"bustani,jikoni,bakus,mechezo",mechezo,n,2,html-keyboard-response,174,j,bakus,FALSE,,
3005.4,,,,,2,html-slider-response,175,,,,2,
4823,wolf,"kaburi,ndizi,mchuzi,lugha",lugha,n,2,html-keyboard-response,176,f,kaburi,FALSE,,
3283.3,,,,,2,html-slider-response,177,,,,1,
7888,squirrel,"hofu,mahugaw,ukweli,kichwa",hofu,f,2,html-keyboard-response,178,n,kichwa,FALSE,,
4741,,,,,2,html-slider-response,179,,,,3,
7879,nose,"gubat,kopa,sehemu,kidole",sehemu,j,2,html-keyboard-response,180,v,kopa,FALSE,,
4479.1,,,,,2,html-slider-response,181,,,,1,
5051,sock,"ndoora,mamba,kimysa,mtirka",mamba,v,2,html-keyboard-response,182,j,kimysa,FALSE,,
3941.1,,,,,2,html-slider-response,183,,,,2,
5655,bank,"kudhibi,tualya,silingan,ofisi",silingan,j,2,html-keyboard-response,184,v,tualya,FALSE,,
3727.7,,,,,2,html-slider-response,185,,,,2,
5547,donkey,"elfu,bloke,lalake,rombus",elfu,f,2,html-keyboard-response,186,f,elfu,TRUE,,
3905.3,,,,,2,html-slider-response,187,,,,2,
9612,poster,"madungog,nchi,fedha,kasuko",madungog,f,2,html-keyboard-response,188,n,kasuko,FALSE,,
3757.5,,,,,2,html-slider-response,189,,,,1,
5193,puppet,"napulo,lamok,godoro,mazishi",mazishi,n,2,html-keyboard-response,190,v,lamok,FALSE,,
5123.6,,,,,2,html-slider-response,191,,,,2,
3140,hill,"kushoto,matumbo,kukimba,sweta",matumbo,v,2,html-keyboard-response,192,v,matumbo,TRUE,,
4318.8,,,,,2,html-slider-response,193,,,,5,
9735,tooth,"kijiko,uadui,pahiyum,kabalaka",kabalaka,n,2,html-keyboard-response,194,v,uadui,FALSE,,
3555.1,,,,,2,html-slider-response,195,,,,1,
10319,woman,"bandari,bituin,kovuli,pagtabon",pagtabon,n,2,html-keyboard-response,196,f,bandari,FALSE,,
2987.6,,,,,2,html-slider-response,197,,,,1,
5905,wheel,"punda,tawo,baadaye,bafuni",bafuni,n,2,html-keyboard-response,198,n,bafuni,TRUE,,
4163.8,,,,,2,html-slider-response,199,,,,1,
6165,mother,"kahawa,mbuzi,babaye,jokofu",babaye,j,2,html-keyboard-response,200,j,babaye,TRUE,,
3271.3,,,,,2,html-slider-response,201,,,,2,
4233,bed,"kalipay,haraka,starehe,mapintas",mapintas,n,2,html-keyboard-response,202,v,haraka,FALSE,,
4007.9,,,,,2,html-slider-response,203,,,,1,
6915,key,"miaka,goma,ahos,chombo",chombo,n,2,html-keyboard-response,204,v,goma,FALSE,,
3722.1,,,,,2,html-slider-response,205,,,,2,
5340,page,"wakala,ishiri,skina,wimbo",wimbo,n,2,html-keyboard-response,206,j,skina,FALSE,,
4189.5,,,,,2,html-slider-response,207,,,,2,
9720,pants,"haki,pintal,chuki,hari",haki,f,2,html-keyboard-response,208,n,hari,FALSE,,
4448.7,,,,,2,html-slider-response,209,,,,1,
8363,sun,"bendi,luha,uongo,basi",basi,n,2,html-keyboard-response,210,v,luha,FALSE,,
4520.7,,,,,2,html-slider-response,211,,,,2,
5827,finger,"simu,sufuria,lima,moyo",moyo,n,2,html-keyboard-response,212,v,sufuria,FALSE,,
3341.4,,,,,2,html-slider-response,213,,,,1,
3184,shoe,"nyeusi,hatua,uyoga,kama",uyoga,j,2,html-keyboard-response,214,n,kama,FALSE,,
6820.1,,,,,2,html-slider-response,215,,,,1,
6854,giraffe,"mahitabo,daraja,jumatu,hangyo",mahitabo,f,2,html-keyboard-response,216,j,jumatu,FALSE,,
3405.3,,,,,2,html-slider-response,217,,,,1,
8060,dog,"lubi,washia,kalamu,bahari",bahari,n,2,html-keyboard-response,218,n,bahari,TRUE,,
4146.8,,,,,2,html-slider-response,219,,,,1,
3010,box,"adui,kuacha,rafiki,kitande",adui,f,2,html-keyboard-response,220,f,adui,TRUE,,
4150.3,,,,,2,html-slider-response,221,,,,4,
5380,scissors,"duga,mtawa,tanuri,suga",tanuri,j,2,html-keyboard-response,222,j,tanuri,TRUE,,
3455.3,,,,,2,html-slider-response,223,,,,4,
8377,cat,"neyemba,paghukom,baki,akili",paghukom,v,2,html-keyboard-response,224,j,baki,FALSE,,
5174.3,,,,,2,html-slider-response,225,,,,3,
4021,basket,"kumbuka,utepe,hasira,kumba",kumba,n,2,html-keyboard-response,226,n,kumba,TRUE,,
3284.5,,,,,2,html-slider-response,227,,,,2,
23584,snake,"jansa,karon,mvringo,pagtukod",pagtukod,n,2,html-keyboard-response,228,f,jansa,FALSE,,
4841.8,,,,,2,html-slider-response,229,,,,2,
44251,gift,"baba,nyange,pagtawag,baso",pagtawag,j,2,html-keyboard-response,230,f,baba,FALSE,,
4786.5,,,,,2,html-slider-response,231,,,,2,
4157,train,"itik,dakika,sayari,mungu",sayari,j,2,html-keyboard-response,232,n,mungu,FALSE,,
7520.8,,,,,2,html-slider-response,233,,,,3,
8622,pudding,"abug,aibu,mpishi,iring",aibu,v,2,html-keyboard-response,234,j,mpishi,FALSE,,
4262.2,,,,,2,html-slider-response,235,,,,2,
14439,tomato,"chupi,chupa,takatak,mvua",mvua,n,2,html-keyboard-response,236,j,takatak,FALSE,,
4406.8,,,,,2,html-slider-response,237,,,,2,
4302,stone,"ulimwengu,mkasi,asili,wingi",wingi,n,2,html-keyboard-response,238,v,mkasi,FALSE,,
2926.2,,,,,2,html-slider-response,239,,,,2,
7033,hammer,"mekno,napakyas,kitovu,layag",napakyas,v,2,html-keyboard-response,240,j,kitovu,FALSE,,
4177.7,,,,,2,html-slider-response,241,,,,2,
3346,knee,"mvuke,kubale,duka,bili",duka,j,2,html-keyboard-response,242,n,bili,FALSE,,
4923.8,,,,,2,html-slider-response,243,,,,2,
4336,ceiling,"kugita,maua,kawaida,rayna",maua,v,2,html-keyboard-response,244,n,rayna,FALSE,,
4030.1,,,,,2,html-slider-response,245,,,,2,
6050,spoon,"betri,pagsulod,nzuri,ngazi",pagsulod,v,2,html-keyboard-response,246,j,nzuri,FALSE,,
3283.5,,,,,2,html-slider-response,247,,,,2,
3283,marker,"mapafu,salita,maji,atay",maji,j,2,html-keyboard-response,248,f,mapafu,FALSE,,
6242.8,,,,,2,html-slider-response,249,,,,3,
5812,candle,"gabi,farasi,geza,kupanda",geza,j,2,html-keyboard-response,250,v,farasi,FALSE,,
2967.9,,,,,2,html-slider-response,251,,,,2,
19310,tissue,"lamigas,kisiwa,katika,ugomvi",ugomvi,n,2,html-keyboard-response,252,n,ugomvi,TRUE,,
3092.6,,,,,2,html-slider-response,253,,,,2,
3362,bridge,"sahani,daima,ngono,panya",sahani,f,2,html-keyboard-response,254,v,daima,FALSE,,
4285.8,,,,,2,html-slider-response,255,,,,2,
3728,berry,"abogado,nogozi,kinywa,kofia",kofia,n,2,html-keyboard-response,256,n,kofia,TRUE,,
3552.6,,,,,2,html-slider-response,257,,,,2,
5530,triangle,"kasadpan,kihozi,bentaha,liog",kasadpan,f,2,html-keyboard-response,258,f,kasadpan,TRUE,,
3427.5,,,,,2,html-slider-response,259,,,,2,
3069,door,"tena,surali,soko,nyota",surali,v,2,html-keyboard-response,260,f,tena,FALSE,,
5166.6,,,,,2,html-slider-response,261,,,,3,
15025,fish,"buli,bala,baho,imani",buli,f,2,html-keyboard-response,262,v,bala,FALSE,,
3719.8,,,,,2,html-slider-response,263,,,,2,
4892,curtain,"lisud,bulwawan,chubani,mchanga",mchanga,n,2,html-keyboard-response,264,j,chubani,FALSE,,
3365.6,,,,,2,html-slider-response,265,,,,2,
3359,flag,"ndege,trekta,mkate,kawa",trekta,v,2,html-keyboard-response,266,n,kawa,FALSE,,
3298.3,,,,,2,html-slider-response,267,,,,2,
4423,boat,"agalon,hamsi,pombe,kitanda",agalon,f,2,html-keyboard-response,268,j,pombe,FALSE,,
4866.2,,,,,2,html-slider-response,269,,,,2,
4550,rose,"paghalad,singizi,mwanake,amani",paghalad,f,2,html-keyboard-response,270,v,singizi,FALSE,,
3383.4,,,,,2,html-slider-response,271,,,,2,
6363,lamp,"afya,daub,bilaska,mbolea",afya,f,2,html-keyboard-response,272,f,afya,TRUE,,
3993.1,,,,,2,html-slider-response,273,,,,3,
4408,cigar,"ndugu,kuta,mlango,adhabu",adhabu,n,2,html-keyboard-response,274,f,ndugu,FALSE,,
3287,,,,,2,html-slider-response,275,,,,2,
3138,list,"alizeti,wingu,kuzama,kaso",wingu,v,2,html-keyboard-response,276,n,kaso,FALSE,,
3265.3,,,,,2,html-slider-response,277,,,,2,
5819,sheet,"juuya,watu,kamantis,bililhon",bililhon,n,2,html-keyboard-response,278,f,juuya,FALSE,,
3729,,,,,2,html-slider-response,279,,,,2,
7622,picture,"silya,chaki,kubwa,asin",kubwa,j,2,html-keyboard-response,280,j,kubwa,TRUE,,
3257,,,,,2,html-slider-response,281,,,,2,
2998,towel,"tembo,funzi,pito,pagpalit",pagpalit,n,2,html-keyboard-response,282,f,tembo,FALSE,,
3404.8,,,,,2,html-slider-response,283,,,,2,
3185,window,"nanga,kweli,kujenga,umaga",kweli,v,2,html-keyboard-response,284,n,umaga,FALSE,,
3094.6,,,,,2,html-slider-response,285,,,,2,
3476,box,"kuacha,rafiki,kitande,adui",adui,n,3,html-keyboard-response,293,n,adui,TRUE,,4
3186.2,,,,,3,html-slider-response,294,,,,4,
2852,,,,,3,html-keyboard-response,295,,,,,
2761,pants,"pintal,haki,chuki,hari",haki,v,3,html-keyboard-response,296,f,pintal,FALSE,,4
5696.3,,,,,3,html-slider-response,297,,,,3,
2699,,,,,3,html-keyboard-response,298,,,,,
3483,cup,"matumai,dagat,shimoni,jeraha",matumai,f,3,html-keyboard-response,299,v,dagat,FALSE,,4
3116.5,,,,,3,html-slider-response,300,,,,2,
1883,,,,,3,html-keyboard-response,301,,,,,
3762,triangle,"kihozi,bentaha,liog,kasadpan",kasadpan,n,3,html-keyboard-response,302,n,kasadpan,TRUE,,4
3608.4,,,,,3,html-slider-response,303,,,,1,
2323,,,,,3,html-keyboard-response,304,,,,,
5161,curtain,"mchanga,lisud,bulwawan,chubani",mchanga,f,3,html-keyboard-response,305,f,mchanga,TRUE,,4
3442.9,,,,,3,html-slider-response,306,,,,2,
24656,,,,,3,html-keyboard-response,307,,,,,
4614,clock,"kartasi,mbwa,abang,osha",mbwa,v,3,html-keyboard-response,308,n,osha,FALSE,,4
3487.2,,,,,3,html-slider-response,309,,,,2,
2835,,,,,3,html-keyboard-response,310,,,,,
6921,mirror,"rangi,kanding,furaha,sulagma",sulagma,n,3,html-keyboard-response,311,n,sulagma,TRUE,,4
4056.2,,,,,3,html-slider-response,312,,,,1,
2735,,,,,3,html-keyboard-response,313,,,,,
11286,coffin,"barua,tubag,kioo,hulma",kioo,j,3,html-keyboard-response,314,j,kioo,TRUE,,1
3521.3,,,,,3,html-slider-response,315,,,,2,
4670,,,,,3,html-keyboard-response,316,,,,,
3784,magazine,"gundi,kiti,mchawi,bahandi",kiti,v,3,html-keyboard-response,317,j,mchawi,FALSE,,4
4381.4,,,,,3,html-slider-response,318,,,,2,
4166,,,,,3,html-keyboard-response,319,,,,,
5185,column,"pundok,ufagio,dila,pala",ufagio,v,3,html-keyboard-response,320,v,ufagio,TRUE,,1
3014.1,,,,,3,html-slider-response,321,,,,2,
5058,,,,,3,html-keyboard-response,322,,,,,
5884,number,"shule,mundamo,kengele,choori",mundamo,v,3,html-keyboard-response,323,v,mundamo,TRUE,,4
2937.1,,,,,3,html-slider-response,324,,,,2,
1417,,,,,3,html-keyboard-response,325,,,,,
6768,rose,"singizi,mwanake,amani,paghalad",paghalad,n,3,html-keyboard-response,326,f,singizi,FALSE,,4
3029.6,,,,,3,html-slider-response,327,,,,1,
2938,,,,,3,html-keyboard-response,328,,,,,
5692,eel,"ishara,kunywa,kabuang,msumari",msumari,n,3,html-keyboard-response,329,v,kunywa,FALSE,,4
3567.8,,,,,3,html-slider-response,330,,,,2,
2748,,,,,3,html-keyboard-response,331,,,,,
8017,gift,"pagtawag,baba,nyange,baso",pagtawag,f,3,html-keyboard-response,332,n,baso,FALSE,,4
3801.4,,,,,3,html-slider-response,333,,,,2,
2206,,,,,3,html-keyboard-response,334,,,,,
2426,apple,"ukame,kisu,estante,edad",kisu,v,3,html-keyboard-response,335,v,kisu,TRUE,,1
3444.2,,,,,3,html-slider-response,336,,,,2,
13649,,,,,3,html-keyboard-response,337,,,,,
5974,wheel,"bafuni,punda,tawo,baadaye",bafuni,f,3,html-keyboard-response,338,f,bafuni,TRUE,,1
4073.8,,,,,3,html-slider-response,339,,,,4,
3373,,,,,3,html-keyboard-response,340,,,,,
5939,knee,"duka,mvuke,kubale,bili",duka,f,3,html-keyboard-response,341,v,mvuke,FALSE,,4
3539.2,,,,,3,html-slider-response,342,,,,1,
3308,,,,,3,html-keyboard-response,343,,,,,
2565,basket,"kumbuka,kumba,utepe,hasira",kumba,v,3,html-keyboard-response,344,v,kumba,TRUE,,1
4295.1,,,,,3,html-slider-response,345,,,,4,
3180,,,,,3,html-keyboard-response,346,,,,,
5015,park,"bunifu,tambok,pwani,ihalas",bunifu,f,3,html-keyboard-response,347,j,pwani,FALSE,,4
3079.1,,,,,3,html-slider-response,348,,,,1,
2556,,,,,3,html-keyboard-response,349,,,,,
4426,finger,"simu,sufuria,lima,moyo",moyo,n,3,html-keyboard-response,350,v,sufuria,FALSE,,4
4340.4,,,,,3,html-slider-response,351,,,,2,
1972,,,,,3,html-keyboard-response,352,,,,,
6848,boat,"hamsi,pombe,agalon,kitanda",agalon,j,3,html-keyboard-response,353,v,pombe,FALSE,,4
3324.3,,,,,3,html-slider-response,354,,,,2,
1782,,,,,3,html-keyboard-response,355,,,,,
4274,hill,"matumbo,kushoto,kukimba,sweta",matumbo,f,3,html-keyboard-response,356,f,matumbo,TRUE,,4
4809.2,,,,,3,html-slider-response,357,,,,5,
1687,,,,,3,html-keyboard-response,358,,,,,
4916,train,"sayari,itik,dakika,mungu",sayari,f,3,html-keyboard-response,359,f,sayari,TRUE,,4
3489.2,,,,,3,html-slider-response,360,,,,2,
2326,,,,,3,html-keyboard-response,361,,,,,
6474,wolf,"kaburi,ndizi,lugha,mchuzi",lugha,j,3,html-keyboard-response,362,n,mchuzi,FALSE,,4
3372.3,,,,,3,html-slider-response,363,,,,2,
1171,,,,,3,html-keyboard-response,364,,,,,
5668,snake,"jansa,karon,mvringo,pagtukod",pagtukod,n,3,html-keyboard-response,365,f,jansa,FALSE,,4
3658.6,,,,,3,html-slider-response,366,,,,2,
1077,,,,,3,html-keyboard-response,367,,,,,
6049,tooth,"kijiko,uadui,pahiyum,kabalaka",kabalaka,n,3,html-keyboard-response,368,f,kijiko,FALSE,,4
3333.2,,,,,3,html-slider-response,369,,,,4,
1668,,,,,3,html-keyboard-response,370,,,,,
5667,notebook,"msitu,kila,mdudu,kemia",kemia,n,3,html-keyboard-response,371,f,msitu,FALSE,,4
2825.4,,,,,3,html-slider-response,372,,,,2,
1387,,,,,3,html-keyboard-response,373,,,,,
4008,flag,"trekta,ndege,mkate,kawa",trekta,f,3,html-keyboard-response,374,n,kawa,FALSE,,4
5570.9,,,,,3,html-slider-response,375,,,,2,
1324,,,,,3,html-keyboard-response,376,,,,,
3379,squirrel,"hofu,mahugaw,ukweli,kichwa",hofu,f,3,html-keyboard-response,377,j,ukweli,FALSE,,4
4533.5,,,,,3,html-slider-response,378,,,,2,
1139,,,,,3,html-keyboard-response,379,,,,,
7134,door,"tena,soko,surali,nyota",surali,j,3,html-keyboard-response,380,j,surali,TRUE,,4
3371.5,,,,,3,html-slider-response,381,,,,1,
2439,,,,,3,html-keyboard-response,382,,,,,
2885,salmon,"mzungu,seri,sensilyo,baharia",sensilyo,j,3,html-keyboard-response,383,j,sensilyo,TRUE,,4
6425.3,,,,,3,html-slider-response,384,,,,3,
2649,,,,,3,html-keyboard-response,385,,,,,
8553,shoulder,"kelele,ndaniya,guruwe,mkuu",mkuu,n,3,html-keyboard-response,386,f,kelele,FALSE,,4
4667.7,,,,,3,html-slider-response,387,,,,1,
3114,,,,,3,html-keyboard-response,388,,,,,
8340,lamp,"daub,afya,bilaska,mbolea",afya,v,3,html-keyboard-response,389,v,afya,TRUE,,4
3870.9,,,,,3,html-slider-response,390,,,,2,
2147,,,,,3,html-keyboard-response,391,,,,,
4539,shelf,"bungtod,kadaot,pamahaw,awit",pamahaw,j,3,html-keyboard-response,392,j,pamahaw,TRUE,,1
4526.4,,,,,3,html-slider-response,393,,,,5,
1925,,,,,3,html-keyboard-response,394,,,,,
4255,human,"bado,kikapu,punguza,tinapay",tinapay,n,3,html-keyboard-response,395,n,tinapay,TRUE,,4
5134.9,,,,,3,html-slider-response,396,,,,5,
1916,,,,,3,html-keyboard-response,397,,,,,
5615,towel,"pagpalit,tembo,funzi,pito",pagpalit,f,3,html-keyboard-response,398,v,tembo,FALSE,,4
4825,,,,,3,html-slider-response,399,,,,2,
1123,,,,,3,html-keyboard-response,400,,,,,
8370,cat,"neyemba,baki,akili,paghukom",paghukom,n,3,html-keyboard-response,401,v,baki,FALSE,,4
2888.1,,,,,3,html-slider-response,402,,,,2,
1456,,,,,3,html-keyboard-response,403,,,,,
6860,spider,"bunyag,mkboa,kamwe,atop",kamwe,j,3,html-keyboard-response,404,v,mkboa,FALSE,,4
3741.5,,,,,3,html-slider-response,405,,,,2,
1139,,,,,3,html-keyboard-response,406,,,,,
9283,window,"nanga,kujenga,kweli,umaga",kweli,j,3,html-keyboard-response,407,f,nanga,FALSE,,4
3635.3,,,,,3,html-slider-response,408,,,,2,
15263,,,,,3,html-keyboard-response,409,,,,,
6526,woman,"pagtabon,bandari,bituin,kovuli",pagtabon,f,3,html-keyboard-response,410,f,pagtabon,TRUE,,1
4697.3,,,,,3,html-slider-response,411,,,,5,
1524,,,,,3,html-keyboard-response,412,,,,,
8193,giraffe,"mahitabo,daraja,jumatu,hangyo",mahitabo,f,3,html-keyboard-response,413,f,mahitabo,TRUE,,4
3170.6,,,,,3,html-slider-response,414,,,,2,
2053,,,,,3,html-keyboard-response,415,,,,,
6456,elephant,"petye,pagduol,suka,kito",kito,n,3,html-keyboard-response,416,v,pagduol,FALSE,,4
4209.7,,,,,3,html-slider-response,417,,,,1,
1047,,,,,3,html-keyboard-response,418,,,,,
5312,cave,"ganti,kesho,maisha,nyundo",kesho,v,3,html-keyboard-response,419,f,ganti,FALSE,,4
5476.3,,,,,3,html-slider-response,420,,,,2,
1556,,,,,3,html-keyboard-response,421,,,,,
5414,bread,"kaili,dizeli,bugas,dari",dari,n,3,html-keyboard-response,422,n,dari,TRUE,,4
3096.5,,,,,3,html-slider-response,423,,,,2,
1523,,,,,3,html-keyboard-response,424,,,,,
3034,stone,"ulimwengu,wingi,mkasi,asili",wingi,v,3,html-keyboard-response,425,n,asili,FALSE,,4
3151,,,,,3,html-slider-response,426,,,,2,
1188,,,,,3,html-keyboard-response,427,,,,,
4266,donkey,"bloke,lalake,rombus,elfu",elfu,n,3,html-keyboard-response,428,j,rombus,FALSE,,4
3569.1,,,,,3,html-slider-response,429,,,,2,
1305,,,,,3,html-keyboard-response,430,,,,,
3637,bridge,"sahani,daima,ngono,panya",sahani,f,3,html-keyboard-response,431,v,daima,FALSE,,4
4839.9,,,,,3,html-slider-response,432,,,,2,
2049,,,,,3,html-keyboard-response,433,,,,,
5984,bonfire,"mwezi,mfuko,goti,kusanya",goti,j,3,html-keyboard-response,434,j,goti,TRUE,,4
3823.9,,,,,3,html-slider-response,435,,,,4,
1405,,,,,3,html-keyboard-response,436,,,,,
3253,book,"mali,kuhesa,picha,mara",mali,f,3,html-keyboard-response,437,j,picha,FALSE,,4
4123.8,,,,,3,html-slider-response,438,,,,2,
2463,,,,,3,html-keyboard-response,439,,,,,
7496,fish,"bala,buli,baho,imani",buli,v,3,html-keyboard-response,440,f,bala,FALSE,,4
3944.5,,,,,3,html-slider-response,441,,,,2,
1356,,,,,3,html-keyboard-response,442,,,,,
3959,spoon,"betri,pagsulod,nzuri,ngazi",pagsulod,v,3,html-keyboard-response,443,f,betri,FALSE,,4
4273.9,,,,,3,html-slider-response,444,,,,2,
1259,,,,,3,html-keyboard-response,445,,,,,
3991,scissors,"duga,tanuri,mtawa,suga",tanuri,v,3,html-keyboard-response,446,v,tanuri,TRUE,,4
3625,,,,,3,html-slider-response,447,,,,5,
2146,,,,,3,html-keyboard-response,448,,,,,
4069,page,"wakala,ishiri,wimbo,skina",wimbo,j,3,html-keyboard-response,449,j,wimbo,TRUE,,4
3568.2,,,,,3,html-slider-response,450,,,,2,
1358,,,,,3,html-keyboard-response,451,,,,,
6682,nose,"sehemu,gubat,kopa,kidole",sehemu,f,3,html-keyboard-response,452,f,sehemu,TRUE,,1
3756.3,,,,,3,html-slider-response,453,,,,5,
2463,,,,,3,html-keyboard-response,454,,,,,
6117,ceiling,"maua,kugita,kawaida,rayna",maua,f,3,html-keyboard-response,455,n,rayna,FALSE,,4
3176.6,,,,,3,html-slider-response,456,,,,4,
2566,,,,,3,html-keyboard-response,457,,,,,
6186,bucket,"baga,ijayo,kiatu,init",kiatu,j,3,html-keyboard-response,458,j,kiatu,TRUE,,4
5004.9,,,,,3,html-slider-response,459,,,,2,
1755,,,,,3,html-keyboard-response,460,,,,,
3903,berry,"kofia,abogado,nogozi,kinywa",kofia,f,3,html-keyboard-response,461,f,kofia,TRUE,,1
4440.2,,,,,3,html-slider-response,462,,,,5,
1275,,,,,3,html-keyboard-response,463,,,,,
3893,mother,"kahawa,babaye,mbuzi,jokofu",babaye,v,3,html-keyboard-response,464,v,babaye,TRUE,,1
3799.5,,,,,3,html-slider-response,465,,,,5,
1232,,,,,3,html-keyboard-response,466,,,,,
7231,mosquito,"martilyo,isda,taras,gutom",martilyo,f,3,html-keyboard-response,467,f,martilyo,TRUE,,4
3356.2,,,,,3,html-slider-response,468,,,,2,
2142,,,,,3,html-keyboard-response,469,,,,,
6057,perfume,"bino,sungura,ndogo,katuyoan",katuyoan,n,3,html-keyboard-response,470,v,sungura,FALSE,,4
3081.6,,,,,3,html-slider-response,471,,,,2,
1995,,,,,3,html-keyboard-response,472,,,,,
7896,sheet,"juuya,watu,kamantis,bililhon",bililhon,n,3,html-keyboard-response,473,f,juuya,FALSE,,4
3421.4,,,,,3,html-slider-response,474,,,,2,
2098,,,,,3,html-keyboard-response,475,,,,,
2194,puppet,"napulo,mazishi,lamok,godoro",mazishi,v,3,html-keyboard-response,476,v,mazishi,TRUE,,1
3192.2,,,,,3,html-slider-response,477,,,,2,
1670,,,,,3,html-keyboard-response,478,,,,,
5399,poster,"nchi,madungog,fedha,kasuko",madungog,v,3,html-keyboard-response,479,n,kasuko,FALSE,,4
4574.4,,,,,3,html-slider-response,480,,,,1,
3697,,,,,3,html-keyboard-response,481,,,,,
10207,music,"mraba,mageho,baiski,tumbo",baiski,j,3,html-keyboard-response,482,j,baiski,TRUE,,4
3328,,,,,3,html-slider-response,483,,,,1,
2833,,,,,3,html-keyboard-response,484,,,,,
4147,key,"chombo,miaka,goma,ahos",chombo,f,3,html-keyboard-response,485,j,goma,FALSE,,4
3848.3,,,,,3,html-slider-response,486,,,,2,
1078,,,,,3,html-keyboard-response,487,,,,,
3803,sock,"ndoora,kimysa,mtirka,mamba",mamba,n,3,html-keyboard-response,488,j,mtirka,FALSE,,4
3631.9,,,,,3,html-slider-response,489,,,,2,
2086,,,,,3,html-keyboard-response,490,,,,,
5295,marker,"mapafu,salita,maji,atay",maji,j,3,html-keyboard-response,491,j,maji,TRUE,,4
3672.7,,,,,3,html-slider-response,492,,,,2,
2339,,,,,3,html-keyboard-response,493,,,,,
4686,office,"leso,hazini,yatima,kuna",leso,f,3,html-keyboard-response,494,n,kuna,FALSE,,4
4358.4,,,,,3,html-slider-response,495,,,,2,
1429,,,,,3,html-keyboard-response,496,,,,,
3426,shoe,"uyoga,nyeusi,hatua,kama",uyoga,f,3,html-keyboard-response,497,n,kama,FALSE,,4
4073.5,,,,,3,html-slider-response,498,,,,2,
12861,,,,,3,html-keyboard-response,499,,,,,
5733,cop,"bustani,mechezo,jikoni,bakus",mechezo,v,3,html-keyboard-response,500,n,bakus,FALSE,,4
4632.9,,,,,3,html-slider-response,501,,,,2,
5468,,,,,3,html-keyboard-response,502,,,,,
4209,bank,"kudhibi,tualya,silingan,ofisi",silingan,j,3,html-keyboard-response,503,n,ofisi,FALSE,,4
2957.2,,,,,3,html-slider-response,504,,,,2,
5321,,,,,3,html-keyboard-response,505,,,,,
2577,letter,"filimbi,chuma,kifua,uhuru",kifua,j,3,html-keyboard-response,506,j,kifua,TRUE,,1
3438.6,,,,,3,html-slider-response,507,,,,5,
1778,,,,,3,html-keyboard-response,508,,,,,
4452,dog,"lubi,washia,bahari,kalamu",bahari,j,3,html-keyboard-response,509,j,bahari,TRUE,,1
4184.6,,,,,3,html-slider-response,510,,,,5,
1310,,,,,3,html-keyboard-response,511,,,,,
7452,shop,"nopya,kerida,samaki,ndezu",samaki,j,3,html-keyboard-response,512,j,samaki,TRUE,,4
3748.4,,,,,3,html-slider-response,513,,,,2,
3498,,,,,3,html-keyboard-response,514,,,,,
7588,flower,"bega,tamasha,lobo,usiku",bega,f,3,html-keyboard-response,515,n,usiku,FALSE,,4
4163,,,,,3,html-slider-response,516,,,,2,
1637,,,,,3,html-keyboard-response,517,,,,,
3024,cigar,"ndugu,kuta,adhabu,mlango",adhabu,j,3,html-keyboard-response,518,j,adhabu,TRUE,,1
4558.3,,,,,3,html-slider-response,519,,,,4,
12771,,,,,3,html-keyboard-response,520,,,,,
7211,hammer,"napakyas,mekno,kitovu,layag",napakyas,f,3,html-keyboard-response,521,j,kitovu,FALSE,,4
2877.5,,,,,3,html-slider-response,522,,,,2,
2165,,,,,3,html-keyboard-response,523,,,,,
6857,fork,"baboy,paghago,mgonjwa,gorisi",mgonjwa,j,3,html-keyboard-response,524,n,gorisi,FALSE,,4
3222.3,,,,,3,html-slider-response,525,,,,2,
2221,,,,,3,html-keyboard-response,526,,,,,
2915,sun,"bendi,luha,basi,uongo",basi,j,3,html-keyboard-response,527,j,basi,TRUE,,1
4330.9,,,,,3,html-slider-response,528,,,,5,
1493,,,,,3,html-keyboard-response,529,,,,,
4906,ladder,"mashua,mwanga,kamba,pangalan",pangalan,n,3,html-keyboard-response,530,n,pangalan,TRUE,,4
3911.8,,,,,3,html-slider-response,531,,,,5,
2144,,,,,3,html-keyboard-response,532,,,,,
2357,banana,"kasamok,hagdan,twai,kazi",kazi,n,3,html-keyboard-response,533,n,kazi,TRUE,,1
4028.2,,,,,3,html-slider-response,534,,,,5,
2050,,,,,3,html-keyboard-response,535,,,,,
5762,pudding,"aibu,abug,mpishi,iring",aibu,f,3,html-keyboard-response,536,v,abug,FALSE,,4
4645.4,,,,,3,html-slider-response,537,,,,2,
2231,,,,,3,html-keyboard-response,538,,,,,
5921,body,"nyundu,tindashan,jibini,kununa",tindashan,v,3,html-keyboard-response,539,v,tindashan,TRUE,,4
3199.7,,,,,3,html-slider-response,540,,,,2,
2287,,,,,3,html-keyboard-response,541,,,,,
8676,bed,"kalipay,haraka,mapintas,starehe",mapintas,j,3,html-keyboard-response,542,f,kalipay,FALSE,,4
3600.1,,,,,3,html-slider-response,543,,,,2,
1140,,,,,3,html-keyboard-response,544,,,,,
9267,tissue,"lamigas,ugomvi,kisiwa,katika",ugomvi,v,3,html-keyboard-response,545,n,katika,FALSE,,4
3658.1,,,,,3,html-slider-response,546,,,,2,
1894,,,,,3,html-keyboard-response,547,,,,,
10003,candle,"gabi,geza,farasi,kupanda",geza,v,3,html-keyboard-response,548,f,gabi,FALSE,,4
4575,,,,,3,html-slider-response,549,,,,2,
1828,,,,,3,html-keyboard-response,550,,,,,
2864,tomato,"chupi,chupa,takatak,mvua",mvua,n,3,html-keyboard-response,551,n,mvua,TRUE,,1
3398.7,,,,,3,html-slider-response,552,,,,2,
1817,,,,,3,html-keyboard-response,553,,,,,
4922,list,"alizeti,kuzama,kaso,wingu",wingu,n,3,html-keyboard-response,554,f,alizeti,FALSE,,4
3610.1,,,,,3,html-slider-response,555,,,,2,
1853,,,,,3,html-keyboard-response,556,,,,,
5469,olive,"bata,siagi,jiwe,welder",jiwe,j,3,html-keyboard-response,557,f,bata,FALSE,,4
3427.9,,,,,3,html-slider-response,558,,,,2,
10095,,,,,3,html-keyboard-response,559,,,,,
2065,picture,"silya,chaki,kubwa,asin",kubwa,j,3,html-keyboard-response,560,j,kubwa,TRUE,,1
4054.6,,,,,3,html-slider-response,561,,,,5,
1184,,,,,3,html-keyboard-response,562,,,,,
4221,page,"wimbo,wakala,ishiri,skina",wimbo,f,4,html-keyboard-response,888,f,wimbo,TRUE,,
3999.7,,,,,4,html-slider-response,889,,,,2,
7739,sheet,"bililhon,juuya,watu,kamantis",bililhon,f,4,html-keyboard-response,890,v,juuya,FALSE,,
3275.5,,,,,4,html-slider-response,891,,,,2,
4181,ladder,"mashua,pangalan,mwanga,kamba",pangalan,v,4,html-keyboard-response,892,v,pangalan,TRUE,,
4137.6,,,,,4,html-slider-response,893,,,,5,
8810,door,"surali,tena,soko,nyota",surali,f,4,html-keyboard-response,894,f,surali,TRUE,,
4053.1,,,,,4,html-slider-response,895,,,,2,
5977,spider,"bunyag,mkboa,kamwe,atop",kamwe,j,4,html-keyboard-response,896,v,mkboa,FALSE,,
3382,,,,,4,html-slider-response,897,,,,2,
7294,picture,"kubwa,silya,chaki,asin",kubwa,f,4,html-keyboard-response,898,v,silya,FALSE,,
4212.9,,,,,4,html-slider-response,899,,,,2,
4419,boat,"hamsi,pombe,agalon,kitanda",agalon,j,4,html-keyboard-response,900,j,agalon,TRUE,,
5935.8,,,,,4,html-slider-response,901,,,,5,
5358,donkey,"elfu,bloke,lalake,rombus",elfu,f,4,html-keyboard-response,902,n,rombus,FALSE,,
5072.1,,,,,4,html-slider-response,903,,,,3,
5552,book,"kuhesa,picha,mara,mali",mali,n,4,html-keyboard-response,904,v,picha,FALSE,,
3066.7,,,,,4,html-slider-response,905,,,,2,
3763,cup,"dagat,shimoni,matumai,jeraha",matumai,j,4,html-keyboard-response,906,f,dagat,FALSE,,
3473.3,,,,,4,html-slider-response,907,,,,2,
7289,sun,"bendi,luha,basi,uongo",basi,j,4,html-keyboard-response,908,j,basi,TRUE,,
7250.9,,,,,4,html-slider-response,909,,,,3,
12131,pudding,"aibu,abug,mpishi,iring",aibu,f,4,html-keyboard-response,910,n,iring,FALSE,,
3448.2,,,,,4,html-slider-response,911,,,,2,
4818,human,"bado,tinapay,kikapu,punguza",tinapay,v,4,html-keyboard-response,912,v,tinapay,TRUE,,
4258.6,,,,,4,html-slider-response,913,,,,5,
5111,squirrel,"mahugaw,hofu,ukweli,kichwa",hofu,v,4,html-keyboard-response,914,n,kichwa,FALSE,,
2886.4,,,,,4,html-slider-response,915,,,,2,
6112,park,"bunifu,tambok,pwani,ihalas",bunifu,f,4,html-keyboard-response,916,j,pwani,FALSE,,
3770,,,,,4,html-slider-response,917,,,,2,
5938,poster,"madungog,nchi,fedha,kasuko",madungog,f,4,html-keyboard-response,918,f,madungog,TRUE,,
3044.4,,,,,4,html-slider-response,919,,,,4,
6091,wolf,"kaburi,ndizi,mchuzi,lugha",lugha,n,4,html-keyboard-response,920,j,mchuzi,FALSE,,
3453.4,,,,,4,html-slider-response,921,,,,2,
5297,cat,"paghukom,neyemba,baki,akili",paghukom,f,4,html-keyboard-response,922,j,baki,FALSE,,
3438.5,,,,,4,html-slider-response,923,,,,4,
7403,fish,"bala,buli,baho,imani",buli,v,4,html-keyboard-response,924,f,bala,FALSE,,
3504.8,,,,,4,html-slider-response,925,,,,2,
2957,tooth,"kijiko,uadui,pahiyum,kabalaka",kabalaka,n,4,html-keyboard-response,926,j,pahiyum,FALSE,,
4576.1,,,,,4,html-slider-response,927,,,,5,
7236,cave,"ganti,maisha,nyundo,kesho",kesho,n,4,html-keyboard-response,928,f,ganti,FALSE,,
3584.3,,,,,4,html-slider-response,929,,,,2,
7678,lamp,"daub,afya,bilaska,mbolea",afya,v,4,html-keyboard-response,930,j,bilaska,FALSE,,
4182.2,,,,,4,html-slider-response,931,,,,2,
5906,banana,"kasamok,hagdan,kazi,twai",kazi,j,4,html-keyboard-response,932,f,kasamok,FALSE,,
3731.4,,,,,4,html-slider-response,933,,,,2,
6216,bonfire,"mwezi,mfuko,goti,kusanya",goti,j,4,html-keyboard-response,934,j,goti,TRUE,,
3487.2,,,,,4,html-slider-response,935,,,,4,
6315,cop,"bustani,mechezo,jikoni,bakus",mechezo,v,4,html-keyboard-response,936,f,bustani,FALSE,,
4746.9,,,,,4,html-slider-response,937,,,,3,
4072,marker,"mapafu,maji,salita,atay",maji,v,4,html-keyboard-response,938,f,mapafu,FALSE,,
7454.5,,,,,4,html-slider-response,939,,,,3,
8877,window,"nanga,kujenga,umaga,kweli",kweli,n,4,html-keyboard-response,940,j,umaga,FALSE,,
4213.2,,,,,4,html-slider-response,941,,,,2,
4115,body,"nyundu,tindashan,jibini,kununa",tindashan,v,4,html-keyboard-response,942,v,tindashan,TRUE,,
3757.6,,,,,4,html-slider-response,943,,,,5,
5483,apple,"ukame,kisu,estante,edad",kisu,v,4,html-keyboard-response,944,v,kisu,TRUE,,
3750.3,,,,,4,html-slider-response,945,,,,4,
2834,salmon,"mzungu,sensilyo,seri,baharia",sensilyo,v,4,html-keyboard-response,946,v,sensilyo,TRUE,,
4064.5,,,,,4,html-slider-response,947,,,,5,
5988,bed,"kalipay,mapintas,haraka,starehe",mapintas,v,4,html-keyboard-response,948,v,mapintas,TRUE,,
3522.1,,,,,4,html-slider-response,949,,,,2,
4461,berry,"abogado,nogozi,kofia,kinywa",kofia,j,4,html-keyboard-response,950,j,kofia,TRUE,,
5257.5,,,,,4,html-slider-response,951,,,,3,
6906,mirror,"rangi,kanding,furaha,sulagma",sulagma,n,4,html-keyboard-response,952,f,rangi,FALSE,,
3365.4,,,,,4,html-slider-response,953,,,,2,
8131,flag,"ndege,trekta,mkate,kawa",trekta,v,4,html-keyboard-response,954,j,mkate,FALSE,,
3253.7,,,,,4,html-slider-response,955,,,,2,
4932,shoulder,"kelele,mkuu,ndaniya,guruwe",mkuu,v,4,html-keyboard-response,956,j,ndaniya,FALSE,,
3495.5,,,,,4,html-slider-response,957,,,,2,
6393,tissue,"ugomvi,lamigas,kisiwa,katika",ugomvi,f,4,html-keyboard-response,958,v,lamigas,FALSE,,
3702.2,,,,,4,html-slider-response,959,,,,2,
4865,notebook,"msitu,kila,mdudu,kemia",kemia,n,4,html-keyboard-response,960,f,msitu,FALSE,,
3416.8,,,,,4,html-slider-response,961,,,,2,
4110,snake,"jansa,karon,pagtukod,mvringo",pagtukod,j,4,html-keyboard-response,962,f,jansa,FALSE,,
4594.1,,,,,4,html-slider-response,963,,,,2,
6552,finger,"simu,sufuria,moyo,lima",moyo,j,4,html-keyboard-response,964,v,sufuria,FALSE,,
3457.1,,,,,4,html-slider-response,965,,,,2,
5645,basket,"kumbuka,utepe,hasira,kumba",kumba,n,4,html-keyboard-response,966,n,kumba,TRUE,,
3619.7,,,,,4,html-slider-response,967,,,,2,
6372,curtain,"lisud,bulwawan,chubani,mchanga",mchanga,n,4,html-keyboard-response,968,v,bulwawan,FALSE,,
3867.8,,,,,4,html-slider-response,969,,,,2,
7555,perfume,"katuyoan,bino,sungura,ndogo",katuyoan,f,4,html-keyboard-response,970,f,katuyoan,TRUE,,
4240.7,,,,,4,html-slider-response,971,,,,5,
3974,key,"miaka,goma,ahos,chombo",chombo,n,4,html-keyboard-response,972,v,goma,FALSE,,
3199.1,,,,,4,html-slider-response,973,,,,2,
6471,olive,"jiwe,bata,siagi,welder",jiwe,f,4,html-keyboard-response,974,v,bata,FALSE,,
3550.5,,,,,4,html-slider-response,975,,,,2,
4046,rose,"singizi,mwanake,amani,paghalad",paghalad,n,4,html-keyboard-response,976,f,singizi,FALSE,,
3268.9,,,,,4,html-slider-response,977,,,,2,
10320,bridge,"sahani,daima,ngono,panya",sahani,f,4,html-keyboard-response,978,v,daima,FALSE,,
3175.4,,,,,4,html-slider-response,979,,,,2,
2905,hill,"kushoto,matumbo,kukimba,sweta",matumbo,v,4,html-keyboard-response,980,v,matumbo,TRUE,,
3288.4,,,,,4,html-slider-response,981,,,,5,
6639,letter,"kifua,filimbi,chuma,uhuru",kifua,f,4,html-keyboard-response,982,j,chuma,FALSE,,
3072.2,,,,,4,html-slider-response,983,,,,2,
4012,sock,"ndoora,kimysa,mamba,mtirka",mamba,j,4,html-keyboard-response,984,v,kimysa,FALSE,,
3510,,,,,4,html-slider-response,985,,,,2,
7026,fork,"baboy,paghago,gorisi,mgonjwa",mgonjwa,n,4,html-keyboard-response,986,f,baboy,FALSE,,
3194,,,,,4,html-slider-response,987,,,,2,
4227,box,"adui,kuacha,rafiki,kitande",adui,f,4,html-keyboard-response,988,f,adui,TRUE,,
3041.9,,,,,4,html-slider-response,989,,,,4,
8468,gift,"baba,nyange,pagtawag,baso",pagtawag,j,4,html-keyboard-response,990,j,pagtawag,TRUE,,
3582.5,,,,,4,html-slider-response,991,,,,1,
4980,bucket,"baga,kiatu,ijayo,init",kiatu,v,4,html-keyboard-response,992,v,kiatu,TRUE,,
3887.5,,,,,4,html-slider-response,993,,,,2,
3670,shop,"nopya,kerida,samaki,ndezu",samaki,j,4,html-keyboard-response,994,j,samaki,TRUE,,
3853.3,,,,,4,html-slider-response,995,,,,4,
4876,puppet,"napulo,lamok,mazishi,godoro",mazishi,j,4,html-keyboard-response,996,j,mazishi,TRUE,,
3546.8,,,,,4,html-slider-response,997,,,,4,
3461,nose,"gubat,kopa,kidole,sehemu",sehemu,n,4,html-keyboard-response,998,f,gubat,FALSE,,
3155,,,,,4,html-slider-response,999,,,,4,
5565,music,"mraba,baiski,mageho,tumbo",baiski,v,4,html-keyboard-response,1000,v,baiski,TRUE,,
2947.3,,,,,4,html-slider-response,1001,,,,2,
3203,dog,"lubi,bahari,washia,kalamu",bahari,v,4,html-keyboard-response,1002,v,bahari,TRUE,,
5988.6,,,,,4,html-slider-response,1003,,,,2,
5019,eel,"ishara,kunywa,msumari,kabuang",msumari,j,4,html-keyboard-response,1004,j,msumari,TRUE,,
3433.9,,,,,4,html-slider-response,1005,,,,2,
3551,number,"shule,kengele,mundamo,choori",mundamo,j,4,html-keyboard-response,1006,j,mundamo,TRUE,,
3663,,,,,4,html-slider-response,1007,,,,2,
5351,tomato,"chupi,mvua,chupa,takatak",mvua,v,4,html-keyboard-response,1008,n,takatak,FALSE,,
3094.5,,,,,4,html-slider-response,1009,,,,2,
9178,coffin,"barua,tubag,kioo,hulma",kioo,j,4,html-keyboard-response,1010,j,kioo,TRUE,,
3201.8,,,,,4,html-slider-response,1011,,,,5,
9628,knee,"mvuke,kubale,bili,duka",duka,n,4,html-keyboard-response,1012,f,mvuke,FALSE,,
2815.9,,,,,4,html-slider-response,1013,,,,2,
3451,woman,"pagtabon,bandari,bituin,kovuli",pagtabon,f,4,html-keyboard-response,1014,f,pagtabon,TRUE,,
3195.8,,,,,4,html-slider-response,1015,,,,5,
4881,stone,"ulimwengu,wingi,mkasi,asili",wingi,v,4,html-keyboard-response,1016,j,mkasi,FALSE,,
3249.3,,,,,4,html-slider-response,1017,,,,2,
9060,bread,"dari,kaili,dizeli,bugas",dari,f,4,html-keyboard-response,1018,f,dari,TRUE,,
2822.8,,,,,4,html-slider-response,1019,,,,2,
5547,triangle,"kihozi,bentaha,kasadpan,liog",kasadpan,j,4,html-keyboard-response,1020,j,kasadpan,TRUE,,
4520.8,,,,,4,html-slider-response,1021,,,,2,
4076,scissors,"tanuri,duga,mtawa,suga",tanuri,f,4,html-keyboard-response,1022,f,tanuri,TRUE,,
3392.5,,,,,4,html-slider-response,1023,,,,5,
5014,giraffe,"daraja,jumatu,hangyo,mahitabo",mahitabo,n,4,html-keyboard-response,1024,n,mahitabo,TRUE,,
3355.9,,,,,4,html-slider-response,1025,,,,5,
11035,flower,"tamasha,lobo,bega,usiku",bega,j,4,html-keyboard-response,1026,j,bega,TRUE,,
3870.5,,,,,4,html-slider-response,1027,,,,2,
10277,candle,"gabi,geza,farasi,kupanda",geza,v,4,html-keyboard-response,1028,v,geza,TRUE,,
3274.1,,,,,4,html-slider-response,1029,,,,4,
3806,mother,"kahawa,mbuzi,jokofu,babaye",babaye,n,4,html-keyboard-response,1030,n,babaye,TRUE,,
2956.5,,,,,4,html-slider-response,1031,,,,2,
3587,towel,"tembo,funzi,pagpalit,pito",pagpalit,j,4,html-keyboard-response,1032,f,tembo,FALSE,,
4081.7,,,,,4,html-slider-response,1033,,,,2,
5358,elephant,"petye,pagduol,suka,kito",kito,n,4,html-keyboard-response,1034,v,pagduol,FALSE,,
4332.2,,,,,4,html-slider-response,1035,,,,2,
3549,shelf,"bungtod,kadaot,awit,pamahaw",pamahaw,n,4,html-keyboard-response,1036,v,kadaot,FALSE,,
3128.7,,,,,4,html-slider-response,1037,,,,2,
2674,mosquito,"isda,taras,gutom,martilyo",martilyo,n,4,html-keyboard-response,1038,n,martilyo,TRUE,,
3472.6,,,,,4,html-slider-response,1039,,,,4,
3638,column,"pundok,dila,pala,ufagio",ufagio,n,4,html-keyboard-response,1040,n,ufagio,TRUE,,
3923.6,,,,,4,html-slider-response,1041,,,,5,
4004,pants,"haki,pintal,chuki,hari",haki,f,4,html-keyboard-response,1042,v,pintal,FALSE,,
4748.4,,,,,4,html-slider-response,1043,,,,3,
3892,list,"alizeti,wingu,kuzama,kaso",wingu,v,4,html-keyboard-response,1044,v,wingu,TRUE,,
4045.9,,,,,4,html-slider-response,1045,,,,2,
6069,bank,"kudhibi,tualya,ofisi,silingan",silingan,n,4,html-keyboard-response,1046,v,tualya,FALSE,,
4558.8,,,,,4,html-slider-response,1047,,,,2,
4790,clock,"mbwa,kartasi,abang,osha",mbwa,f,4,html-keyboard-response,1048,f,mbwa,TRUE,,
4216.4,,,,,4,html-slider-response,1049,,,,2,
6591,ceiling,"kugita,kawaida,maua,rayna",maua,j,4,html-keyboard-response,1050,v,kawaida,FALSE,,
3983.6,,,,,4,html-slider-response,1051,,,,2,
8595,train,"itik,sayari,dakika,mungu",sayari,v,4,html-keyboard-response,1052,v,sayari,TRUE,,
2888.5,,,,,4,html-slider-response,1053,,,,2,
7215,magazine,"gundi,mchawi,kiti,bahandi",kiti,j,4,html-keyboard-response,1054,v,mchawi,FALSE,,
2906.1,,,,,4,html-slider-response,1055,,,,2,
7459,office,"hazini,yatima,kuna,leso",leso,n,4,html-keyboard-response,1056,n,leso,TRUE,,
3001.3,,,,,4,html-slider-response,1057,,,,2,
6059,wheel,"punda,tawo,baadaye,bafuni",bafuni,n,4,html-keyboard-response,1058,n,bafuni,TRUE,,
3373.8,,,,,4,html-slider-response,1059,,,,2,
3912,spoon,"betri,nzuri,ngazi,pagsulod",pagsulod,n,4,html-keyboard-response,1060,v,nzuri,FALSE,,
4298.3,,,,,4,html-slider-response,1061,,,,2,
5731,hammer,"mekno,napakyas,kitovu,layag",napakyas,v,4,html-keyboard-response,1062,v,napakyas,TRUE,,
4306,,,,,4,html-slider-response,1063,,,,3,
5216,cigar,"ndugu,kuta,mlango,adhabu",adhabu,n,4,html-keyboard-response,1064,j,mlango,FALSE,,
4512.4,,,,,4,html-slider-response,1065,,,,2,
5200,shoe,"nyeusi,hatua,uyoga,kama",uyoga,j,4,html-keyboard-response,1066,v,hatua,FALSE,,
3267.6,,,,,4,html-slider-response,1067,,,,2,
3291,list,"alizeti,wingu,kuzama,kaso",wingu,v,5,html-keyboard-response,1069,v,wingu,TRUE,,
3844.6,,,,,5,html-slider-response,1070,,,,2,
3074,number,"shule,mundamo,kengele,choori",mundamo,v,5,html-keyboard-response,1071,v,mundamo,TRUE,,
4464.9,,,,,5,html-slider-response,1072,,,,3,
3889,apple,"ukame,estante,kisu,edad",kisu,j,5,html-keyboard-response,1073,j,kisu,TRUE,,
3403.3,,,,,5,html-slider-response,1074,,,,4,
2734,knee,"mvuke,kubale,bili,duka",duka,n,5,html-keyboard-response,1075,f,mvuke,FALSE,,
3035.6,,,,,5,html-slider-response,1076,,,,2,
3797,tooth,"kijiko,kabalaka,uadui,pahiyum",kabalaka,v,5,html-keyboard-response,1077,n,pahiyum,FALSE,,
4074.2,,,,,5,html-slider-response,1078,,,,5,
2561,berry,"kofia,abogado,nogozi,kinywa",kofia,f,5,html-keyboard-response,1079,f,kofia,TRUE,,
4030.2,,,,,5,html-slider-response,1080,,,,4,
16683,bridge,"daima,ngono,sahani,panya",sahani,j,5,html-keyboard-response,1081,n,panya,FALSE,,
3728.2,,,,,5,html-slider-response,1082,,,,2,
2449,perfume,"bino,sungura,katuyoan,ndogo",katuyoan,j,5,html-keyboard-response,1083,j,katuyoan,TRUE,,
4133.1,,,,,5,html-slider-response,1084,,,,5,
2990,ladder,"mashua,mwanga,kamba,pangalan",pangalan,n,5,html-keyboard-response,1085,n,pangalan,TRUE,,
3951.1,,,,,5,html-slider-response,1086,,,,5,
4302,pants,"pintal,chuki,hari,haki",haki,n,5,html-keyboard-response,1087,n,haki,TRUE,,
3412.1,,,,,5,html-slider-response,1088,,,,4,
2819,salmon,"mzungu,seri,baharia,sensilyo",sensilyo,n,5,html-keyboard-response,1089,n,sensilyo,TRUE,,
4081.5,,,,,5,html-slider-response,1090,,,,5,
5962,coffin,"barua,kioo,tubag,hulma",kioo,v,5,html-keyboard-response,1091,v,kioo,TRUE,,
3581.2,,,,,5,html-slider-response,1092,,,,5,
4615,park,"bunifu,tambok,pwani,ihalas",bunifu,f,5,html-keyboard-response,1093,j,pwani,FALSE,,
4083.5,,,,,5,html-slider-response,1094,,,,4,
3109,giraffe,"daraja,jumatu,hangyo,mahitabo",mahitabo,n,5,html-keyboard-response,1095,n,mahitabo,TRUE,,
4564.1,,,,,5,html-slider-response,1096,,,,5,
7302,mirror,"sulagma,rangi,kanding,furaha",sulagma,f,5,html-keyboard-response,1097,v,rangi,FALSE,,
3973,,,,,5,html-slider-response,1098,,,,2,
5303,ceiling,"kugita,maua,kawaida,rayna",maua,v,5,html-keyboard-response,1099,n,rayna,FALSE,,
3148.7,,,,,5,html-slider-response,1100,,,,2,
6025,marker,"mapafu,salita,atay,maji",maji,n,5,html-keyboard-response,1101,f,mapafu,FALSE,,
3379.9,,,,,5,html-slider-response,1102,,,,5,
5243,sock,"mamba,ndoora,kimysa,mtirka",mamba,f,5,html-keyboard-response,1103,f,mamba,TRUE,,
3778.2,,,,,5,html-slider-response,1104,,,,3,
5523,cop,"mechezo,bustani,jikoni,bakus",mechezo,f,5,html-keyboard-response,1105,v,bustani,FALSE,,
2484.1,,,,,5,html-slider-response,1106,,,,4,
5750,gift,"baba,pagtawag,nyange,baso",pagtawag,v,5,html-keyboard-response,1107,v,pagtawag,TRUE,,
3508.6,,,,,5,html-slider-response,1108,,,,2,
5076,notebook,"msitu,kila,mdudu,kemia",kemia,n,5,html-keyboard-response,1109,f,msitu,FALSE,,
6305.2,,,,,5,html-slider-response,1110,,,,2,
6921,bank,"kudhibi,silingan,tualya,ofisi",silingan,v,5,html-keyboard-response,1111,j,tualya,FALSE,,
5928.9,,,,,5,html-slider-response,1112,,,,2,
5048,letter,"kifua,filimbi,chuma,uhuru",kifua,f,5,html-keyboard-response,1113,j,chuma,FALSE,,
4617.7,,,,,5,html-slider-response,1114,,,,3,
5335,candle,"gabi,farasi,geza,kupanda",geza,j,5,html-keyboard-response,1115,j,geza,TRUE,,
4239.7,,,,,5,html-slider-response,1116,,,,2,
4800,bread,"kaili,dizeli,dari,bugas",dari,j,5,html-keyboard-response,1117,j,dari,TRUE,,
3884.3,,,,,5,html-slider-response,1118,,,,2,
5157,snake,"jansa,karon,mvringo,pagtukod",pagtukod,n,5,html-keyboard-response,1119,j,mvringo,FALSE,,
4026.3,,,,,5,html-slider-response,1120,,,,2,
12012,rose,"singizi,paghalad,mwanake,amani",paghalad,v,5,html-keyboard-response,1121,v,paghalad,TRUE,,
2768.7,,,,,5,html-slider-response,1122,,,,2,
2506,hill,"kushoto,kukimba,sweta,matumbo",matumbo,n,5,html-keyboard-response,1123,n,matumbo,TRUE,,
3950.4,,,,,5,html-slider-response,1124,,,,5,
2714,train,"itik,dakika,sayari,mungu",sayari,j,5,html-keyboard-response,1125,j,sayari,TRUE,,
4386.7,,,,,5,html-slider-response,1126,,,,5,
16142,shop,"samaki,nopya,kerida,ndezu",samaki,f,5,html-keyboard-response,1127,f,samaki,TRUE,,
4663.5,,,,,5,html-slider-response,1128,,,,4,
20284,nose,"gubat,kopa,sehemu,kidole",sehemu,j,5,html-keyboard-response,1129,f,gubat,FALSE,,
4611.6,,,,,5,html-slider-response,1130,,,,2,
4073,boat,"hamsi,agalon,pombe,kitanda",agalon,v,5,html-keyboard-response,1131,v,agalon,TRUE,,
2972,,,,,5,html-slider-response,1132,,,,5,
2922,body,"nyundu,jibini,kununa,tindashan",tindashan,n,5,html-keyboard-response,1133,n,tindashan,TRUE,,
4560.6,,,,,5,html-slider-response,1134,,,,5,
4623,bed,"kalipay,haraka,mapintas,starehe",mapintas,j,5,html-keyboard-response,1135,f,kalipay,FALSE,,
4367.3,,,,,5,html-slider-response,1136,,,,4,
6440,squirrel,"mahugaw,hofu,ukweli,kichwa",hofu,v,5,html-keyboard-response,1137,n,kichwa,FALSE,,
2988.2,,,,,5,html-slider-response,1138,,,,2,
9202,window,"nanga,kujenga,kweli,umaga",kweli,j,5,html-keyboard-response,1139,f,nanga,FALSE,,
4888,,,,,5,html-slider-response,1140,,,,1,
2408,bonfire,"mwezi,mfuko,goti,kusanya",goti,j,5,html-keyboard-response,1141,j,goti,TRUE,,
3921.7,,,,,5,html-slider-response,1142,,,,5,
4722,fish,"bala,baho,imani,buli",buli,n,5,html-keyboard-response,1143,f,bala,FALSE,,
3100.3,,,,,5,html-slider-response,1144,,,,4,
5135,cat,"paghukom,neyemba,baki,akili",paghukom,f,5,html-keyboard-response,1145,j,baki,FALSE,,
2501.6,,,,,5,html-slider-response,1146,,,,2,
5460,spider,"bunyag,kamwe,mkboa,atop",kamwe,v,5,html-keyboard-response,1147,j,mkboa,FALSE,,
4359.5,,,,,5,html-slider-response,1148,,,,2,
5537,eel,"msumari,ishara,kunywa,kabuang",msumari,f,5,html-keyboard-response,1149,f,msumari,TRUE,,
2954,,,,,5,html-slider-response,1150,,,,2,
7716,woman,"bandari,bituin,kovuli,pagtabon",pagtabon,n,5,html-keyboard-response,1151,f,bandari,FALSE,,
3201.5,,,,,5,html-slider-response,1152,,,,2,
4078,magazine,"gundi,kiti,mchawi,bahandi",kiti,v,5,html-keyboard-response,1153,j,mchawi,FALSE,,
4190.7,,,,,5,html-slider-response,1154,,,,4,
6973,pudding,"abug,aibu,mpishi,iring",aibu,v,5,html-keyboard-response,1155,f,abug,FALSE,,
3594.2,,,,,5,html-slider-response,1156,,,,2,
9198,lamp,"daub,bilaska,afya,mbolea",afya,j,5,html-keyboard-response,1157,f,daub,FALSE,,
3481.5,,,,,5,html-slider-response,1158,,,,2,
3620,cave,"ganti,maisha,kesho,nyundo",kesho,j,5,html-keyboard-response,1159,f,ganti,FALSE,,
2695.4,,,,,5,html-slider-response,1160,,,,2,
7069,shoulder,"kelele,ndaniya,guruwe,mkuu",mkuu,n,5,html-keyboard-response,1161,v,ndaniya,FALSE,,
3461.2,,,,,5,html-slider-response,1162,,,,2,
6511,stone,"ulimwengu,mkasi,wingi,asili",wingi,j,5,html-keyboard-response,1163,j,wingi,TRUE,,
5793.4,,,,,5,html-slider-response,1164,,,,2,
4377,column,"ufagio,pundok,dila,pala",ufagio,f,5,html-keyboard-response,1165,f,ufagio,TRUE,,
3421.3,,,,,5,html-slider-response,1166,,,,4,
5368,page,"wakala,ishiri,wimbo,skina",wimbo,j,5,html-keyboard-response,1167,j,wimbo,TRUE,,
3501.2,,,,,5,html-slider-response,1168,,,,2,
11010,shoe,"nyeusi,uyoga,hatua,kama",uyoga,v,5,html-keyboard-response,1169,f,nyeusi,FALSE,,
4830.4,,,,,5,html-slider-response,1170,,,,2,
7853,clock,"kartasi,mbwa,abang,osha",mbwa,v,5,html-keyboard-response,1171,v,mbwa,TRUE,,
3114.8,,,,,5,html-slider-response,1172,,,,2,
4397,towel,"tembo,funzi,pito,pagpalit",pagpalit,n,5,html-keyboard-response,1173,f,tembo,FALSE,,
3762.9,,,,,5,html-slider-response,1174,,,,2,
6743,tomato,"chupi,chupa,mvua,takatak",mvua,j,5,html-keyboard-response,1175,n,takatak,FALSE,,
4324.1,,,,,5,html-slider-response,1176,,,,2,
7057,bucket,"kiatu,baga,ijayo,init",kiatu,f,5,html-keyboard-response,1177,f,kiatu,TRUE,,
3458.6,,,,,5,html-slider-response,1178,,,,2,
6913,finger,"moyo,simu,sufuria,lima",moyo,f,5,html-keyboard-response,1179,f,moyo,TRUE,,
4709,,,,,5,html-slider-response,1180,,,,3,
4502,mother,"kahawa,mbuzi,jokofu,babaye",babaye,n,5,html-keyboard-response,1181,n,babaye,TRUE,,
5741.9,,,,,5,html-slider-response,1182,,,,3,
3824,human,"bado,kikapu,punguza,tinapay",tinapay,n,5,html-keyboard-response,1183,n,tinapay,TRUE,,
3221.8,,,,,5,html-slider-response,1184,,,,5,
9964,sun,"bendi,basi,luha,uongo",basi,v,5,html-keyboard-response,1185,v,basi,TRUE,,
5255.6,,,,,5,html-slider-response,1186,,,,2,
6443,fork,"mgonjwa,baboy,paghago,gorisi",mgonjwa,f,5,html-keyboard-response,1187,v,baboy,FALSE,,
3532.1,,,,,5,html-slider-response,1188,,,,4,
2777,donkey,"bloke,elfu,lalake,rombus",elfu,v,5,html-keyboard-response,1189,n,rombus,FALSE,,
4632.3,,,,,5,html-slider-response,1190,,,,2,
15489,wolf,"kaburi,ndizi,lugha,mchuzi",lugha,j,5,html-keyboard-response,1191,f,kaburi,FALSE,,
3639.8,,,,,5,html-slider-response,1192,,,,2,
4890,cigar,"ndugu,kuta,adhabu,mlango",adhabu,j,5,html-keyboard-response,1193,n,mlango,FALSE,,
4102.9,,,,,5,html-slider-response,1194,,,,4,
6534,olive,"bata,siagi,jiwe,welder",jiwe,j,5,html-keyboard-response,1195,j,jiwe,TRUE,,
3417,,,,,5,html-slider-response,1196,,,,2,
7792,key,"miaka,goma,ahos,chombo",chombo,n,5,html-keyboard-response,1197,f,miaka,FALSE,,
3038.7,,,,,5,html-slider-response,1198,,,,2,
5809,door,"surali,tena,soko,nyota",surali,f,5,html-keyboard-response,1199,f,surali,TRUE,,
4958.8,,,,,5,html-slider-response,1200,,,,2,
13170,wheel,"bafuni,punda,tawo,baadaye",bafuni,f,5,html-keyboard-response,1201,n,baadaye,FALSE,,
3787,,,,,5,html-slider-response,1202,,,,1,
5005,basket,"kumba,kumbuka,utepe,hasira",kumba,f,5,html-keyboard-response,1203,f,kumba,TRUE,,
4970.6,,,,,5,html-slider-response,1204,,,,3,
4928,elephant,"petye,pagduol,kito,suka",kito,j,5,html-keyboard-response,1205,n,suka,FALSE,,
3317.4,,,,,5,html-slider-response,1206,,,,2,
5372,office,"leso,hazini,yatima,kuna",leso,f,5,html-keyboard-response,1207,n,kuna,FALSE,,
6759,,,,,5,html-slider-response,1208,,,,3,
13439,music,"mraba,mageho,tumbo,baiski",baiski,n,5,html-keyboard-response,1209,v,mageho,FALSE,,
3441.2,,,,,5,html-slider-response,1210,,,,2,
5273,tissue,"lamigas,kisiwa,ugomvi,katika",ugomvi,j,5,html-keyboard-response,1211,f,lamigas,FALSE,,
2758.9,,,,,5,html-slider-response,1212,,,,2,
15707,curtain,"lisud,bulwawan,chubani,mchanga",mchanga,n,5,html-keyboard-response,1213,j,chubani,FALSE,,
4802.5,,,,,5,html-slider-response,1214,,,,2,
4379,flag,"ndege,mkate,trekta,kawa",trekta,j,5,html-keyboard-response,1215,n,kawa,FALSE,,
3606.5,,,,,5,html-slider-response,1216,,,,2,
5551,dog,"bahari,lubi,washia,kalamu",bahari,f,5,html-keyboard-response,1217,f,bahari,TRUE,,
3125.1,,,,,5,html-slider-response,1218,,,,2,
3311,cup,"dagat,shimoni,jeraha,matumai",matumai,n,5,html-keyboard-response,1219,f,dagat,FALSE,,
2829.1,,,,,5,html-slider-response,1220,,,,4,
3507,sheet,"bililhon,juuya,watu,kamantis",bililhon,f,5,html-keyboard-response,1221,v,juuya,FALSE,,
4878.4,,,,,5,html-slider-response,1222,,,,1,
9656,spoon,"betri,nzuri,ngazi,pagsulod",pagsulod,n,5,html-keyboard-response,1223,n,pagsulod,TRUE,,
6808.6,,,,,5,html-slider-response,1224,,,,2,
8856,flower,"tamasha,lobo,bega,usiku",bega,j,5,html-keyboard-response,1225,n,usiku,FALSE,,
5519.2,,,,,5,html-slider-response,1226,,,,3,
4686,picture,"kubwa,silya,chaki,asin",kubwa,f,5,html-keyboard-response,1227,v,silya,FALSE,,
3243.5,,,,,5,html-slider-response,1228,,,,5,
6722,puppet,"napulo,lamok,godoro,mazishi",mazishi,n,5,html-keyboard-response,1229,n,mazishi,TRUE,,
4970.2,,,,,5,html-slider-response,1230,,,,2,
8349,banana,"kazi,kasamok,hagdan,twai",kazi,f,5,html-keyboard-response,1231,f,kazi,TRUE,,
3140.7,,,,,5,html-slider-response,1232,,,,2,
3777,book,"mali,kuhesa,picha,mara",mali,f,5,html-keyboard-response,1233,j,picha,FALSE,,
3856.8,,,,,5,html-slider-response,1234,,,,2,
4256,triangle,"kasadpan,kihozi,bentaha,liog",kasadpan,f,5,html-keyboard-response,1235,f,kasadpan,TRUE,,
3990.4,,,,,5,html-slider-response,1236,,,,3,
4494,poster,"nchi,fedha,kasuko,madungog",madungog,n,5,html-keyboard-response,1237,n,madungog,TRUE,,
3268.3,,,,,5,html-slider-response,1238,,,,2,
2915,box,"kuacha,rafiki,kitande,adui",adui,n,5,html-keyboard-response,1239,n,adui,TRUE,,
3331.2,,,,,5,html-slider-response,1240,,,,4,
2409,mosquito,"isda,martilyo,taras,gutom",martilyo,v,5,html-keyboard-response,1241,v,martilyo,TRUE,,
3361.8,,,,,5,html-slider-response,1242,,,,5,
4278,shelf,"bungtod,pamahaw,kadaot,awit",pamahaw,v,5,html-keyboard-response,1243,v,pamahaw,TRUE,,
4046.6,,,,,5,html-slider-response,1244,,,,2,
3627,scissors,"duga,mtawa,tanuri,suga",tanuri,j,5,html-keyboard-response,1245,j,tanuri,TRUE,,
3958.5,,,,,5,html-slider-response,1246,,,,5,
6408,hammer,"mekno,kitovu,napakyas,layag",napakyas,j,5,html-keyboard-response,1247,j,napakyas,TRUE,,
3541.7,,,,,5,html-slider-response,1248,,,,2,
