"rt","en_word","options","swa_word","correct_answer","phase","trial_type","trial_index","input_answer","input_word","accuracy","certainty","amt_choices"
"4784","bonfire","mwezi,goti,mfuko,kusanya","goti","v","2","html-keyboard-response","106","f","mwezi","false","",""
"2699.0999999996275","","","","","2","html-slider-response","107","","","","1",""
"3441","flower","bega,tamasha,lobo,usiku","bega","f","2","html-keyboard-response","108","f","bega","true","",""
"1440.2999999988824","","","","","2","html-slider-response","109","","","","2",""
"2939","column","pundok,ufagio,dila,pala","ufagio","v","2","html-keyboard-response","110","f","pundok","false","",""
"1891.0999999996275","","","","","2","html-slider-response","111","","","","1",""
"3976","music","mraba,mageho,tumbo,baiski","baiski","n","2","html-keyboard-response","112","f","mraba","false","",""
"1694.199999999255","","","","","2","html-slider-response","113","","","","1",""
"5319","spider","bunyag,mkboa,kamwe,atop","kamwe","j","2","html-keyboard-response","114","j","kamwe","true","",""
"3994.199999999255","","","","","2","html-slider-response","115","","","","3",""
"4625","fork","baboy,paghago,gorisi,mgonjwa","mgonjwa","n","2","html-keyboard-response","116","f","baboy","false","",""
"1254.5999999996275","","","","","2","html-slider-response","117","","","","1",""
"2460","mosquito","isda,taras,martilyo,gutom","martilyo","j","2","html-keyboard-response","118","j","martilyo","true","",""
"2077.5","","","","","2","html-slider-response","119","","","","5",""
"2245","banana","kazi,kasamok,hagdan,twai","kazi","f","2","html-keyboard-response","120","f","kazi","true","",""
"1727.9000000003725","","","","","2","html-slider-response","121","","","","5",""
"2826","cup","dagat,shimoni,matumai,jeraha","matumai","j","2","html-keyboard-response","122","f","dagat","false","",""
"1627.2999999988824","","","","","2","html-slider-response","123","","","","2",""
"4899","shop","nopya,kerida,samaki,ndezu","samaki","j","2","html-keyboard-response","124","j","samaki","true","",""
"2186.9000000003725","","","","","2","html-slider-response","125","","","","4",""
"3544","elephant","kito,petye,pagduol,suka","kito","f","2","html-keyboard-response","126","f","kito","true","",""
"1311.5999999996275","","","","","2","html-slider-response","127","","","","2",""
"3590","bucket","baga,ijayo,init,kiatu","kiatu","n","2","html-keyboard-response","128","n","kiatu","true","",""
"1490.8999999985099","","","","","2","html-slider-response","129","","","","1",""
"3100","book","mali,kuhesa,picha,mara","mali","f","2","html-keyboard-response","130","f","mali","true","",""
"1293.8999999985099","","","","","2","html-slider-response","131","","","","1",""
"4373","mirror","rangi,sulagma,kanding,furaha","sulagma","v","2","html-keyboard-response","132","v","sulagma","true","",""
"1293.0999999996275","","","","","2","html-slider-response","133","","","","2",""
"3123","office","hazini,yatima,kuna,leso","leso","n","2","html-keyboard-response","134","j","kuna","false","",""
"1481.3999999985099","","","","","2","html-slider-response","135","","","","1",""
"5284","body","nyundu,tindashan,jibini,kununa","tindashan","v","2","html-keyboard-response","136","j","jibini","false","",""
"1282.5999999996275","","","","","2","html-slider-response","137","","","","1",""
"3214","perfume","katuyoan,bino,sungura,ndogo","katuyoan","f","2","html-keyboard-response","138","f","katuyoan","true","",""
"1355.5","","","","","2","html-slider-response","139","","","","1",""
"3537","olive","bata,siagi,jiwe,welder","jiwe","j","2","html-keyboard-response","140","f","bata","false","",""
"1101.5","","","","","2","html-slider-response","141","","","","1",""
"3009","magazine","kiti,gundi,mchawi,bahandi","kiti","f","2","html-keyboard-response","142","f","kiti","true","",""
"1331.4000000003725","","","","","2","html-slider-response","143","","","","4",""
"3578","bread","dari,kaili,dizeli,bugas","dari","f","2","html-keyboard-response","144","v","kaili","false","",""
"1587.7999999988824","","","","","2","html-slider-response","145","","","","2",""
"2665","cave","kesho,ganti,maisha,nyundo","kesho","f","2","html-keyboard-response","146","f","kesho","true","",""
"1235.5","","","","","2","html-slider-response","147","","","","1",""
"3533","ladder","pangalan,mashua,mwanga,kamba","pangalan","f","2","html-keyboard-response","148","f","pangalan","true","",""
"1232.5","","","","","2","html-slider-response","149","","","","2",""
"3930","human","bado,kikapu,tinapay,punguza","tinapay","j","2","html-keyboard-response","150","v","kikapu","false","",""
"1318.5","","","","","2","html-slider-response","151","","","","1",""
"3307","clock","kartasi,abang,mbwa,osha","mbwa","j","2","html-keyboard-response","152","f","kartasi","false","",""
"1065.199999999255","","","","","2","html-slider-response","153","","","","1",""
"2769","shelf","bungtod,kadaot,pamahaw,awit","pamahaw","j","2","html-keyboard-response","154","j","pamahaw","true","",""
"1243","","","","","2","html-slider-response","155","","","","2",""
"2173","salmon","mzungu,seri,baharia,sensilyo","sensilyo","n","2","html-keyboard-response","156","n","sensilyo","true","",""
"1376.800000000745","","","","","2","html-slider-response","157","","","","4",""
"3858","coffin","kioo,barua,tubag,hulma","kioo","f","2","html-keyboard-response","158","f","kioo","true","",""
"989.6000000014901","","","","","2","html-slider-response","159","","","","2",""
"4144","notebook","msitu,kemia,kila,mdudu","kemia","v","2","html-keyboard-response","160","n","mdudu","false","",""
"1249.699999999255","","","","","2","html-slider-response","161","","","","1",""
"2786","shoulder","kelele,ndaniya,guruwe,mkuu","mkuu","n","2","html-keyboard-response","162","j","guruwe","false","",""
"1450.3999999985099","","","","","2","html-slider-response","163","","","","1",""
"3486","park","tambok,bunifu,pwani,ihalas","bunifu","v","2","html-keyboard-response","164","v","bunifu","true","",""
"1330.199999999255","","","","","2","html-slider-response","165","","","","2",""
"4872","number","mundamo,shule,kengele,choori","mundamo","f","2","html-keyboard-response","166","f","mundamo","true","",""
"1122.7000000011176","","","","","2","html-slider-response","167","","","","1",""
"3379","apple","ukame,kisu,estante,edad","kisu","v","2","html-keyboard-response","168","v","kisu","true","",""
"1165.2999999988824","","","","","2","html-slider-response","169","","","","1",""
"2680","letter","kifua,filimbi,chuma,uhuru","kifua","f","2","html-keyboard-response","170","f","kifua","true","",""
"1158.4000000003725","","","","","2","html-slider-response","171","","","","2",""
"3641","eel","msumari,ishara,kunywa,kabuang","msumari","f","2","html-keyboard-response","172","f","msumari","true","",""
"1209.800000000745","","","","","2","html-slider-response","173","","","","1",""
"3525","cop","mechezo,bustani,jikoni,bakus","mechezo","f","2","html-keyboard-response","174","j","jikoni","false","",""
"1255.7000000011176","","","","","2","html-slider-response","175","","","","1",""
"2803","wolf","lugha,kaburi,ndizi,mchuzi","lugha","f","2","html-keyboard-response","176","v","kaburi","false","",""
"1213.9000000003725","","","","","2","html-slider-response","177","","","","1",""
"3317","squirrel","mahugaw,ukweli,hofu,kichwa","hofu","j","2","html-keyboard-response","178","v","ukweli","false","",""
"1124.7999999988824","","","","","2","html-slider-response","179","","","","1",""
"3885","nose","gubat,kopa,kidole,sehemu","sehemu","n","2","html-keyboard-response","180","n","sehemu","true","",""
"1183","","","","","2","html-slider-response","181","","","","1",""
"2597","sock","ndoora,mamba,kimysa,mtirka","mamba","v","2","html-keyboard-response","182","j","kimysa","false","",""
"1190.5","","","","","2","html-slider-response","183","","","","1",""
"3268","bank","kudhibi,silingan,tualya,ofisi","silingan","v","2","html-keyboard-response","184","j","tualya","false","",""
"1090.9000000003725","","","","","2","html-slider-response","185","","","","1",""
"3706","donkey","elfu,bloke,lalake,rombus","elfu","f","2","html-keyboard-response","186","j","lalake","false","",""
"1294.7999999988824","","","","","2","html-slider-response","187","","","","1",""
"4197","poster","nchi,madungog,fedha,kasuko","madungog","v","2","html-keyboard-response","188","f","nchi","false","",""
"1469.0999999996275","","","","","2","html-slider-response","189","","","","1",""
"3147","puppet","napulo,lamok,mazishi,godoro","mazishi","j","2","html-keyboard-response","190","n","godoro","false","",""
"2604.9000000003725","","","","","2","html-slider-response","191","","","","1",""
"2843","hill","kushoto,kukimba,sweta,matumbo","matumbo","n","2","html-keyboard-response","192","n","matumbo","true","",""
"1209.7999999988824","","","","","2","html-slider-response","193","","","","5",""
"6362","tooth","kijiko,uadui,pahiyum,kabalaka","kabalaka","n","2","html-keyboard-response","194","n","kabalaka","true","",""
"1310.800000000745","","","","","2","html-slider-response","195","","","","2",""
"3355","woman","bandari,bituin,kovuli,pagtabon","pagtabon","n","2","html-keyboard-response","196","n","pagtabon","true","",""
"1077.699999999255","","","","","2","html-slider-response","197","","","","1",""
"3184","wheel","punda,tawo,baadaye,bafuni","bafuni","n","2","html-keyboard-response","198","j","baadaye","false","",""
"1518.800000000745","","","","","2","html-slider-response","199","","","","1",""
"2027","mother","babaye,kahawa,mbuzi,jokofu","babaye","f","2","html-keyboard-response","200","f","babaye","true","",""
"1017.3000000007451","","","","","2","html-slider-response","201","","","","5",""
"3013","bed","mapintas,kalipay,haraka,starehe","mapintas","f","2","html-keyboard-response","202","j","haraka","false","",""
"1354.5","","","","","2","html-slider-response","203","","","","1",""
"4381","key","miaka,chombo,goma,ahos","chombo","v","2","html-keyboard-response","204","j","goma","false","",""
"1093.5999999996275","","","","","2","html-slider-response","205","","","","1",""
"2633","page","wakala,ishiri,skina,wimbo","wimbo","n","2","html-keyboard-response","206","v","ishiri","false","",""
"1039.9000000003725","","","","","2","html-slider-response","207","","","","1",""
"3241","pants","pintal,chuki,hari,haki","haki","n","2","html-keyboard-response","208","j","hari","false","",""
"1289.5999999996275","","","","","2","html-slider-response","209","","","","1",""
"4169","sun","bendi,luha,uongo,basi","basi","n","2","html-keyboard-response","210","n","basi","true","",""
"938.0999999996275","","","","","2","html-slider-response","211","","","","1",""
"2799","finger","simu,sufuria,moyo,lima","moyo","j","2","html-keyboard-response","212","f","simu","false","",""
"2163.199999999255","","","","","2","html-slider-response","213","","","","1",""
"2661","shoe","nyeusi,uyoga,hatua,kama","uyoga","v","2","html-keyboard-response","214","j","hatua","false","",""
"1067.300000000745","","","","","2","html-slider-response","215","","","","1",""
"4798","giraffe","daraja,jumatu,mahitabo,hangyo","mahitabo","j","2","html-keyboard-response","216","v","jumatu","false","",""
"1017.8000000007451","","","","","2","html-slider-response","217","","","","1",""
"2259","dog","lubi,bahari,washia,kalamu","bahari","v","2","html-keyboard-response","218","j","washia","false","",""
"1426.199999999255","","","","","2","html-slider-response","219","","","","1",""
"4216","box","kuacha,rafiki,kitande,adui","adui","n","2","html-keyboard-response","220","f","kuacha","false","",""
"1085.5999999996275","","","","","2","html-slider-response","221","","","","1",""
"2658","scissors","duga,mtawa,suga,tanuri","tanuri","n","2","html-keyboard-response","222","f","duga","false","",""
"1201.9000000003725","","","","","2","html-slider-response","223","","","","1",""
"3035","cat","neyemba,baki,paghukom,akili","paghukom","j","2","html-keyboard-response","224","v","baki","false","",""
"1188.3999999985099","","","","","2","html-slider-response","225","","","","1",""
"6385","basket","kumbuka,utepe,hasira,kumba","kumba","n","2","html-keyboard-response","226","n","kumba","true","",""
"1453","","","","","2","html-slider-response","227","","","","1",""
"3401","snake","jansa,karon,mvringo,pagtukod","pagtukod","n","2","html-keyboard-response","228","j","mvringo","false","",""
"1422.5999999996275","","","","","2","html-slider-response","229","","","","1",""
"2874","gift","baba,nyange,pagtawag,baso","pagtawag","j","2","html-keyboard-response","230","j","pagtawag","true","",""
"1076.5","","","","","2","html-slider-response","231","","","","2",""
"2522","train","itik,dakika,sayari,mungu","sayari","j","2","html-keyboard-response","232","j","sayari","true","",""
"1113.7999999988824","","","","","2","html-slider-response","233","","","","1",""
"2125","pudding","aibu,abug,mpishi,iring","aibu","f","2","html-keyboard-response","234","j","mpishi","false","",""
"1017.4000000003725","","","","","2","html-slider-response","235","","","","1",""
"2162","tomato","chupi,chupa,mvua,takatak","mvua","j","2","html-keyboard-response","236","v","chupa","false","",""
"1405.4000000003725","","","","","2","html-slider-response","237","","","","1",""
"3035","stone","ulimwengu,mkasi,asili,wingi","wingi","n","2","html-keyboard-response","238","v","mkasi","false","",""
"1307.9000000003725","","","","","2","html-slider-response","239","","","","1",""
"2462","hammer","napakyas,mekno,kitovu,layag","napakyas","f","2","html-keyboard-response","240","j","kitovu","false","",""
"1364","","","","","2","html-slider-response","241","","","","1",""
"2564","knee","mvuke,kubale,duka,bili","duka","j","2","html-keyboard-response","242","f","mvuke","false","",""
"1037.2999999988824","","","","","2","html-slider-response","243","","","","1",""
"3517","ceiling","maua,kugita,kawaida,rayna","maua","f","2","html-keyboard-response","244","v","kugita","false","",""
"1396.800000000745","","","","","2","html-slider-response","245","","","","1",""
"3090","spoon","betri,nzuri,pagsulod,ngazi","pagsulod","j","2","html-keyboard-response","246","n","ngazi","false","",""
"1506.4000000003725","","","","","2","html-slider-response","247","","","","1",""
"3032","marker","mapafu,salita,atay,maji","maji","n","2","html-keyboard-response","248","n","maji","true","",""
"1193","","","","","2","html-slider-response","249","","","","1",""
"2706","candle","gabi,geza,farasi,kupanda","geza","v","2","html-keyboard-response","250","j","farasi","false","",""
"969.2999999988824","","","","","2","html-slider-response","251","","","","1",""
"2261","tissue","ugomvi,lamigas,kisiwa,katika","ugomvi","f","2","html-keyboard-response","252","f","ugomvi","true","",""
"1232.0999999996275","","","","","2","html-slider-response","253","","","","1",""
"6349","bridge","daima,ngono,sahani,panya","sahani","j","2","html-keyboard-response","254","f","daima","false","",""
"1351.4000000003725","","","","","2","html-slider-response","255","","","","1",""
"3146","berry","abogado,nogozi,kinywa,kofia","kofia","n","2","html-keyboard-response","256","n","kofia","true","",""
"1035.199999999255","","","","","2","html-slider-response","257","","","","1",""
"5693","triangle","kihozi,bentaha,liog,kasadpan","kasadpan","n","2","html-keyboard-response","258","f","kihozi","false","",""
"1440.0999999996275","","","","","2","html-slider-response","259","","","","1",""
"3164","door","tena,surali,soko,nyota","surali","v","2","html-keyboard-response","260","v","surali","true","",""
"1490.5999999996275","","","","","2","html-slider-response","261","","","","1",""
"3093","fish","bala,baho,buli,imani","buli","j","2","html-keyboard-response","262","v","baho","false","",""
"928.3000000007451","","","","","2","html-slider-response","263","","","","1",""
"2983","curtain","lisud,mchanga,bulwawan,chubani","mchanga","v","2","html-keyboard-response","264","j","bulwawan","false","",""
"1033.4000000003725","","","","","2","html-slider-response","265","","","","1",""
"2979","flag","ndege,mkate,trekta,kawa","trekta","j","2","html-keyboard-response","266","j","trekta","true","",""
"1026.2999999988824","","","","","2","html-slider-response","267","","","","1",""
"3937","boat","hamsi,pombe,kitanda,agalon","agalon","n","2","html-keyboard-response","268","n","agalon","true","",""
"1095.4000000003725","","","","","2","html-slider-response","269","","","","1",""
"3350","rose","singizi,paghalad,mwanake,amani","paghalad","v","2","html-keyboard-response","270","v","paghalad","true","",""
"1179.6000000014901","","","","","2","html-slider-response","271","","","","2",""
"4037","lamp","daub,bilaska,afya,mbolea","afya","j","2","html-keyboard-response","272","j","afya","true","",""
"1076.6000000014901","","","","","2","html-slider-response","273","","","","1",""
"2644","cigar","adhabu,ndugu,kuta,mlango","adhabu","f","2","html-keyboard-response","274","f","adhabu","true","",""
"1558.5","","","","","2","html-slider-response","275","","","","1",""
"3072","list","alizeti,kuzama,wingu,kaso","wingu","j","2","html-keyboard-response","276","n","kaso","false","",""
"1038.5","","","","","2","html-slider-response","277","","","","1",""
"3271","sheet","bililhon,juuya,watu,kamantis","bililhon","f","2","html-keyboard-response","278","f","bililhon","true","",""
"1797.5","","","","","2","html-slider-response","279","","","","1",""
"5032","picture","silya,kubwa,chaki,asin","kubwa","v","2","html-keyboard-response","280","j","chaki","false","",""
"1440.5","","","","","2","html-slider-response","281","","","","1",""
"3187","towel","tembo,pagpalit,funzi,pito","pagpalit","v","2","html-keyboard-response","282","v","pagpalit","true","",""
"2375.199999999255","","","","","2","html-slider-response","283","","","","3",""
"2965","window","nanga,kweli,kujenga,umaga","kweli","v","2","html-keyboard-response","284","v","kweli","true","",""
"1447.7000000011176","","","","","2","html-slider-response","285","","","","2",""
"4212","box","kuacha,adui,rafiki,kitande","adui","v","3","html-keyboard-response","293","f","kuacha","false","","4"
"1356.699999999255","","","","","3","html-slider-response","294","","","","1",""
"3964","","","","","3","html-keyboard-response","295","","","","",""
"3893","pants","pintal,haki,chuki,hari","haki","v","3","html-keyboard-response","296","n","hari","false","","4"
"1215.2000000011176","","","","","3","html-slider-response","297","","","","1",""
"3505","","","","","3","html-keyboard-response","298","","","","",""
"3303","cup","dagat,shimoni,jeraha,matumai","matumai","n","3","html-keyboard-response","299","j","jeraha","false","","4"
"1872.6000000014901","","","","","3","html-slider-response","300","","","","1",""
"4890","","","","","3","html-keyboard-response","301","","","","",""
"2895","triangle","kihozi,bentaha,kasadpan,liog","kasadpan","j","3","html-keyboard-response","302","f","kihozi","false","","4"
"1684.2000000011176","","","","","3","html-slider-response","303","","","","1",""
"1920","","","","","3","html-keyboard-response","304","","","","",""
"3352","curtain","lisud,bulwawan,mchanga,chubani","mchanga","j","3","html-keyboard-response","305","v","bulwawan","false","","4"
"1444.2000000011176","","","","","3","html-slider-response","306","","","","1",""
"1819","","","","","3","html-keyboard-response","307","","","","",""
"3173","clock","mbwa,kartasi,abang,osha","mbwa","f","3","html-keyboard-response","308","j","abang","false","","4"
"1397.2000000011176","","","","","3","html-slider-response","309","","","","1",""
"1916","","","","","3","html-keyboard-response","310","","","","",""
"2942","mirror","rangi,sulagma,kanding,furaha","sulagma","v","3","html-keyboard-response","311","v","sulagma","true","","4"
"1339.0999999996275","","","","","3","html-slider-response","312","","","","1",""
"1771","","","","","3","html-keyboard-response","313","","","","",""
"2706","coffin","barua,tubag,hulma,kioo","kioo","n","3","html-keyboard-response","314","n","kioo","true","","1"
"1774.300000000745","","","","","3","html-slider-response","315","","","","4",""
"1777","","","","","3","html-keyboard-response","316","","","","",""
"7456","magazine","gundi,mchawi,kiti,bahandi","kiti","j","3","html-keyboard-response","317","j","kiti","true","","4"
"1838.5999999996275","","","","","3","html-slider-response","318","","","","2",""
"3983","","","","","3","html-keyboard-response","319","","","","",""
"2171","column","pundok,ufagio,dila,pala","ufagio","v","3","html-keyboard-response","320","v","ufagio","true","","1"
"1728.800000000745","","","","","3","html-slider-response","321","","","","5",""
"1219","","","","","3","html-keyboard-response","322","","","","",""
"3422","number","shule,mundamo,kengele,choori","mundamo","v","3","html-keyboard-response","323","v","mundamo","true","","4"
"1144.199999999255","","","","","3","html-slider-response","324","","","","1",""
"1390","","","","","3","html-keyboard-response","325","","","","",""
"3206","rose","singizi,paghalad,mwanake,amani","paghalad","v","3","html-keyboard-response","326","v","paghalad","true","","4"
"1232.5","","","","","3","html-slider-response","327","","","","2",""
"2102","","","","","3","html-keyboard-response","328","","","","",""
"4171","eel","ishara,kunywa,kabuang,msumari","msumari","n","3","html-keyboard-response","329","j","kabuang","false","","4"
"1244","","","","","3","html-slider-response","330","","","","2",""
"1566","","","","","3","html-keyboard-response","331","","","","",""
"3335","gift","baba,nyange,pagtawag,baso","pagtawag","j","3","html-keyboard-response","332","j","pagtawag","true","","4"
"2540.0999999996275","","","","","3","html-slider-response","333","","","","2",""
"1240","","","","","3","html-keyboard-response","334","","","","",""
"1876","apple","ukame,estante,kisu,edad","kisu","j","3","html-keyboard-response","335","j","kisu","true","","1"
"1634.5999999996275","","","","","3","html-slider-response","336","","","","5",""
"933","","","","","3","html-keyboard-response","337","","","","",""
"1980","wheel","bafuni,punda,tawo,baadaye","bafuni","f","3","html-keyboard-response","338","f","bafuni","true","","1"
"1535.2000000011176","","","","","3","html-slider-response","339","","","","5",""
"679","","","","","3","html-keyboard-response","340","","","","",""
"2877","knee","mvuke,duka,kubale,bili","duka","v","3","html-keyboard-response","341","j","kubale","false","","4"
"1229.5999999996275","","","","","3","html-slider-response","342","","","","2",""
"1381","","","","","3","html-keyboard-response","343","","","","",""
"2120","basket","kumbuka,kumba,utepe,hasira","kumba","v","3","html-keyboard-response","344","v","kumba","true","","1"
"1314.4000000003725","","","","","3","html-slider-response","345","","","","5",""
"875","","","","","3","html-keyboard-response","346","","","","",""
"4825","park","bunifu,tambok,pwani,ihalas","bunifu","f","3","html-keyboard-response","347","f","bunifu","true","","4"
"1325.5","","","","","3","html-slider-response","348","","","","2",""
"1656","","","","","3","html-keyboard-response","349","","","","",""
"3376","finger","simu,sufuria,moyo,lima","moyo","j","3","html-keyboard-response","350","v","sufuria","false","","4"
"1208.800000000745","","","","","3","html-slider-response","351","","","","1",""
"1004","","","","","3","html-keyboard-response","352","","","","",""
"3978","boat","hamsi,agalon,pombe,kitanda","agalon","v","3","html-keyboard-response","353","j","pombe","false","","4"
"1874.5999999996275","","","","","3","html-slider-response","354","","","","1",""
"1168","","","","","3","html-keyboard-response","355","","","","",""
"1912","hill","matumbo,kushoto,kukimba,sweta","matumbo","f","3","html-keyboard-response","356","f","matumbo","true","","4"
"1238.0999999996275","","","","","3","html-slider-response","357","","","","5",""
"929","","","","","3","html-keyboard-response","358","","","","",""
"3377","train","itik,sayari,dakika,mungu","sayari","v","3","html-keyboard-response","359","j","dakika","false","","4"
"1699.5999999996275","","","","","3","html-slider-response","360","","","","1",""
"1057","","","","","3","html-keyboard-response","361","","","","",""
"3170","wolf","kaburi,ndizi,lugha,mchuzi","lugha","j","3","html-keyboard-response","362","n","mchuzi","false","","4"
"1167.5","","","","","3","html-slider-response","363","","","","1",""
"1107","","","","","3","html-keyboard-response","364","","","","",""
"3287","snake","pagtukod,jansa,karon,mvringo","pagtukod","f","3","html-keyboard-response","365","n","mvringo","false","","4"
"1328.0999999996275","","","","","3","html-slider-response","366","","","","2",""
"1621","","","","","3","html-keyboard-response","367","","","","",""
"5046","tooth","kijiko,uadui,pahiyum,kabalaka","kabalaka","n","3","html-keyboard-response","368","j","pahiyum","false","","4"
"1286.5999999996275","","","","","3","html-slider-response","369","","","","2",""
"1125","","","","","3","html-keyboard-response","370","","","","",""
"2369","notebook","kemia,msitu,kila,mdudu","kemia","f","3","html-keyboard-response","371","j","kila","false","","4"
"1373.8999999985099","","","","","3","html-slider-response","372","","","","1",""
"1263","","","","","3","html-keyboard-response","373","","","","",""
"3228","flag","trekta,ndege,mkate,kawa","trekta","f","3","html-keyboard-response","374","f","trekta","true","","4"
"1426","","","","","3","html-slider-response","375","","","","1",""
"1328","","","","","3","html-keyboard-response","376","","","","",""
"4254","squirrel","mahugaw,ukweli,hofu,kichwa","hofu","j","3","html-keyboard-response","377","v","ukweli","false","","4"
"1294.699999999255","","","","","3","html-slider-response","378","","","","1",""
"1165","","","","","3","html-keyboard-response","379","","","","",""
"3159","door","tena,soko,surali,nyota","surali","j","3","html-keyboard-response","380","n","nyota","false","","4"
"1236.800000000745","","","","","3","html-slider-response","381","","","","1",""
"872","","","","","3","html-keyboard-response","382","","","","",""
"2311","salmon","mzungu,sensilyo,seri,baharia","sensilyo","v","3","html-keyboard-response","383","v","sensilyo","true","","4"
"1428","","","","","3","html-slider-response","384","","","","5",""
"1388","","","","","3","html-keyboard-response","385","","","","",""
"3629","shoulder","mkuu,kelele,ndaniya,guruwe","mkuu","f","3","html-keyboard-response","386","f","mkuu","true","","4"
"1228.699999999255","","","","","3","html-slider-response","387","","","","2",""
"1685","","","","","3","html-keyboard-response","388","","","","",""
"3035","lamp","daub,bilaska,mbolea,afya","afya","n","3","html-keyboard-response","389","v","bilaska","false","","4"
"1606.699999999255","","","","","3","html-slider-response","390","","","","1",""
"1613","","","","","3","html-keyboard-response","391","","","","",""
"2189","shelf","bungtod,kadaot,pamahaw,awit","pamahaw","j","3","html-keyboard-response","392","j","pamahaw","true","","1"
"1424.5","","","","","3","html-slider-response","393","","","","5",""
"864","","","","","3","html-keyboard-response","394","","","","",""
"4889","human","tinapay,bado,kikapu,punguza","tinapay","f","3","html-keyboard-response","395","f","tinapay","true","","4"
"1173","","","","","3","html-slider-response","396","","","","2",""
"1395","","","","","3","html-keyboard-response","397","","","","",""
"3324","towel","tembo,pagpalit,funzi,pito","pagpalit","v","3","html-keyboard-response","398","v","pagpalit","true","","4"
"1535.300000000745","","","","","3","html-slider-response","399","","","","4",""
"1096","","","","","3","html-keyboard-response","400","","","","",""
"3813","cat","paghukom,neyemba,baki,akili","paghukom","f","3","html-keyboard-response","401","j","baki","false","","4"
"1212.800000000745","","","","","3","html-slider-response","402","","","","1",""
"1465","","","","","3","html-keyboard-response","403","","","","",""
"5665","spider","bunyag,kamwe,mkboa,atop","kamwe","v","3","html-keyboard-response","404","v","kamwe","true","","4"
"1269.300000000745","","","","","3","html-slider-response","405","","","","2",""
"1160","","","","","3","html-keyboard-response","406","","","","",""
"3535","window","kweli,nanga,kujenga,umaga","kweli","f","3","html-keyboard-response","407","f","kweli","true","","4"
"1199.7000000011176","","","","","3","html-slider-response","408","","","","1",""
"1429","","","","","3","html-keyboard-response","409","","","","",""
"2102","woman","bandari,bituin,kovuli,pagtabon","pagtabon","n","3","html-keyboard-response","410","n","pagtabon","true","","1"
"1536.300000000745","","","","","3","html-slider-response","411","","","","5",""
"632","","","","","3","html-keyboard-response","412","","","","",""
"3123","giraffe","daraja,jumatu,hangyo,mahitabo","mahitabo","n","3","html-keyboard-response","413","n","mahitabo","true","","4"
"1391.9000000003725","","","","","3","html-slider-response","414","","","","1",""
"1154","","","","","3","html-keyboard-response","415","","","","",""
"5350","elephant","kito,petye,pagduol,suka","kito","f","3","html-keyboard-response","416","j","pagduol","false","","4"
"1206.5","","","","","3","html-slider-response","417","","","","1",""
"885","","","","","3","html-keyboard-response","418","","","","",""
"4713","cave","ganti,maisha,kesho,nyundo","kesho","j","3","html-keyboard-response","419","n","nyundo","false","","4"
"1334.0999999996275","","","","","3","html-slider-response","420","","","","1",""
"1155","","","","","3","html-keyboard-response","421","","","","",""
"3566","bread","dari,kaili,dizeli,bugas","dari","f","3","html-keyboard-response","422","f","dari","true","","4"
"1255.0999999996275","","","","","3","html-slider-response","423","","","","1",""
"1052","","","","","3","html-keyboard-response","424","","","","",""
"2962","stone","wingi,ulimwengu,mkasi,asili","wingi","f","3","html-keyboard-response","425","j","mkasi","false","","4"
"1412.5999999996275","","","","","3","html-slider-response","426","","","","1",""
"1499","","","","","3","html-keyboard-response","427","","","","",""
"3474","donkey","bloke,lalake,elfu,rombus","elfu","j","3","html-keyboard-response","428","v","lalake","false","","4"
"1372","","","","","3","html-slider-response","429","","","","1",""
"1024","","","","","3","html-keyboard-response","430","","","","",""
"4145","bridge","daima,sahani,ngono,panya","sahani","v","3","html-keyboard-response","431","f","daima","false","","4"
"1004.7000000011176","","","","","3","html-slider-response","432","","","","1",""
"1299","","","","","3","html-keyboard-response","433","","","","",""
"3767","bonfire","goti,mwezi,mfuko,kusanya","goti","f","3","html-keyboard-response","434","j","mfuko","false","","4"
"1120.7000000011176","","","","","3","html-slider-response","435","","","","1",""
"1182","","","","","3","html-keyboard-response","436","","","","",""
"3864","book","kuhesa,picha,mara,mali","mali","n","3","html-keyboard-response","437","j","mara","false","","4"
"1278.5","","","","","3","html-slider-response","438","","","","1",""
"1494","","","","","3","html-keyboard-response","439","","","","",""
"4009","fish","bala,buli,baho,imani","buli","v","3","html-keyboard-response","440","j","baho","false","","4"
"1317.199999999255","","","","","3","html-slider-response","441","","","","1",""
"1540","","","","","3","html-keyboard-response","442","","","","",""
"3152","spoon","betri,pagsulod,nzuri,ngazi","pagsulod","v","3","html-keyboard-response","443","v","pagsulod","true","","4"
"1814.199999999255","","","","","3","html-slider-response","444","","","","2",""
"1302","","","","","3","html-keyboard-response","445","","","","",""
"3632","scissors","duga,tanuri,mtawa,suga","tanuri","v","3","html-keyboard-response","446","j","mtawa","false","","4"
"1305.0999999996275","","","","","3","html-slider-response","447","","","","2",""
"1229","","","","","3","html-keyboard-response","448","","","","",""
"3248","page","wakala,ishiri,wimbo,skina","wimbo","j","3","html-keyboard-response","449","v","ishiri","false","","4"
"1257.5","","","","","3","html-slider-response","450","","","","1",""
"989","","","","","3","html-keyboard-response","451","","","","",""
"2073","nose","gubat,kopa,sehemu,kidole","sehemu","j","3","html-keyboard-response","452","j","sehemu","true","","1"
"1413.5999999996275","","","","","3","html-slider-response","453","","","","5",""
"910","","","","","3","html-keyboard-response","454","","","","",""
"3065","ceiling","kugita,kawaida,maua,rayna","maua","j","3","html-keyboard-response","455","v","kawaida","false","","4"
"1885.0999999996275","","","","","3","html-slider-response","456","","","","1",""
"1107","","","","","3","html-keyboard-response","457","","","","",""
"3461","bucket","kiatu,baga,ijayo,init","kiatu","f","3","html-keyboard-response","458","f","kiatu","true","","4"
"1135.4000000003725","","","","","3","html-slider-response","459","","","","1",""
"1449","","","","","3","html-keyboard-response","460","","","","",""
"1934","berry","abogado,nogozi,kofia,kinywa","kofia","j","3","html-keyboard-response","461","j","kofia","true","","1"
"1632.7999999988824","","","","","3","html-slider-response","462","","","","5",""
"898","","","","","3","html-keyboard-response","463","","","","",""
"1686","mother","kahawa,babaye,mbuzi,jokofu","babaye","v","3","html-keyboard-response","464","v","babaye","true","","1"
"1312.5","","","","","3","html-slider-response","465","","","","5",""
"816","","","","","3","html-keyboard-response","466","","","","",""
"3622","mosquito","isda,martilyo,taras,gutom","martilyo","v","3","html-keyboard-response","467","v","martilyo","true","","4"
"1157.5999999996275","","","","","3","html-slider-response","468","","","","2",""
"700","","","","","3","html-keyboard-response","469","","","","",""
"3265","perfume","bino,katuyoan,sungura,ndogo","katuyoan","v","3","html-keyboard-response","470","j","sungura","false","","4"
"1233","","","","","3","html-slider-response","471","","","","1",""
"971","","","","","3","html-keyboard-response","472","","","","",""
"3190","sheet","juuya,watu,kamantis,bililhon","bililhon","n","3","html-keyboard-response","473","n","bililhon","true","","4"
"1146.7999999988824","","","","","3","html-slider-response","474","","","","1",""
"1163","","","","","3","html-keyboard-response","475","","","","",""
"2457","puppet","napulo,lamok,godoro,mazishi","mazishi","n","3","html-keyboard-response","476","n","mazishi","true","","1"
"1308.5","","","","","3","html-slider-response","477","","","","5",""
"589","","","","","3","html-keyboard-response","478","","","","",""
"2981","poster","nchi,fedha,madungog,kasuko","madungog","j","3","html-keyboard-response","479","j","madungog","true","","4"
"1133.800000000745","","","","","3","html-slider-response","480","","","","2",""
"1223","","","","","3","html-keyboard-response","481","","","","",""
"4013","music","mraba,mageho,tumbo,baiski","baiski","n","3","html-keyboard-response","482","f","mraba","false","","4"
"1145.800000000745","","","","","3","html-slider-response","483","","","","2",""
"1088","","","","","3","html-keyboard-response","484","","","","",""
"3558","key","miaka,goma,ahos,chombo","chombo","n","3","html-keyboard-response","485","f","miaka","false","","4"
"1047.9000000003725","","","","","3","html-slider-response","486","","","","2",""
"938","","","","","3","html-keyboard-response","487","","","","",""
"3395","sock","ndoora,mamba,kimysa,mtirka","mamba","v","3","html-keyboard-response","488","n","mtirka","false","","4"
"1137.0999999996275","","","","","3","html-slider-response","489","","","","1",""
"1022","","","","","3","html-keyboard-response","490","","","","",""
"3379","marker","mapafu,salita,atay,maji","maji","n","3","html-keyboard-response","491","f","mapafu","false","","4"
"1107.5","","","","","3","html-slider-response","492","","","","1",""
"1337","","","","","3","html-keyboard-response","493","","","","",""
"3174","office","hazini,leso,yatima,kuna","leso","v","3","html-keyboard-response","494","f","hazini","false","","4"
"1955.9000000003725","","","","","3","html-slider-response","495","","","","1",""
"1307","","","","","3","html-keyboard-response","496","","","","",""
"2822","shoe","nyeusi,uyoga,hatua,kama","uyoga","v","3","html-keyboard-response","497","j","hatua","false","","4"
"2852.4000000003725","","","","","3","html-slider-response","498","","","","1",""
"1403","","","","","3","html-keyboard-response","499","","","","",""
"2941","cop","bustani,mechezo,jikoni,bakus","mechezo","v","3","html-keyboard-response","500","n","bakus","false","","4"
"986.0999999996275","","","","","3","html-slider-response","501","","","","1",""
"1157","","","","","3","html-keyboard-response","502","","","","",""
"2625","bank","silingan,kudhibi,tualya,ofisi","silingan","f","3","html-keyboard-response","503","f","silingan","true","","4"
"1194.699999999255","","","","","3","html-slider-response","504","","","","2",""
"1378","","","","","3","html-keyboard-response","505","","","","",""
"2171","letter","filimbi,kifua,chuma,uhuru","kifua","v","3","html-keyboard-response","506","v","kifua","true","","1"
"1455.199999999255","","","","","3","html-slider-response","507","","","","5",""
"525","","","","","3","html-keyboard-response","508","","","","",""
"1801","dog","bahari,lubi,washia,kalamu","bahari","f","3","html-keyboard-response","509","f","bahari","true","","1"
"1282.5999999996275","","","","","3","html-slider-response","510","","","","5",""
"456","","","","","3","html-keyboard-response","511","","","","",""
"3095","shop","nopya,kerida,samaki,ndezu","samaki","j","3","html-keyboard-response","512","j","samaki","true","","4"
"1279.9000000003725","","","","","3","html-slider-response","513","","","","2",""
"1014","","","","","3","html-keyboard-response","514","","","","",""
"3773","flower","tamasha,lobo,bega,usiku","bega","j","3","html-keyboard-response","515","n","usiku","false","","4"
"1055.5999999996275","","","","","3","html-slider-response","516","","","","1",""
"984","","","","","3","html-keyboard-response","517","","","","",""
"2165","cigar","ndugu,kuta,adhabu,mlango","adhabu","j","3","html-keyboard-response","518","j","adhabu","true","","1"
"1281.3999999985099","","","","","3","html-slider-response","519","","","","5",""
"697","","","","","3","html-keyboard-response","520","","","","",""
"2853","hammer","mekno,kitovu,napakyas,layag","napakyas","j","3","html-keyboard-response","521","j","napakyas","true","","4"
"1198.5999999996275","","","","","3","html-slider-response","522","","","","2",""
"1169","","","","","3","html-keyboard-response","523","","","","",""
"2878","fork","baboy,mgonjwa,paghago,gorisi","mgonjwa","v","3","html-keyboard-response","524","j","paghago","false","","4"
"1580.699999999255","","","","","3","html-slider-response","525","","","","1",""
"1391","","","","","3","html-keyboard-response","526","","","","",""
"1581","sun","bendi,luha,basi,uongo","basi","j","3","html-keyboard-response","527","j","basi","true","","1"
"1343.0999999996275","","","","","3","html-slider-response","528","","","","5",""
"575","","","","","3","html-keyboard-response","529","","","","",""
"2626","ladder","mashua,mwanga,pangalan,kamba","pangalan","j","3","html-keyboard-response","530","j","pangalan","true","","4"
"1170.0999999996275","","","","","3","html-slider-response","531","","","","2",""
"1149","","","","","3","html-keyboard-response","532","","","","",""
"1840","banana","kasamok,kazi,hagdan,twai","kazi","v","3","html-keyboard-response","533","v","kazi","true","","1"
"1366.800000000745","","","","","3","html-slider-response","534","","","","5",""
"526","","","","","3","html-keyboard-response","535","","","","",""
"3580","pudding","abug,mpishi,iring,aibu","aibu","n","3","html-keyboard-response","536","v","mpishi","false","","4"
"1114.0999999996275","","","","","3","html-slider-response","537","","","","2",""
"997","","","","","3","html-keyboard-response","538","","","","",""
"3757","body","nyundu,jibini,kununa,tindashan","tindashan","n","3","html-keyboard-response","539","n","tindashan","true","","4"
"1215.7999999988824","","","","","3","html-slider-response","540","","","","1",""
"1241","","","","","3","html-keyboard-response","541","","","","",""
"3663","bed","kalipay,mapintas,haraka,starehe","mapintas","v","3","html-keyboard-response","542","f","kalipay","false","","4"
"1066.800000000745","","","","","3","html-slider-response","543","","","","1",""
"996","","","","","3","html-keyboard-response","544","","","","",""
"3398","tissue","ugomvi,lamigas,kisiwa,katika","ugomvi","f","3","html-keyboard-response","545","f","ugomvi","true","","4"
"1608.800000000745","","","","","3","html-slider-response","546","","","","1",""
"817","","","","","3","html-keyboard-response","547","","","","",""
"3554","candle","gabi,farasi,kupanda,geza","geza","n","3","html-keyboard-response","548","v","farasi","false","","4"
"1895.9000000003725","","","","","3","html-slider-response","549","","","","1",""
"1687","","","","","3","html-keyboard-response","550","","","","",""
"1912","tomato","chupi,chupa,mvua,takatak","mvua","j","3","html-keyboard-response","551","j","mvua","true","","1"
"1258.5999999996275","","","","","3","html-slider-response","552","","","","5",""
"647","","","","","3","html-keyboard-response","553","","","","",""
"3013","list","alizeti,wingu,kuzama,kaso","wingu","v","3","html-keyboard-response","554","j","kuzama","false","","4"
"1777","","","","","3","html-slider-response","555","","","","1",""
"1042","","","","","3","html-keyboard-response","556","","","","",""
"3132","olive","jiwe,bata,siagi,welder","jiwe","f","3","html-keyboard-response","557","v","bata","false","","4"
"1203.9000000003725","","","","","3","html-slider-response","558","","","","1",""
"1071","","","","","3","html-keyboard-response","559","","","","",""
"1991","picture","silya,kubwa,chaki,asin","kubwa","v","3","html-keyboard-response","560","v","kubwa","true","","1"
"1148.5","","","","","3","html-slider-response","561","","","","5",""
"485","","","","","3","html-keyboard-response","562","","","","",""
"7697","page","wakala,ishiri,wimbo,skina","wimbo","j","4","html-keyboard-response","888","f","wakala","false","",""
"1398.0999999996275","","","","","4","html-slider-response","889","","","","2",""
"4466","sheet","bililhon,juuya,watu,kamantis","bililhon","f","4","html-keyboard-response","890","f","bililhon","true","",""
"1167.5","","","","","4","html-slider-response","891","","","","4",""
"4331","ladder","mashua,mwanga,kamba,pangalan","pangalan","n","4","html-keyboard-response","892","n","pangalan","true","",""
"1696","","","","","4","html-slider-response","893","","","","4",""
"4373","door","tena,surali,soko,nyota","surali","v","4","html-keyboard-response","894","f","tena","false","",""
"1044.300000000745","","","","","4","html-slider-response","895","","","","2",""
"3609","spider","bunyag,kamwe,mkboa,atop","kamwe","v","4","html-keyboard-response","896","v","kamwe","true","",""
"1221.0999999996275","","","","","4","html-slider-response","897","","","","5",""
"3448","picture","silya,chaki,asin,kubwa","kubwa","n","4","html-keyboard-response","898","n","kubwa","true","",""
"1103.2999999988824","","","","","4","html-slider-response","899","","","","5",""
"3759","boat","hamsi,pombe,agalon,kitanda","agalon","j","4","html-keyboard-response","900","j","agalon","true","",""
"1022.9000000003725","","","","","4","html-slider-response","901","","","","4",""
"3975","donkey","elfu,bloke,lalake,rombus","elfu","f","4","html-keyboard-response","902","f","elfu","true","",""
"998","","","","","4","html-slider-response","903","","","","4",""
"4776","book","kuhesa,mali,picha,mara","mali","v","4","html-keyboard-response","904","v","mali","true","",""
"1304.9000000003725","","","","","4","html-slider-response","905","","","","1",""
"4274","cup","matumai,dagat,shimoni,jeraha","matumai","f","4","html-keyboard-response","906","f","matumai","true","",""
"1061.0999999996275","","","","","4","html-slider-response","907","","","","2",""
"2909","sun","bendi,basi,luha,uongo","basi","v","4","html-keyboard-response","908","v","basi","true","",""
"1552.800000000745","","","","","4","html-slider-response","909","","","","5",""
"5570","pudding","aibu,abug,mpishi,iring","aibu","f","4","html-keyboard-response","910","j","mpishi","false","",""
"1374.699999999255","","","","","4","html-slider-response","911","","","","2",""
"3440","human","bado,tinapay,kikapu,punguza","tinapay","v","4","html-keyboard-response","912","v","tinapay","true","",""
"1302.7000000011176","","","","","4","html-slider-response","913","","","","2",""
"3020","squirrel","mahugaw,ukweli,hofu,kichwa","hofu","j","4","html-keyboard-response","914","j","hofu","true","",""
"1159.0999999996275","","","","","4","html-slider-response","915","","","","5",""
"4722","park","tambok,pwani,ihalas,bunifu","bunifu","n","4","html-keyboard-response","916","n","bunifu","true","",""
"1176.199999999255","","","","","4","html-slider-response","917","","","","2",""
"3087","poster","nchi,madungog,fedha,kasuko","madungog","v","4","html-keyboard-response","918","v","madungog","true","",""
"1036.800000000745","","","","","4","html-slider-response","919","","","","1",""
"5089","wolf","kaburi,ndizi,lugha,mchuzi","lugha","j","4","html-keyboard-response","920","n","mchuzi","false","",""
"1100.4000000003725","","","","","4","html-slider-response","921","","","","1",""
"3748","cat","neyemba,paghukom,baki,akili","paghukom","v","4","html-keyboard-response","922","j","baki","false","",""
"944.1999999992549","","","","","4","html-slider-response","923","","","","1",""
"4228","fish","bala,buli,baho,imani","buli","v","4","html-keyboard-response","924","j","baho","false","",""
"1004.3000000007451","","","","","4","html-slider-response","925","","","","2",""
"1836","tooth","kabalaka,kijiko,uadui,pahiyum","kabalaka","f","4","html-keyboard-response","926","f","kabalaka","true","",""
"1067","","","","","4","html-slider-response","927","","","","5",""
"2993","cave","ganti,maisha,nyundo,kesho","kesho","n","4","html-keyboard-response","928","n","kesho","true","",""
"1261.1000000014901","","","","","4","html-slider-response","929","","","","4",""
"3213","lamp","daub,afya,bilaska,mbolea","afya","v","4","html-keyboard-response","930","v","afya","true","",""
"1100.9000000003725","","","","","4","html-slider-response","931","","","","1",""
"2031","banana","kasamok,hagdan,kazi,twai","kazi","j","4","html-keyboard-response","932","j","kazi","true","",""
"1443.800000000745","","","","","4","html-slider-response","933","","","","5",""
"5407","bonfire","mwezi,goti,mfuko,kusanya","goti","v","4","html-keyboard-response","934","j","mfuko","false","",""
"1063.4000000003725","","","","","4","html-slider-response","935","","","","1",""
"3625","cop","mechezo,bustani,jikoni,bakus","mechezo","f","4","html-keyboard-response","936","n","bakus","false","",""
"1494","","","","","4","html-slider-response","937","","","","1",""
"4695","marker","mapafu,maji,salita,atay","maji","v","4","html-keyboard-response","938","f","mapafu","false","",""
"925.6999999992549","","","","","4","html-slider-response","939","","","","1",""
"3511","window","nanga,kweli,kujenga,umaga","kweli","v","4","html-keyboard-response","940","v","kweli","true","",""
"1023.4000000003725","","","","","4","html-slider-response","941","","","","1",""
"4609","body","nyundu,tindashan,jibini,kununa","tindashan","v","4","html-keyboard-response","942","v","tindashan","true","",""
"899.7999999988824","","","","","4","html-slider-response","943","","","","2",""
"2772","apple","ukame,estante,kisu,edad","kisu","j","4","html-keyboard-response","944","j","kisu","true","",""
"1014.4000000003725","","","","","4","html-slider-response","945","","","","2",""
"1635","salmon","mzungu,seri,sensilyo,baharia","sensilyo","j","4","html-keyboard-response","946","j","sensilyo","true","",""
"1800.0999999996275","","","","","4","html-slider-response","947","","","","5",""
"3667","bed","kalipay,haraka,mapintas,starehe","mapintas","j","4","html-keyboard-response","948","f","kalipay","false","",""
"1304.5","","","","","4","html-slider-response","949","","","","1",""
"1852","berry","abogado,kofia,nogozi,kinywa","kofia","v","4","html-keyboard-response","950","v","kofia","true","",""
"1092","","","","","4","html-slider-response","951","","","","5",""
"3763","mirror","sulagma,rangi,kanding,furaha","sulagma","f","4","html-keyboard-response","952","f","sulagma","true","",""
"1393.4000000003725","","","","","4","html-slider-response","953","","","","3",""
"4410","flag","ndege,mkate,kawa,trekta","trekta","n","4","html-keyboard-response","954","j","kawa","false","",""
"1111.0999999996275","","","","","4","html-slider-response","955","","","","1",""
"3188","shoulder","kelele,ndaniya,mkuu,guruwe","mkuu","j","4","html-keyboard-response","956","j","mkuu","true","",""
"1079.199999999255","","","","","4","html-slider-response","957","","","","2",""
"5239","tissue","ugomvi,lamigas,kisiwa,katika","ugomvi","f","4","html-keyboard-response","958","f","ugomvi","true","",""
"1077.199999999255","","","","","4","html-slider-response","959","","","","1",""
"3888","notebook","kemia,msitu,kila,mdudu","kemia","f","4","html-keyboard-response","960","j","kila","false","",""
"1917.4000000003725","","","","","4","html-slider-response","961","","","","2",""
"4203","snake","pagtukod,jansa,karon,mvringo","pagtukod","f","4","html-keyboard-response","962","f","pagtukod","true","",""
"878.1999999992549","","","","","4","html-slider-response","963","","","","1",""
"4331","finger","simu,sufuria,moyo,lima","moyo","j","4","html-keyboard-response","964","j","moyo","true","",""
"1019.3000000007451","","","","","4","html-slider-response","965","","","","1",""
"3664","basket","kumbuka,utepe,kumba,hasira","kumba","j","4","html-keyboard-response","966","f","kumbuka","false","",""
"1377.300000000745","","","","","4","html-slider-response","967","","","","1",""
"2824","curtain","mchanga,lisud,bulwawan,chubani","mchanga","f","4","html-keyboard-response","968","j","bulwawan","false","",""
"1089.5","","","","","4","html-slider-response","969","","","","2",""
"4457","perfume","bino,sungura,katuyoan,ndogo","katuyoan","j","4","html-keyboard-response","970","j","katuyoan","true","",""
"1108.4000000003725","","","","","4","html-slider-response","971","","","","2",""
"10897","key","miaka,goma,ahos,chombo","chombo","n","4","html-keyboard-response","972","f","miaka","false","",""
"1058.3999999985099","","","","","4","html-slider-response","973","","","","1",""
"2829","olive","bata,jiwe,siagi,welder","jiwe","v","4","html-keyboard-response","974","v","jiwe","true","",""
"961.2999999988824","","","","","4","html-slider-response","975","","","","5",""
"3549","rose","singizi,paghalad,mwanake,amani","paghalad","v","4","html-keyboard-response","976","v","paghalad","true","",""
"892.2000000011176","","","","","4","html-slider-response","977","","","","2",""
"4201","bridge","daima,ngono,panya,sahani","sahani","n","4","html-keyboard-response","978","f","daima","false","",""
"987.2000000011176","","","","","4","html-slider-response","979","","","","1",""
"1868","hill","kushoto,kukimba,sweta,matumbo","matumbo","n","4","html-keyboard-response","980","n","matumbo","true","",""
"1697.9000000003725","","","","","4","html-slider-response","981","","","","5",""
"4043","letter","filimbi,chuma,kifua,uhuru","kifua","j","4","html-keyboard-response","982","j","kifua","true","",""
"890.4000000003725","","","","","4","html-slider-response","983","","","","2",""
"3668","sock","ndoora,kimysa,mamba,mtirka","mamba","j","4","html-keyboard-response","984","v","kimysa","false","",""
"1026.4000000003725","","","","","4","html-slider-response","985","","","","2",""
"3266","fork","baboy,paghago,gorisi,mgonjwa","mgonjwa","n","4","html-keyboard-response","986","v","paghago","false","",""
"909.1999999992549","","","","","4","html-slider-response","987","","","","1",""
"3425","box","kuacha,adui,rafiki,kitande","adui","v","4","html-keyboard-response","988","f","kuacha","false","",""
"1061.699999999255","","","","","4","html-slider-response","989","","","","1",""
"2668","gift","baba,nyange,pagtawag,baso","pagtawag","j","4","html-keyboard-response","990","j","pagtawag","true","",""
"866.0999999996275","","","","","4","html-slider-response","991","","","","2",""
"2758","bucket","baga,ijayo,init,kiatu","kiatu","n","4","html-keyboard-response","992","n","kiatu","true","",""
"1283.4000000003725","","","","","4","html-slider-response","993","","","","1",""
"2793","shop","nopya,kerida,ndezu,samaki","samaki","n","4","html-keyboard-response","994","n","samaki","true","",""
"1741.199999999255","","","","","4","html-slider-response","995","","","","2",""
"2496","puppet","napulo,lamok,mazishi,godoro","mazishi","j","4","html-keyboard-response","996","j","mazishi","true","",""
"1415.9000000003725","","","","","4","html-slider-response","997","","","","3",""
"4697","nose","gubat,sehemu,kopa,kidole","sehemu","v","4","html-keyboard-response","998","v","sehemu","true","",""
"1023.5","","","","","4","html-slider-response","999","","","","1",""
"4836","music","mraba,baiski,mageho,tumbo","baiski","v","4","html-keyboard-response","1000","f","mraba","false","",""
"982.6999999992549","","","","","4","html-slider-response","1001","","","","1",""
"2576","dog","lubi,bahari,washia,kalamu","bahari","v","4","html-keyboard-response","1002","v","bahari","true","",""
"1141.4000000003725","","","","","4","html-slider-response","1003","","","","1",""
"4409","eel","msumari,ishara,kunywa,kabuang","msumari","f","4","html-keyboard-response","1004","j","kunywa","false","",""
"991.3000000007451","","","","","4","html-slider-response","1005","","","","1",""
"2866","number","shule,mundamo,kengele,choori","mundamo","v","4","html-keyboard-response","1006","v","mundamo","true","",""
"1127.5","","","","","4","html-slider-response","1007","","","","2",""
"4399","tomato","chupi,chupa,takatak,mvua","mvua","n","4","html-keyboard-response","1008","n","mvua","true","",""
"1099.5","","","","","4","html-slider-response","1009","","","","4",""
"2943","coffin","kioo,barua,tubag,hulma","kioo","f","4","html-keyboard-response","1010","v","barua","false","",""
"1007.3000000007451","","","","","4","html-slider-response","1011","","","","1",""
"3422","knee","mvuke,kubale,duka,bili","duka","j","4","html-keyboard-response","1012","v","kubale","false","",""
"950","","","","","4","html-slider-response","1013","","","","2",""
"3875","woman","bandari,bituin,pagtabon,kovuli","pagtabon","j","4","html-keyboard-response","1014","j","pagtabon","true","",""
"1065.7000000011176","","","","","4","html-slider-response","1015","","","","2",""
"3949","stone","wingi,ulimwengu,mkasi,asili","wingi","f","4","html-keyboard-response","1016","j","mkasi","false","",""
"943.5","","","","","4","html-slider-response","1017","","","","1",""
"2019","bread","kaili,dari,dizeli,bugas","dari","v","4","html-keyboard-response","1018","v","dari","true","",""
"918.5","","","","","4","html-slider-response","1019","","","","4",""
"4710","triangle","kihozi,bentaha,kasadpan,liog","kasadpan","j","4","html-keyboard-response","1020","j","kasadpan","true","",""
"1203.2000000011176","","","","","4","html-slider-response","1021","","","","1",""
"2771","scissors","duga,mtawa,tanuri,suga","tanuri","j","4","html-keyboard-response","1022","v","mtawa","false","",""
"1842.0999999996275","","","","","4","html-slider-response","1023","","","","1",""
"3670","giraffe","mahitabo,daraja,jumatu,hangyo","mahitabo","f","4","html-keyboard-response","1024","f","mahitabo","true","",""
"1048.4000000003725","","","","","4","html-slider-response","1025","","","","1",""
"3312","flower","tamasha,lobo,usiku,bega","bega","n","4","html-keyboard-response","1026","n","bega","true","",""
"1177.199999999255","","","","","4","html-slider-response","1027","","","","2",""
"3586","candle","geza,gabi,farasi,kupanda","geza","f","4","html-keyboard-response","1028","j","farasi","false","",""
"1191.800000000745","","","","","4","html-slider-response","1029","","","","1",""
"2779","mother","babaye,kahawa,mbuzi,jokofu","babaye","f","4","html-keyboard-response","1030","f","babaye","true","",""
"1049.199999999255","","","","","4","html-slider-response","1031","","","","5",""
"2782","towel","tembo,funzi,pito,pagpalit","pagpalit","n","4","html-keyboard-response","1032","n","pagpalit","true","",""
"1811.5999999996275","","","","","4","html-slider-response","1033","","","","5",""
"1584","elephant","kito,petye,pagduol,suka","kito","f","4","html-keyboard-response","1034","f","kito","true","",""
"1198.2000000011176","","","","","4","html-slider-response","1035","","","","5",""
"3359","shelf","pamahaw,bungtod,kadaot,awit","pamahaw","f","4","html-keyboard-response","1036","f","pamahaw","true","",""
"1204.800000000745","","","","","4","html-slider-response","1037","","","","3",""
"1574","mosquito","isda,taras,gutom,martilyo","martilyo","n","4","html-keyboard-response","1038","n","martilyo","true","",""
"1126.0999999996275","","","","","4","html-slider-response","1039","","","","5",""
"3045","column","pundok,dila,ufagio,pala","ufagio","j","4","html-keyboard-response","1040","f","pundok","false","",""
"982.7000000011176","","","","","4","html-slider-response","1041","","","","2",""
"3260","pants","pintal,chuki,haki,hari","haki","j","4","html-keyboard-response","1042","n","hari","false","",""
"2839.4000000003725","","","","","4","html-slider-response","1043","","","","2",""
"3543","list","alizeti,kuzama,wingu,kaso","wingu","j","4","html-keyboard-response","1044","j","wingu","true","",""
"1000.5","","","","","4","html-slider-response","1045","","","","2",""
"2516","bank","kudhibi,silingan,tualya,ofisi","silingan","v","4","html-keyboard-response","1046","v","silingan","true","",""
"1006.8000000007451","","","","","4","html-slider-response","1047","","","","1",""
"3348","clock","kartasi,abang,osha,mbwa","mbwa","n","4","html-keyboard-response","1048","n","mbwa","true","",""
"1068","","","","","4","html-slider-response","1049","","","","1",""
"3766","ceiling","kugita,kawaida,maua,rayna","maua","j","4","html-keyboard-response","1050","f","kugita","false","",""
"1309.6000000014901","","","","","4","html-slider-response","1051","","","","1",""
"3266","train","itik,sayari,dakika,mungu","sayari","v","4","html-keyboard-response","1052","v","sayari","true","",""
"1023.3999999985099","","","","","4","html-slider-response","1053","","","","1",""
"3073","magazine","gundi,mchawi,kiti,bahandi","kiti","j","4","html-keyboard-response","1054","j","kiti","true","",""
"869.5999999996275","","","","","4","html-slider-response","1055","","","","2",""
"3272","office","hazini,yatima,kuna,leso","leso","n","4","html-keyboard-response","1056","v","yatima","false","",""
"1038.6000000014901","","","","","4","html-slider-response","1057","","","","1",""
"2843","wheel","punda,tawo,bafuni,baadaye","bafuni","j","4","html-keyboard-response","1058","j","bafuni","true","",""
"1475.5999999996275","","","","","4","html-slider-response","1059","","","","2",""
"3390","spoon","pagsulod,betri,nzuri,ngazi","pagsulod","f","4","html-keyboard-response","1060","f","pagsulod","true","",""
"1310.4000000003725","","","","","4","html-slider-response","1061","","","","2",""
"4178","hammer","mekno,kitovu,napakyas,layag","napakyas","j","4","html-keyboard-response","1062","j","napakyas","true","",""
"1016.3000000007451","","","","","4","html-slider-response","1063","","","","2",""
"2496","cigar","ndugu,kuta,mlango,adhabu","adhabu","n","4","html-keyboard-response","1064","n","adhabu","true","",""
"1272.5","","","","","4","html-slider-response","1065","","","","4",""
"4280","shoe","nyeusi,uyoga,hatua,kama","uyoga","v","4","html-keyboard-response","1066","n","kama","false","",""
"1218.7999999988824","","","","","4","html-slider-response","1067","","","","1",""
"8683","list","wingu,alizeti,kuzama,kaso","wingu","f","5","html-keyboard-response","1069","f","wingu","true","",""
"1764.9000000003725","","","","","5","html-slider-response","1070","","","","4",""
"3440","number","shule,mundamo,kengele,choori","mundamo","v","5","html-keyboard-response","1071","v","mundamo","true","",""
"998.5999999996275","","","","","5","html-slider-response","1072","","","","1",""
"4810","apple","ukame,kisu,estante,edad","kisu","v","5","html-keyboard-response","1073","v","kisu","true","",""
"1370.2999999988824","","","","","5","html-slider-response","1074","","","","2",""
"4870","knee","mvuke,kubale,duka,bili","duka","j","5","html-keyboard-response","1075","f","mvuke","false","",""
"1372","","","","","5","html-slider-response","1076","","","","1",""
"1611","tooth","kijiko,uadui,pahiyum,kabalaka","kabalaka","n","5","html-keyboard-response","1077","n","kabalaka","true","",""
"1359.9000000003725","","","","","5","html-slider-response","1078","","","","5",""
"1400","berry","abogado,kofia,nogozi,kinywa","kofia","v","5","html-keyboard-response","1079","v","kofia","true","",""
"1038.800000000745","","","","","5","html-slider-response","1080","","","","5",""
"3045","bridge","daima,sahani,ngono,panya","sahani","v","5","html-keyboard-response","1081","f","daima","false","",""
"1121.300000000745","","","","","5","html-slider-response","1082","","","","1",""
"2593","perfume","bino,katuyoan,sungura,ndogo","katuyoan","v","5","html-keyboard-response","1083","v","katuyoan","true","",""
"1979.9000000003725","","","","","5","html-slider-response","1084","","","","3",""
"1776","ladder","mashua,pangalan,mwanga,kamba","pangalan","v","5","html-keyboard-response","1085","v","pangalan","true","",""
"1438","","","","","5","html-slider-response","1086","","","","4",""
"2522","pants","pintal,chuki,haki,hari","haki","j","5","html-keyboard-response","1087","n","hari","false","",""
"984.3999999985099","","","","","5","html-slider-response","1088","","","","2",""
"1999","salmon","sensilyo,mzungu,seri,baharia","sensilyo","f","5","html-keyboard-response","1089","f","sensilyo","true","",""
"1144.4000000003725","","","","","5","html-slider-response","1090","","","","5",""
"4753","coffin","barua,kioo,tubag,hulma","kioo","v","5","html-keyboard-response","1091","f","barua","false","",""
"841.0999999996275","","","","","5","html-slider-response","1092","","","","2",""
"4036","park","tambok,bunifu,pwani,ihalas","bunifu","v","5","html-keyboard-response","1093","j","pwani","false","",""
"1990.4000000003725","","","","","5","html-slider-response","1094","","","","1",""
"5816","giraffe","daraja,jumatu,hangyo,mahitabo","mahitabo","n","5","html-keyboard-response","1095","f","daraja","false","",""
"1555.5","","","","","5","html-slider-response","1096","","","","1",""
"2944","mirror","rangi,kanding,sulagma,furaha","sulagma","j","5","html-keyboard-response","1097","j","sulagma","true","",""
"1631","","","","","5","html-slider-response","1098","","","","2",""
"2603","ceiling","maua,kugita,kawaida,rayna","maua","f","5","html-keyboard-response","1099","j","kawaida","false","",""
"1034.4000000003725","","","","","5","html-slider-response","1100","","","","2",""
"3624","marker","mapafu,salita,atay,maji","maji","n","5","html-keyboard-response","1101","f","mapafu","false","",""
"1098.800000000745","","","","","5","html-slider-response","1102","","","","1",""
"3410","sock","ndoora,kimysa,mamba,mtirka","mamba","j","5","html-keyboard-response","1103","v","kimysa","false","",""
"1125.1000000014901","","","","","5","html-slider-response","1104","","","","2",""
"3389","cop","mechezo,bustani,jikoni,bakus","mechezo","f","5","html-keyboard-response","1105","f","mechezo","true","",""
"1002.6000000014901","","","","","5","html-slider-response","1106","","","","1",""
"2357","gift","baba,pagtawag,nyange,baso","pagtawag","v","5","html-keyboard-response","1107","v","pagtawag","true","",""
"1898.3999999985099","","","","","5","html-slider-response","1108","","","","4",""
"4018","notebook","kemia,msitu,kila,mdudu","kemia","f","5","html-keyboard-response","1109","j","kila","false","",""
"1631.7000000011176","","","","","5","html-slider-response","1110","","","","3",""
"2383","bank","kudhibi,tualya,silingan,ofisi","silingan","j","5","html-keyboard-response","1111","j","silingan","true","",""
"1315.5999999996275","","","","","5","html-slider-response","1112","","","","2",""
"4182","letter","filimbi,kifua,chuma,uhuru","kifua","v","5","html-keyboard-response","1113","v","kifua","true","",""
"1236","","","","","5","html-slider-response","1114","","","","2",""
"5323","candle","gabi,geza,farasi,kupanda","geza","v","5","html-keyboard-response","1115","j","farasi","false","",""
"1309.2000000011176","","","","","5","html-slider-response","1116","","","","1",""
"1712","bread","kaili,dari,dizeli,bugas","dari","v","5","html-keyboard-response","1117","v","dari","true","",""
"1360.8999999985099","","","","","5","html-slider-response","1118","","","","5",""
"4011","snake","jansa,karon,pagtukod,mvringo","pagtukod","j","5","html-keyboard-response","1119","j","pagtukod","true","",""
"1017.7000000011176","","","","","5","html-slider-response","1120","","","","2",""
"2479","rose","singizi,paghalad,mwanake,amani","paghalad","v","5","html-keyboard-response","1121","v","paghalad","true","",""
"1019.8999999985099","","","","","5","html-slider-response","1122","","","","2",""
"1594","hill","kushoto,kukimba,matumbo,sweta","matumbo","j","5","html-keyboard-response","1123","j","matumbo","true","",""
"1203.4000000003725","","","","","5","html-slider-response","1124","","","","5",""
"3209","train","itik,sayari,dakika,mungu","sayari","v","5","html-keyboard-response","1125","j","dakika","false","",""
"1402.9000000003725","","","","","5","html-slider-response","1126","","","","2",""
"3332","shop","nopya,kerida,ndezu,samaki","samaki","n","5","html-keyboard-response","1127","n","samaki","true","",""
"1114.0999999996275","","","","","5","html-slider-response","1128","","","","2",""
"3911","nose","sehemu,gubat,kopa,kidole","sehemu","f","5","html-keyboard-response","1129","j","kopa","false","",""
"1144.2000000011176","","","","","5","html-slider-response","1130","","","","1",""
"1871","boat","hamsi,pombe,agalon,kitanda","agalon","j","5","html-keyboard-response","1131","j","agalon","true","",""
"946","","","","","5","html-slider-response","1132","","","","4",""
"4223","body","nyundu,tindashan,jibini,kununa","tindashan","v","5","html-keyboard-response","1133","v","tindashan","true","",""
"2112.800000000745","","","","","5","html-slider-response","1134","","","","3",""
"4357","bed","kalipay,haraka,mapintas,starehe","mapintas","j","5","html-keyboard-response","1135","f","kalipay","false","",""
"1099.199999999255","","","","","5","html-slider-response","1136","","","","2",""
"1826","squirrel","hofu,mahugaw,ukweli,kichwa","hofu","f","5","html-keyboard-response","1137","f","hofu","true","",""
"1148.0999999996275","","","","","5","html-slider-response","1138","","","","5",""
"3320","window","kweli,nanga,kujenga,umaga","kweli","f","5","html-keyboard-response","1139","f","kweli","true","",""
"973.8999999985099","","","","","5","html-slider-response","1140","","","","2",""
"2323","bonfire","mwezi,mfuko,goti,kusanya","goti","j","5","html-keyboard-response","1141","j","goti","true","",""
"1058.6000000014901","","","","","5","html-slider-response","1142","","","","2",""
"3782","fish","bala,baho,imani,buli","buli","n","5","html-keyboard-response","1143","n","buli","true","",""
"1082.7000000011176","","","","","5","html-slider-response","1144","","","","1",""
"2377","cat","neyemba,paghukom,baki,akili","paghukom","v","5","html-keyboard-response","1145","v","paghukom","true","",""
"922.1000000014901","","","","","5","html-slider-response","1146","","","","2",""
"2081","spider","bunyag,mkboa,kamwe,atop","kamwe","j","5","html-keyboard-response","1147","j","kamwe","true","",""
"1348.6000000014901","","","","","5","html-slider-response","1148","","","","5",""
"2396","eel","ishara,kunywa,kabuang,msumari","msumari","n","5","html-keyboard-response","1149","j","kabuang","false","",""
"996.0999999996275","","","","","5","html-slider-response","1150","","","","2",""
"3227","woman","bandari,bituin,kovuli,pagtabon","pagtabon","n","5","html-keyboard-response","1151","n","pagtabon","true","",""
"1464.2999999988824","","","","","5","html-slider-response","1152","","","","3",""
"4017","magazine","gundi,mchawi,kiti,bahandi","kiti","j","5","html-keyboard-response","1153","j","kiti","true","",""
"843.3999999985099","","","","","5","html-slider-response","1154","","","","2",""
"3372","pudding","aibu,abug,mpishi,iring","aibu","f","5","html-keyboard-response","1155","f","aibu","true","",""
"1664.0999999996275","","","","","5","html-slider-response","1156","","","","2",""
"3469","lamp","daub,bilaska,mbolea,afya","afya","n","5","html-keyboard-response","1157","f","daub","false","",""
"1277.7999999988824","","","","","5","html-slider-response","1158","","","","1",""
"2570","cave","ganti,kesho,maisha,nyundo","kesho","v","5","html-keyboard-response","1159","v","kesho","true","",""
"1052.300000000745","","","","","5","html-slider-response","1160","","","","4",""
"3119","shoulder","kelele,mkuu,ndaniya,guruwe","mkuu","v","5","html-keyboard-response","1161","v","mkuu","true","",""
"1296.6000000014901","","","","","5","html-slider-response","1162","","","","4",""
"4249","stone","ulimwengu,mkasi,asili,wingi","wingi","n","5","html-keyboard-response","1163","f","ulimwengu","false","",""
"1351.8999999985099","","","","","5","html-slider-response","1164","","","","1",""
"3914","column","ufagio,pundok,dila,pala","ufagio","f","5","html-keyboard-response","1165","f","ufagio","true","",""
"1572.2000000011176","","","","","5","html-slider-response","1166","","","","1",""
"5107","page","wimbo,wakala,ishiri,skina","wimbo","f","5","html-keyboard-response","1167","j","ishiri","false","",""
"1142.699999999255","","","","","5","html-slider-response","1168","","","","1",""
"4337","shoe","nyeusi,uyoga,hatua,kama","uyoga","v","5","html-keyboard-response","1169","j","hatua","false","",""
"1416.9000000003725","","","","","5","html-slider-response","1170","","","","1",""
"2469","clock","kartasi,abang,osha,mbwa","mbwa","n","5","html-keyboard-response","1171","v","abang","false","",""
"1579.800000000745","","","","","5","html-slider-response","1172","","","","2",""
"1821","towel","tembo,pagpalit,funzi,pito","pagpalit","v","5","html-keyboard-response","1173","v","pagpalit","true","",""
"1346.3999999985099","","","","","5","html-slider-response","1174","","","","5",""
"2416","tomato","chupi,mvua,chupa,takatak","mvua","v","5","html-keyboard-response","1175","v","mvua","true","",""
"1439.1000000014901","","","","","5","html-slider-response","1176","","","","4",""
"3670","bucket","baga,ijayo,init,kiatu","kiatu","n","5","html-keyboard-response","1177","n","kiatu","true","",""
"1083.5","","","","","5","html-slider-response","1178","","","","1",""
"3124","finger","moyo,simu,sufuria,lima","moyo","f","5","html-keyboard-response","1179","n","lima","false","",""
"1435.300000000745","","","","","5","html-slider-response","1180","","","","1",""
"1642","mother","babaye,kahawa,mbuzi,jokofu","babaye","f","5","html-keyboard-response","1181","f","babaye","true","",""
"1111.699999999255","","","","","5","html-slider-response","1182","","","","5",""
"3299","human","tinapay,bado,kikapu,punguza","tinapay","f","5","html-keyboard-response","1183","n","punguza","false","",""
"1023.5","","","","","5","html-slider-response","1184","","","","2",""
"1827","sun","bendi,luha,uongo,basi","basi","n","5","html-keyboard-response","1185","n","basi","true","",""
"1144.5999999996275","","","","","5","html-slider-response","1186","","","","5",""
"2779","fork","mgonjwa,baboy,paghago,gorisi","mgonjwa","f","5","html-keyboard-response","1187","j","paghago","false","",""
"1582.199999999255","","","","","5","html-slider-response","1188","","","","2",""
"2306","donkey","bloke,elfu,lalake,rombus","elfu","v","5","html-keyboard-response","1189","v","elfu","true","",""
"1095.699999999255","","","","","5","html-slider-response","1190","","","","4",""
"3058","wolf","kaburi,ndizi,lugha,mchuzi","lugha","j","5","html-keyboard-response","1191","n","mchuzi","false","",""
"1018.4000000003725","","","","","5","html-slider-response","1192","","","","2",""
"2318","cigar","ndugu,adhabu,kuta,mlango","adhabu","v","5","html-keyboard-response","1193","v","adhabu","true","",""
"1051.5","","","","","5","html-slider-response","1194","","","","4",""
"2024","olive","bata,siagi,welder,jiwe","jiwe","n","5","html-keyboard-response","1195","n","jiwe","true","",""
"1160.800000000745","","","","","5","html-slider-response","1196","","","","5",""
"4893","key","miaka,goma,ahos,chombo","chombo","n","5","html-keyboard-response","1197","n","chombo","true","",""
"1089.699999999255","","","","","5","html-slider-response","1198","","","","1",""
"2475","door","surali,tena,soko,nyota","surali","f","5","html-keyboard-response","1199","n","nyota","false","",""
"1025.5","","","","","5","html-slider-response","1200","","","","1",""
"3395","wheel","bafuni,punda,tawo,baadaye","bafuni","f","5","html-keyboard-response","1201","n","baadaye","false","",""
"999.5999999996275","","","","","5","html-slider-response","1202","","","","2",""
"3620","basket","kumba,kumbuka,utepe,hasira","kumba","f","5","html-keyboard-response","1203","v","kumbuka","false","",""
"915.4000000003725","","","","","5","html-slider-response","1204","","","","1",""
"1376","elephant","kito,petye,pagduol,suka","kito","f","5","html-keyboard-response","1205","f","kito","true","",""
"990.5999999996275","","","","","5","html-slider-response","1206","","","","5",""
"2636","office","hazini,yatima,kuna,leso","leso","n","5","html-keyboard-response","1207","v","yatima","false","",""
"898.9000000003725","","","","","5","html-slider-response","1208","","","","1",""
"3340","music","mraba,mageho,baiski,tumbo","baiski","j","5","html-keyboard-response","1209","f","mraba","false","",""
"1241","","","","","5","html-slider-response","1210","","","","1",""
"3342","tissue","ugomvi,lamigas,kisiwa,katika","ugomvi","f","5","html-keyboard-response","1211","n","katika","false","",""
"965.1999999992549","","","","","5","html-slider-response","1212","","","","1",""
"2707","curtain","mchanga,lisud,bulwawan,chubani","mchanga","f","5","html-keyboard-response","1213","j","bulwawan","false","",""
"1189.1000000014901","","","","","5","html-slider-response","1214","","","","2",""
"5506","flag","ndege,mkate,trekta,kawa","trekta","j","5","html-keyboard-response","1215","v","mkate","false","",""
"971.1000000014901","","","","","5","html-slider-response","1216","","","","2",""
"3046","dog","lubi,washia,bahari,kalamu","bahari","j","5","html-keyboard-response","1217","n","kalamu","false","",""
"1675.300000000745","","","","","5","html-slider-response","1218","","","","1",""
"3060","cup","matumai,dagat,shimoni,jeraha","matumai","f","5","html-keyboard-response","1219","v","dagat","false","",""
"963.4000000003725","","","","","5","html-slider-response","1220","","","","1",""
"3355","sheet","juuya,watu,bililhon,kamantis","bililhon","j","5","html-keyboard-response","1221","j","bililhon","true","",""
"1363.9000000003725","","","","","5","html-slider-response","1222","","","","4",""
"3334","spoon","betri,nzuri,ngazi,pagsulod","pagsulod","n","5","html-keyboard-response","1223","n","pagsulod","true","",""
"1428.300000000745","","","","","5","html-slider-response","1224","","","","2",""
"3662","flower","tamasha,lobo,bega,usiku","bega","j","5","html-keyboard-response","1225","j","bega","true","",""
"1015.3000000007451","","","","","5","html-slider-response","1226","","","","2",""
"2945","picture","silya,chaki,asin,kubwa","kubwa","n","5","html-keyboard-response","1227","n","kubwa","true","",""
"1220.2000000011176","","","","","5","html-slider-response","1228","","","","5",""
"2360","puppet","napulo,lamok,mazishi,godoro","mazishi","j","5","html-keyboard-response","1229","j","mazishi","true","",""
"902.4000000003725","","","","","5","html-slider-response","1230","","","","2",""
"1605","banana","kasamok,hagdan,kazi,twai","kazi","j","5","html-keyboard-response","1231","j","kazi","true","",""
"1354.2000000011176","","","","","5","html-slider-response","1232","","","","5",""
"3935","book","kuhesa,mali,picha,mara","mali","v","5","html-keyboard-response","1233","v","mali","true","",""
"1151.699999999255","","","","","5","html-slider-response","1234","","","","2",""
"2051","triangle","kasadpan,kihozi,bentaha,liog","kasadpan","f","5","html-keyboard-response","1235","f","kasadpan","true","",""
"2214.4000000003725","","","","","5","html-slider-response","1236","","","","4",""
"2293","poster","nchi,fedha,madungog,kasuko","madungog","j","5","html-keyboard-response","1237","j","madungog","true","",""
"946.2999999988824","","","","","5","html-slider-response","1238","","","","2",""
"2437","box","kuacha,adui,rafiki,kitande","adui","v","5","html-keyboard-response","1239","f","kuacha","false","",""
"973.6000000014901","","","","","5","html-slider-response","1240","","","","1",""
"1463","mosquito","isda,taras,gutom,martilyo","martilyo","n","5","html-keyboard-response","1241","n","martilyo","true","",""
"1580.2999999988824","","","","","5","html-slider-response","1242","","","","5",""
"2386","shelf","bungtod,kadaot,awit,pamahaw","pamahaw","n","5","html-keyboard-response","1243","n","pamahaw","true","",""
"1235.699999999255","","","","","5","html-slider-response","1244","","","","2",""
"3397","scissors","duga,mtawa,suga,tanuri","tanuri","n","5","html-keyboard-response","1245","v","mtawa","false","",""
"966.8000000007451","","","","","5","html-slider-response","1246","","","","2",""
"1663","hammer","mekno,kitovu,napakyas,layag","napakyas","j","5","html-keyboard-response","1247","j","napakyas","true","",""
"1088.699999999255","","","","","5","html-slider-response","1248","","","","5",""
