"rt","en_word","options","swa_word","correct_answer","phase","trial_type","trial_index","input_answer","input_word","accuracy","certainty","amt_choices"
"41013","bonfire","goti,mwezi,mfuko,kusanya","goti","f","2","html-keyboard-response","106","j","mfuko","false","",""
"2774.600000023842","","","","","2","html-slider-response","107","","","","2",""
"34892","flower","tamasha,lobo,usiku,bega","bega","n","2","html-keyboard-response","108","v","lobo","false","",""
"2361.6999999284744","","","","","2","html-slider-response","109","","","","2",""
"44948","column","ufagio,pundok,dila,pala","ufagio","f","2","html-keyboard-response","110","v","pundok","false","",""
"2535","","","","","2","html-slider-response","111","","","","2",""
"4695","music","baiski,mraba,mageho,tumbo","baiski","f","2","html-keyboard-response","112","v","mraba","false","",""
"3260.399999976158","","","","","2","html-slider-response","113","","","","2",""
"3971","spider","bunyag,mkboa,atop,kamwe","kamwe","n","2","html-keyboard-response","114","n","kamwe","true","",""
"1995.3000000715256","","","","","2","html-slider-response","115","","","","4",""
"3320","fork","baboy,mgonjwa,paghago,gorisi","mgonjwa","v","2","html-keyboard-response","116","n","gorisi","false","",""
"2126.2000000476837","","","","","2","html-slider-response","117","","","","4",""
"11059","mosquito","isda,taras,gutom,martilyo","martilyo","n","2","html-keyboard-response","118","n","martilyo","true","",""
"2573.2999999523163","","","","","2","html-slider-response","119","","","","4",""
"4025","banana","kasamok,kazi,hagdan,twai","kazi","v","2","html-keyboard-response","120","v","kazi","true","",""
"2251.600000023842","","","","","2","html-slider-response","121","","","","4",""
"4795","cup","dagat,shimoni,jeraha,matumai","matumai","n","2","html-keyboard-response","122","f","dagat","false","",""
"2575.100000023842","","","","","2","html-slider-response","123","","","","4",""
"5636","shop","samaki,nopya,kerida,ndezu","samaki","f","2","html-keyboard-response","124","j","kerida","false","",""
"2638","","","","","2","html-slider-response","125","","","","4",""
"3933","elephant","kito,petye,pagduol,suka","kito","f","2","html-keyboard-response","126","n","suka","false","",""
"2683","","","","","2","html-slider-response","127","","","","4",""
"12713","bucket","baga,ijayo,kiatu,init","kiatu","j","2","html-keyboard-response","128","v","ijayo","false","",""
"3655.100000023842","","","","","2","html-slider-response","129","","","","4",""
"2956","book","kuhesa,picha,mali,mara","mali","j","2","html-keyboard-response","130","f","kuhesa","false","",""
"2194.7999999523163","","","","","2","html-slider-response","131","","","","4",""
"10897","mirror","rangi,kanding,furaha,sulagma","sulagma","n","2","html-keyboard-response","132","n","sulagma","true","",""
"2694.2999999523163","","","","","2","html-slider-response","133","","","","4",""
"2255","office","hazini,yatima,kuna,leso","leso","n","2","html-keyboard-response","134","v","yatima","false","",""
"2086.7000000476837","","","","","2","html-slider-response","135","","","","4",""
"2247","body","nyundu,tindashan,jibini,kununa","tindashan","v","2","html-keyboard-response","136","f","nyundu","false","",""
"1950.6000000238419","","","","","2","html-slider-response","137","","","","4",""
"2936","perfume","bino,sungura,katuyoan,ndogo","katuyoan","j","2","html-keyboard-response","138","v","sungura","false","",""
"1949.7000000476837","","","","","2","html-slider-response","139","","","","4",""
"4007","olive","jiwe,bata,siagi,welder","jiwe","f","2","html-keyboard-response","140","v","bata","false","",""
"1846.4000000953674","","","","","2","html-slider-response","141","","","","4",""
"2508","magazine","gundi,mchawi,bahandi,kiti","kiti","n","2","html-keyboard-response","142","j","bahandi","false","",""
"1904.7000000476837","","","","","2","html-slider-response","143","","","","4",""
"7663","bread","dari,kaili,dizeli,bugas","dari","f","2","html-keyboard-response","144","f","dari","true","",""
"2254.100000023842","","","","","2","html-slider-response","145","","","","4",""
"3871","cave","ganti,kesho,maisha,nyundo","kesho","v","2","html-keyboard-response","146","v","kesho","true","",""
"3276.8000000715256","","","","","2","html-slider-response","147","","","","4",""
"4326","ladder","mashua,mwanga,kamba,pangalan","pangalan","n","2","html-keyboard-response","148","n","pangalan","true","",""
"2677","","","","","2","html-slider-response","149","","","","4",""
"4528","human","bado,kikapu,tinapay,punguza","tinapay","j","2","html-keyboard-response","150","v","kikapu","false","",""
"2475.5","","","","","2","html-slider-response","151","","","","4",""
"6936","clock","kartasi,abang,osha,mbwa","mbwa","n","2","html-keyboard-response","152","v","abang","false","",""
"2379.3000000715256","","","","","2","html-slider-response","153","","","","4",""
"11767","shelf","pamahaw,bungtod,kadaot,awit","pamahaw","f","2","html-keyboard-response","154","v","bungtod","false","",""
"2053.100000023842","","","","","2","html-slider-response","155","","","","4",""
"4484","salmon","mzungu,seri,sensilyo,baharia","sensilyo","j","2","html-keyboard-response","156","n","baharia","false","",""
"3606.899999976158","","","","","2","html-slider-response","157","","","","2",""
"3778","coffin","kioo,barua,tubag,hulma","kioo","f","2","html-keyboard-response","158","n","hulma","false","",""
"2923.1999999284744","","","","","2","html-slider-response","159","","","","4",""
"5861","notebook","msitu,kila,mdudu,kemia","kemia","n","2","html-keyboard-response","160","j","mdudu","false","",""
"2628.399999976158","","","","","2","html-slider-response","161","","","","4",""
"4130","shoulder","kelele,mkuu,ndaniya,guruwe","mkuu","v","2","html-keyboard-response","162","n","guruwe","false","",""
"2325.9000000953674","","","","","2","html-slider-response","163","","","","4",""
"5201","park","tambok,pwani,bunifu,ihalas","bunifu","j","2","html-keyboard-response","164","f","tambok","false","",""
"2286.7000000476837","","","","","2","html-slider-response","165","","","","4",""
"4051","number","shule,mundamo,kengele,choori","mundamo","v","2","html-keyboard-response","166","v","mundamo","true","",""
"2193.399999976158","","","","","2","html-slider-response","167","","","","4",""
"4328","apple","kisu,ukame,estante,edad","kisu","f","2","html-keyboard-response","168","n","edad","false","",""
"2197.2000000476837","","","","","2","html-slider-response","169","","","","4",""
"3747","letter","filimbi,chuma,kifua,uhuru","kifua","j","2","html-keyboard-response","170","v","chuma","false","",""
"2639.6999999284744","","","","","2","html-slider-response","171","","","","4",""
"5466","eel","ishara,msumari,kunywa,kabuang","msumari","v","2","html-keyboard-response","172","f","ishara","false","",""
"2201.2999999523163","","","","","2","html-slider-response","173","","","","4",""
"5202","cop","bustani,mechezo,jikoni,bakus","mechezo","v","2","html-keyboard-response","174","n","bakus","false","",""
"3060.2999999523163","","","","","2","html-slider-response","175","","","","4",""
"2852","wolf","kaburi,ndizi,mchuzi,lugha","lugha","n","2","html-keyboard-response","176","v","ndizi","false","",""
"1970.5","","","","","2","html-slider-response","177","","","","4",""
"5760","squirrel","mahugaw,hofu,ukweli,kichwa","hofu","v","2","html-keyboard-response","178","f","mahugaw","false","",""
"1625.6000000238419","","","","","2","html-slider-response","179","","","","4",""
"2980","nose","gubat,kopa,kidole,sehemu","sehemu","n","2","html-keyboard-response","180","j","kidole","false","",""
"1777.8999999761581","","","","","2","html-slider-response","181","","","","4",""
"4314","sock","ndoora,kimysa,mamba,mtirka","mamba","j","2","html-keyboard-response","182","v","kimysa","false","",""
"2670.7000000476837","","","","","2","html-slider-response","183","","","","4",""
"7012","bank","silingan,kudhibi,tualya,ofisi","silingan","f","2","html-keyboard-response","184","j","tualya","false","",""
"3070.399999976158","","","","","2","html-slider-response","185","","","","4",""
"3722","donkey","bloke,lalake,rombus,elfu","elfu","n","2","html-keyboard-response","186","j","rombus","false","",""
"2252.9000000953674","","","","","2","html-slider-response","187","","","","4",""
"6336","poster","nchi,fedha,kasuko,madungog","madungog","n","2","html-keyboard-response","188","v","fedha","false","",""
"4353.299999952316","","","","","2","html-slider-response","189","","","","4",""
"6777","puppet","napulo,lamok,mazishi,godoro","mazishi","j","2","html-keyboard-response","190","f","napulo","false","",""
"1966.3999999761581","","","","","2","html-slider-response","191","","","","4",""
"3546","hill","kushoto,kukimba,matumbo,sweta","matumbo","j","2","html-keyboard-response","192","n","sweta","false","",""
"1884","","","","","2","html-slider-response","193","","","","4",""
"4168","tooth","kijiko,uadui,kabalaka,pahiyum","kabalaka","j","2","html-keyboard-response","194","v","uadui","false","",""
"3003","","","","","2","html-slider-response","195","","","","4",""
"3575","woman","bandari,bituin,kovuli,pagtabon","pagtabon","n","2","html-keyboard-response","196","f","bandari","false","",""
"2003.5","","","","","2","html-slider-response","197","","","","4",""
"14845","wheel","bafuni,punda,tawo,baadaye","bafuni","f","2","html-keyboard-response","198","v","punda","false","",""
"5100","","","","","2","html-slider-response","199","","","","4",""
"3048","mother","kahawa,mbuzi,jokofu,babaye","babaye","n","2","html-keyboard-response","200","v","mbuzi","false","",""
"2910","","","","","2","html-slider-response","201","","","","4",""
"34336","bed","kalipay,haraka,starehe,mapintas","mapintas","n","2","html-keyboard-response","202","v","haraka","false","",""
"12489","","","","","2","html-slider-response","203","","","","4",""
"4353","key","chombo,miaka,goma,ahos","chombo","f","2","html-keyboard-response","204","v","miaka","false","",""
"37917.10000002384","","","","","2","html-slider-response","205","","","","4",""
"4001","page","wakala,ishiri,skina,wimbo","wimbo","n","2","html-keyboard-response","206","f","wakala","false","",""
"2394.0999999046326","","","","","2","html-slider-response","207","","","","4",""
"8309","pants","pintal,chuki,hari,haki","haki","n","2","html-keyboard-response","208","n","haki","true","",""
"2349.399999976158","","","","","2","html-slider-response","209","","","","4",""
"2778","sun","bendi,luha,uongo,basi","basi","n","2","html-keyboard-response","210","v","luha","false","",""
"2236.899999976158","","","","","2","html-slider-response","211","","","","4",""
"42904","finger","simu,sufuria,moyo,lima","moyo","j","2","html-keyboard-response","212","f","simu","false","",""
"3073.100000023842","","","","","2","html-slider-response","213","","","","4",""
"2739","shoe","nyeusi,hatua,uyoga,kama","uyoga","j","2","html-keyboard-response","214","v","hatua","false","",""
"2628","","","","","2","html-slider-response","215","","","","4",""
"21617","giraffe","daraja,mahitabo,jumatu,hangyo","mahitabo","v","2","html-keyboard-response","216","v","mahitabo","true","",""
"2473.0999999046326","","","","","2","html-slider-response","217","","","","4",""
"4708","dog","lubi,washia,kalamu,bahari","bahari","n","2","html-keyboard-response","218","n","bahari","true","",""
"1885.8999999761581","","","","","2","html-slider-response","219","","","","4",""
"8473","box","adui,kuacha,rafiki,kitande","adui","f","2","html-keyboard-response","220","n","kitande","false","",""
"1824.5","","","","","2","html-slider-response","221","","","","4",""
"10427","scissors","duga,mtawa,suga,tanuri","tanuri","n","2","html-keyboard-response","222","v","mtawa","false","",""
"3011.399999976158","","","","","2","html-slider-response","223","","","","4",""
"12858","cat","neyemba,baki,paghukom,akili","paghukom","j","2","html-keyboard-response","224","n","akili","false","",""
"3267.100000023842","","","","","2","html-slider-response","225","","","","4",""
"11123","basket","kumbuka,kumba,utepe,hasira","kumba","v","2","html-keyboard-response","226","v","kumba","true","",""
"2181.100000023842","","","","","2","html-slider-response","227","","","","4",""
"7676","snake","jansa,karon,mvringo,pagtukod","pagtukod","n","2","html-keyboard-response","228","j","mvringo","false","",""
"2335","","","","","2","html-slider-response","229","","","","2",""
"12939","gift","baba,nyange,pagtawag,baso","pagtawag","j","2","html-keyboard-response","230","v","nyange","false","",""
"2146.8000000715256","","","","","2","html-slider-response","231","","","","4",""
"25083","train","itik,dakika,sayari,mungu","sayari","j","2","html-keyboard-response","232","n","mungu","false","",""
"2017.0999999046326","","","","","2","html-slider-response","233","","","","4",""
"3760","pudding","aibu,abug,mpishi,iring","aibu","f","2","html-keyboard-response","234","j","mpishi","false","",""
"2006.6999999284744","","","","","2","html-slider-response","235","","","","4",""
"7266","tomato","chupi,mvua,chupa,takatak","mvua","v","2","html-keyboard-response","236","j","chupa","false","",""
"2176.5","","","","","2","html-slider-response","237","","","","4",""
"46814","stone","ulimwengu,mkasi,asili,wingi","wingi","n","2","html-keyboard-response","238","j","asili","false","",""
"10374.699999928474","","","","","2","html-slider-response","239","","","","4",""
"4257","hammer","mekno,kitovu,napakyas,layag","napakyas","j","2","html-keyboard-response","240","n","layag","false","",""
"1901.7000000476837","","","","","2","html-slider-response","241","","","","4",""
"24066","knee","duka,mvuke,kubale,bili","duka","f","2","html-keyboard-response","242","f","duka","true","",""
"2933.5","","","","","2","html-slider-response","243","","","","4",""
"11763","ceiling","maua,kugita,kawaida,rayna","maua","f","2","html-keyboard-response","244","v","kugita","false","",""
"2439.100000023842","","","","","2","html-slider-response","245","","","","4",""
"2634","spoon","betri,pagsulod,nzuri,ngazi","pagsulod","v","2","html-keyboard-response","246","j","nzuri","false","",""
"1980.7000000476837","","","","","2","html-slider-response","247","","","","4",""
"4820","marker","mapafu,salita,maji,atay","maji","j","2","html-keyboard-response","248","f","mapafu","false","",""
"2059.5","","","","","2","html-slider-response","249","","","","4",""
"6081","candle","gabi,farasi,kupanda,geza","geza","n","2","html-keyboard-response","250","f","gabi","false","",""
"2245.6999999284744","","","","","2","html-slider-response","251","","","","4",""
"15329","tissue","lamigas,kisiwa,katika,ugomvi","ugomvi","n","2","html-keyboard-response","252","f","lamigas","false","",""
"2348.899999976158","","","","","2","html-slider-response","253","","","","4",""
"2233","bridge","daima,ngono,panya,sahani","sahani","n","2","html-keyboard-response","254","v","ngono","false","",""
"2199.399999976158","","","","","2","html-slider-response","255","","","","4",""
"3229","berry","abogado,nogozi,kofia,kinywa","kofia","j","2","html-keyboard-response","256","v","nogozi","false","",""
"9371.600000023842","","","","","2","html-slider-response","257","","","","4",""
"9972","triangle","kihozi,bentaha,liog,kasadpan","kasadpan","n","2","html-keyboard-response","258","v","bentaha","false","",""
"2269.5","","","","","2","html-slider-response","259","","","","4",""
"4231","door","tena,soko,surali,nyota","surali","j","2","html-keyboard-response","260","j","surali","true","",""
"1986.9000000953674","","","","","2","html-slider-response","261","","","","4",""
"4916","fish","bala,buli,baho,imani","buli","v","2","html-keyboard-response","262","v","buli","true","",""
"2529.899999976158","","","","","2","html-slider-response","263","","","","4",""
"4497","curtain","lisud,mchanga,bulwawan,chubani","mchanga","v","2","html-keyboard-response","264","n","chubani","false","",""
"6906.899999976158","","","","","2","html-slider-response","265","","","","2",""
"3437","flag","trekta,ndege,mkate,kawa","trekta","f","2","html-keyboard-response","266","v","ndege","false","",""
"2449.2999999523163","","","","","2","html-slider-response","267","","","","4",""
"4803","boat","hamsi,agalon,pombe,kitanda","agalon","v","2","html-keyboard-response","268","f","hamsi","false","",""
"2455.399999976158","","","","","2","html-slider-response","269","","","","4",""
"11697","rose","paghalad,singizi,mwanake,amani","paghalad","f","2","html-keyboard-response","270","n","amani","false","",""
"2315.5","","","","","2","html-slider-response","271","","","","4",""
"9227","lamp","afya,daub,bilaska,mbolea","afya","f","2","html-keyboard-response","272","f","afya","true","",""
"2619.8000000715256","","","","","2","html-slider-response","273","","","","4",""
"9284","cigar","ndugu,kuta,mlango,adhabu","adhabu","n","2","html-keyboard-response","274","v","kuta","false","",""
"2634.6999999284744","","","","","2","html-slider-response","275","","","","4",""
"6987","list","alizeti,wingu,kuzama,kaso","wingu","v","2","html-keyboard-response","276","j","kuzama","false","",""
"4111","","","","","2","html-slider-response","277","","","","4",""
"3430","sheet","juuya,watu,bililhon,kamantis","bililhon","j","2","html-keyboard-response","278","v","watu","false","",""
"2381","","","","","2","html-slider-response","279","","","","4",""
"5617","picture","silya,chaki,asin,kubwa","kubwa","n","2","html-keyboard-response","280","f","silya","false","",""
"6097.600000023842","","","","","2","html-slider-response","281","","","","4",""
"5549","towel","pagpalit,tembo,funzi,pito","pagpalit","f","2","html-keyboard-response","282","v","tembo","false","",""
"2878.4000000953674","","","","","2","html-slider-response","283","","","","4",""
"11403","window","nanga,kweli,kujenga,umaga","kweli","v","2","html-keyboard-response","284","v","kweli","true","",""
"2646.899999976158","","","","","2","html-slider-response","285","","","","4",""
"31124","box","kuacha,adui,rafiki,kitande","adui","v","3","html-keyboard-response","293","v","adui","true","","4"
"3768.2000000476837","","","","","3","html-slider-response","294","","","","4",""
"3569","","","","","3","html-keyboard-response","295","","","","",""
"3670","pants","haki,pintal,chuki,hari","haki","f","3","html-keyboard-response","296","f","haki","true","","4"
"2290.7999999523163","","","","","3","html-slider-response","297","","","","2",""
"3071","","","","","3","html-keyboard-response","298","","","","",""
"4933","cup","dagat,matumai,shimoni,jeraha","matumai","v","3","html-keyboard-response","299","f","dagat","false","","4"
"1991.7999999523163","","","","","3","html-slider-response","300","","","","2",""
"6838","","","","","3","html-keyboard-response","301","","","","",""
"7367","triangle","kihozi,bentaha,kasadpan,liog","kasadpan","j","3","html-keyboard-response","302","v","bentaha","false","","4"
"1930.7000000476837","","","","","3","html-slider-response","303","","","","2",""
"10334","","","","","3","html-keyboard-response","304","","","","",""
"4864","curtain","lisud,mchanga,bulwawan,chubani","mchanga","v","3","html-keyboard-response","305","n","chubani","false","","4"
"2752.600000023842","","","","","3","html-slider-response","306","","","","2",""
"2431","","","","","3","html-keyboard-response","307","","","","",""
"3339","clock","mbwa,kartasi,abang,osha","mbwa","f","3","html-keyboard-response","308","j","abang","false","","4"
"1881","","","","","3","html-slider-response","309","","","","2",""
"2526","","","","","3","html-keyboard-response","310","","","","",""
"8530","mirror","sulagma,rangi,kanding,furaha","sulagma","f","3","html-keyboard-response","311","f","sulagma","true","","4"
"1957.3000000715256","","","","","3","html-slider-response","312","","","","2",""
"21676","","","","","3","html-keyboard-response","313","","","","",""
"3833","coffin","kioo,barua,tubag,hulma","kioo","f","3","html-keyboard-response","314","f","kioo","true","","1"
"2737.100000023842","","","","","3","html-slider-response","315","","","","2",""
"1866","","","","","3","html-keyboard-response","316","","","","",""
"4648","magazine","gundi,mchawi,bahandi,kiti","kiti","n","3","html-keyboard-response","317","v","mchawi","false","","4"
"1932.5999999046326","","","","","3","html-slider-response","318","","","","2",""
"1990","","","","","3","html-keyboard-response","319","","","","",""
"1952","column","pundok,dila,ufagio,pala","ufagio","j","3","html-keyboard-response","320","j","ufagio","true","","1"
"3332.7999999523163","","","","","3","html-slider-response","321","","","","3",""
"1646","","","","","3","html-keyboard-response","322","","","","",""
"2343","number","shule,mundamo,kengele,choori","mundamo","v","3","html-keyboard-response","323","v","mundamo","true","","4"
"1979.3999999761581","","","","","3","html-slider-response","324","","","","2",""
"14916","","","","","3","html-keyboard-response","325","","","","",""
"1923","rose","singizi,paghalad,mwanake,amani","paghalad","v","3","html-keyboard-response","326","n","amani","false","","4"
"1735.7000000476837","","","","","3","html-slider-response","327","","","","2",""
"5557","","","","","3","html-keyboard-response","328","","","","",""
"3086","eel","msumari,ishara,kunywa,kabuang","msumari","f","3","html-keyboard-response","329","v","ishara","false","","4"
"3077.8000000715256","","","","","3","html-slider-response","330","","","","2",""
"16930","","","","","3","html-keyboard-response","331","","","","",""
"3990","gift","pagtawag,baba,nyange,baso","pagtawag","f","3","html-keyboard-response","332","v","baba","false","","4"
"2445.5","","","","","3","html-slider-response","333","","","","2",""
"63415","","","","","3","html-keyboard-response","334","","","","",""
"1905","apple","kisu,ukame,estante,edad","kisu","f","3","html-keyboard-response","335","f","kisu","true","","1"
"1912.2000000476837","","","","","3","html-slider-response","336","","","","4",""
"2825","","","","","3","html-keyboard-response","337","","","","",""
"1862","wheel","punda,tawo,baadaye,bafuni","bafuni","n","3","html-keyboard-response","338","n","bafuni","true","","1"
"2337.2000000476837","","","","","3","html-slider-response","339","","","","4",""
"1463","","","","","3","html-keyboard-response","340","","","","",""
"2999","knee","duka,mvuke,kubale,bili","duka","f","3","html-keyboard-response","341","f","duka","true","","4"
"4925.300000071526","","","","","3","html-slider-response","342","","","","2",""
"3858","","","","","3","html-keyboard-response","343","","","","",""
"2107","basket","kumba,kumbuka,utepe,hasira","kumba","f","3","html-keyboard-response","344","f","kumba","true","","1"
"2377","","","","","3","html-slider-response","345","","","","4",""
"3179","","","","","3","html-keyboard-response","346","","","","",""
"4407","park","tambok,pwani,ihalas,bunifu","bunifu","n","3","html-keyboard-response","347","v","pwani","false","","4"
"2418.100000023842","","","","","3","html-slider-response","348","","","","2",""
"4471","","","","","3","html-keyboard-response","349","","","","",""
"5344","finger","simu,sufuria,moyo,lima","moyo","j","3","html-keyboard-response","350","j","moyo","true","","4"
"2307.5","","","","","3","html-slider-response","351","","","","2",""
"22445","","","","","3","html-keyboard-response","352","","","","",""
"5888","boat","hamsi,pombe,kitanda,agalon","agalon","n","3","html-keyboard-response","353","j","kitanda","false","","4"
"2650.5","","","","","3","html-slider-response","354","","","","2",""
"17159","","","","","3","html-keyboard-response","355","","","","",""
"5385","hill","kushoto,kukimba,matumbo,sweta","matumbo","j","3","html-keyboard-response","356","v","kukimba","false","","4"
"2266.0999999046326","","","","","3","html-slider-response","357","","","","2",""
"32581","","","","","3","html-keyboard-response","358","","","","",""
"4394","train","itik,dakika,mungu,sayari","sayari","n","3","html-keyboard-response","359","v","dakika","false","","4"
"2919.7999999523163","","","","","3","html-slider-response","360","","","","2",""
"1192","","","","","3","html-keyboard-response","361","","","","",""
"3275","wolf","kaburi,ndizi,mchuzi,lugha","lugha","n","3","html-keyboard-response","362","v","ndizi","false","","4"
"1898.6000000238419","","","","","3","html-slider-response","363","","","","2",""
"1304","","","","","3","html-keyboard-response","364","","","","",""
"4884","snake","jansa,pagtukod,karon,mvringo","pagtukod","v","3","html-keyboard-response","365","j","karon","false","","4"
"2725.899999976158","","","","","3","html-slider-response","366","","","","2",""
"1592","","","","","3","html-keyboard-response","367","","","","",""
"8563","tooth","kabalaka,kijiko,uadui,pahiyum","kabalaka","f","3","html-keyboard-response","368","j","uadui","false","","4"
"2668.1999999284744","","","","","3","html-slider-response","369","","","","2",""
"1234","","","","","3","html-keyboard-response","370","","","","",""
"3364","notebook","kemia,msitu,kila,mdudu","kemia","f","3","html-keyboard-response","371","v","msitu","false","","4"
"4835","","","","","3","html-slider-response","372","","","","2",""
"1284","","","","","3","html-keyboard-response","373","","","","",""
"26441","flag","ndege,mkate,trekta,kawa","trekta","j","3","html-keyboard-response","374","v","mkate","false","","4"
"1887.1000000238419","","","","","3","html-slider-response","375","","","","2",""
"2201","","","","","3","html-keyboard-response","376","","","","",""
"2639","squirrel","mahugaw,ukweli,hofu,kichwa","hofu","j","3","html-keyboard-response","377","f","mahugaw","false","","4"
"1800.8999999761581","","","","","3","html-slider-response","378","","","","2",""
"1390","","","","","3","html-keyboard-response","379","","","","",""
"5563","door","surali,tena,soko,nyota","surali","f","3","html-keyboard-response","380","j","soko","false","","4"
"2974.3000000715256","","","","","3","html-slider-response","381","","","","2",""
"1525","","","","","3","html-keyboard-response","382","","","","",""
"2896","salmon","mzungu,seri,baharia,sensilyo","sensilyo","n","3","html-keyboard-response","383","v","seri","false","","4"
"1791.5","","","","","3","html-slider-response","384","","","","2",""
"932","","","","","3","html-keyboard-response","385","","","","",""
"3161","shoulder","mkuu,kelele,ndaniya,guruwe","mkuu","f","3","html-keyboard-response","386","v","kelele","false","","4"
"2814.8000000715256","","","","","3","html-slider-response","387","","","","2",""
"978","","","","","3","html-keyboard-response","388","","","","",""
"2593","lamp","daub,afya,bilaska,mbolea","afya","v","3","html-keyboard-response","389","f","daub","false","","4"
"8968.800000071526","","","","","3","html-slider-response","390","","","","2",""
"11017","","","","","3","html-keyboard-response","391","","","","",""
"1435","shelf","bungtod,kadaot,pamahaw,awit","pamahaw","j","3","html-keyboard-response","392","j","pamahaw","true","","1"
"2086.7999999523163","","","","","3","html-slider-response","393","","","","4",""
"2112","","","","","3","html-keyboard-response","394","","","","",""
"3465","human","bado,kikapu,tinapay,punguza","tinapay","j","3","html-keyboard-response","395","n","punguza","false","","4"
"1672.1999999284744","","","","","3","html-slider-response","396","","","","2",""
"1220","","","","","3","html-keyboard-response","397","","","","",""
"12806","towel","tembo,pagpalit,funzi,pito","pagpalit","v","3","html-keyboard-response","398","j","funzi","false","","4"
"3109.1999999284744","","","","","3","html-slider-response","399","","","","2",""
"1157","","","","","3","html-keyboard-response","400","","","","",""
"2793","cat","neyemba,baki,akili,paghukom","paghukom","n","3","html-keyboard-response","401","j","akili","false","","4"
"1748.8000000715256","","","","","3","html-slider-response","402","","","","2",""
"1167","","","","","3","html-keyboard-response","403","","","","",""
"2356","spider","bunyag,mkboa,atop,kamwe","kamwe","n","3","html-keyboard-response","404","n","kamwe","true","","4"
"2842.100000023842","","","","","3","html-slider-response","405","","","","2",""
"26537","","","","","3","html-keyboard-response","406","","","","",""
"2994","window","nanga,kujenga,kweli,umaga","kweli","j","3","html-keyboard-response","407","f","nanga","false","","4"
"1927","","","","","3","html-slider-response","408","","","","2",""
"963","","","","","3","html-keyboard-response","409","","","","",""
"1445","woman","pagtabon,bandari,bituin,kovuli","pagtabon","f","3","html-keyboard-response","410","f","pagtabon","true","","1"
"4740.600000023842","","","","","3","html-slider-response","411","","","","4",""
"1321","","","","","3","html-keyboard-response","412","","","","",""
"3451","giraffe","mahitabo,daraja,jumatu,hangyo","mahitabo","f","3","html-keyboard-response","413","f","mahitabo","true","","4"
"2152.1999999284744","","","","","3","html-slider-response","414","","","","2",""
"26934","","","","","3","html-keyboard-response","415","","","","",""
"2868","elephant","petye,pagduol,kito,suka","kito","j","3","html-keyboard-response","416","v","pagduol","false","","4"
"1715.6000000238419","","","","","3","html-slider-response","417","","","","2",""
"1095","","","","","3","html-keyboard-response","418","","","","",""
"3482","cave","ganti,maisha,nyundo,kesho","kesho","n","3","html-keyboard-response","419","f","ganti","false","","4"
"1851.1000000238419","","","","","3","html-slider-response","420","","","","2",""
"1239","","","","","3","html-keyboard-response","421","","","","",""
"6085","bread","dari,kaili,dizeli,bugas","dari","f","3","html-keyboard-response","422","f","dari","true","","4"
"1754.1999999284744","","","","","3","html-slider-response","423","","","","2",""
"45290","","","","","3","html-keyboard-response","424","","","","",""
"7580","stone","ulimwengu,wingi,mkasi,asili","wingi","v","3","html-keyboard-response","425","j","mkasi","false","","4"
"3437.4000000953674","","","","","3","html-slider-response","426","","","","2",""
"956","","","","","3","html-keyboard-response","427","","","","",""
"3019","donkey","elfu,bloke,lalake,rombus","elfu","f","3","html-keyboard-response","428","n","rombus","false","","4"
"1802.2000000476837","","","","","3","html-slider-response","429","","","","2",""
"995","","","","","3","html-keyboard-response","430","","","","",""
"7443","bridge","daima,ngono,panya,sahani","sahani","n","3","html-keyboard-response","431","v","ngono","false","","4"
"2301.5","","","","","3","html-slider-response","432","","","","2",""
"794","","","","","3","html-keyboard-response","433","","","","",""
"4697","bonfire","mwezi,goti,mfuko,kusanya","goti","v","3","html-keyboard-response","434","j","mfuko","false","","4"
"1840","","","","","3","html-slider-response","435","","","","2",""
"1063","","","","","3","html-keyboard-response","436","","","","",""
"5361","book","mali,kuhesa,picha,mara","mali","f","3","html-keyboard-response","437","f","mali","true","","4"
"3541.399999976158","","","","","3","html-slider-response","438","","","","2",""
"2166","","","","","3","html-keyboard-response","439","","","","",""
"4201","fish","bala,baho,buli,imani","buli","j","3","html-keyboard-response","440","j","buli","true","","4"
"1800.1000000238419","","","","","3","html-slider-response","441","","","","2",""
"15483","","","","","3","html-keyboard-response","442","","","","",""
"3665","spoon","betri,pagsulod,nzuri,ngazi","pagsulod","v","3","html-keyboard-response","443","v","pagsulod","true","","4"
"2468","","","","","3","html-slider-response","444","","","","2",""
"1503","","","","","3","html-keyboard-response","445","","","","",""
"3010","scissors","duga,tanuri,mtawa,suga","tanuri","v","3","html-keyboard-response","446","f","duga","false","","4"
"2330.5","","","","","3","html-slider-response","447","","","","2",""
"992","","","","","3","html-keyboard-response","448","","","","",""
"2448","page","wakala,ishiri,skina,wimbo","wimbo","n","3","html-keyboard-response","449","v","ishiri","false","","4"
"1744.1999999284744","","","","","3","html-slider-response","450","","","","2",""
"1048","","","","","3","html-keyboard-response","451","","","","",""
"1369","nose","gubat,kopa,sehemu,kidole","sehemu","j","3","html-keyboard-response","452","j","sehemu","true","","1"
"1988.1000000238419","","","","","3","html-slider-response","453","","","","4",""
"1231","","","","","3","html-keyboard-response","454","","","","",""
"5844","ceiling","kugita,maua,kawaida,rayna","maua","v","3","html-keyboard-response","455","j","kawaida","false","","4"
"3170.2000000476837","","","","","3","html-slider-response","456","","","","2",""
"1218","","","","","3","html-keyboard-response","457","","","","",""
"3250","bucket","baga,kiatu,ijayo,init","kiatu","v","3","html-keyboard-response","458","v","kiatu","true","","4"
"1974.1999999284744","","","","","3","html-slider-response","459","","","","2",""
"23805","","","","","3","html-keyboard-response","460","","","","",""
"1783","berry","abogado,kofia,nogozi,kinywa","kofia","v","3","html-keyboard-response","461","v","kofia","true","","1"
"1988.8999999761581","","","","","3","html-slider-response","462","","","","4",""
"1008","","","","","3","html-keyboard-response","463","","","","",""
"1152","mother","kahawa,mbuzi,babaye,jokofu","babaye","j","3","html-keyboard-response","464","j","babaye","true","","1"
"3285.7999999523163","","","","","3","html-slider-response","465","","","","4",""
"1687","","","","","3","html-keyboard-response","466","","","","",""
"2092","mosquito","isda,taras,martilyo,gutom","martilyo","j","3","html-keyboard-response","467","j","martilyo","true","","4"
"2008.5","","","","","3","html-slider-response","468","","","","2",""
"1567","","","","","3","html-keyboard-response","469","","","","",""
"2539","perfume","bino,sungura,ndogo,katuyoan","katuyoan","n","3","html-keyboard-response","470","v","sungura","false","","4"
"4387.5","","","","","3","html-slider-response","471","","","","2",""
"1033","","","","","3","html-keyboard-response","472","","","","",""
"1877","sheet","bililhon,juuya,watu,kamantis","bililhon","f","3","html-keyboard-response","473","n","kamantis","false","","4"
"2079.399999976158","","","","","3","html-slider-response","474","","","","2",""
"1184","","","","","3","html-keyboard-response","475","","","","",""
"1174","puppet","napulo,mazishi,lamok,godoro","mazishi","v","3","html-keyboard-response","476","v","mazishi","true","","1"
"2309.600000023842","","","","","3","html-slider-response","477","","","","4",""
"1057","","","","","3","html-keyboard-response","478","","","","",""
"3693","poster","nchi,fedha,madungog,kasuko","madungog","j","3","html-keyboard-response","479","n","kasuko","false","","4"
"1795.4000000953674","","","","","3","html-slider-response","480","","","","2",""
"1119","","","","","3","html-keyboard-response","481","","","","",""
"1964","music","mraba,baiski,mageho,tumbo","baiski","v","3","html-keyboard-response","482","j","mageho","false","","4"
"2122.899999976158","","","","","3","html-slider-response","483","","","","2",""
"1216","","","","","3","html-keyboard-response","484","","","","",""
"3966","key","miaka,chombo,goma,ahos","chombo","v","3","html-keyboard-response","485","v","chombo","true","","4"
"1870.3999999761581","","","","","3","html-slider-response","486","","","","2",""
"10123","","","","","3","html-keyboard-response","487","","","","",""
"4704","sock","ndoora,mamba,kimysa,mtirka","mamba","v","3","html-keyboard-response","488","j","kimysa","false","","4"
"2023.3999999761581","","","","","3","html-slider-response","489","","","","2",""
"1112","","","","","3","html-keyboard-response","490","","","","",""
"2992","marker","mapafu,salita,maji,atay","maji","j","3","html-keyboard-response","491","j","maji","true","","4"
"1702.7000000476837","","","","","3","html-slider-response","492","","","","2",""
"1073","","","","","3","html-keyboard-response","493","","","","",""
"4549","office","hazini,leso,yatima,kuna","leso","v","3","html-keyboard-response","494","j","yatima","false","","4"
"2179.600000023842","","","","","3","html-slider-response","495","","","","2",""
"2657","","","","","3","html-keyboard-response","496","","","","",""
"3500","shoe","nyeusi,hatua,uyoga,kama","uyoga","j","3","html-keyboard-response","497","n","kama","false","","4"
"2408.7999999523163","","","","","3","html-slider-response","498","","","","2",""
"1280","","","","","3","html-keyboard-response","499","","","","",""
"6199","cop","bustani,jikoni,mechezo,bakus","mechezo","j","3","html-keyboard-response","500","v","jikoni","false","","4"
"2462.2000000476837","","","","","3","html-slider-response","501","","","","2",""
"6879","","","","","3","html-keyboard-response","502","","","","",""
"8694","bank","kudhibi,tualya,ofisi,silingan","silingan","n","3","html-keyboard-response","503","f","kudhibi","false","","4"
"9484.600000023842","","","","","3","html-slider-response","504","","","","2",""
"1435","","","","","3","html-keyboard-response","505","","","","",""
"1614","letter","kifua,filimbi,chuma,uhuru","kifua","f","3","html-keyboard-response","506","f","kifua","true","","1"
"3173.899999976158","","","","","3","html-slider-response","507","","","","4",""
"1308","","","","","3","html-keyboard-response","508","","","","",""
"1098","dog","bahari,lubi,washia,kalamu","bahari","f","3","html-keyboard-response","509","f","bahari","true","","1"
"2188.7999999523163","","","","","3","html-slider-response","510","","","","4",""
"44212","","","","","3","html-keyboard-response","511","","","","",""
"4092","shop","nopya,kerida,samaki,ndezu","samaki","j","3","html-keyboard-response","512","f","nopya","false","","4"
"3980.5999999046326","","","","","3","html-slider-response","513","","","","2",""
"1219","","","","","3","html-keyboard-response","514","","","","",""
"2705","flower","tamasha,lobo,usiku,bega","bega","n","3","html-keyboard-response","515","f","tamasha","false","","4"
"14385.899999976158","","","","","3","html-slider-response","516","","","","2",""
"1785","","","","","3","html-keyboard-response","517","","","","",""
"1919","cigar","adhabu,ndugu,kuta,mlango","adhabu","f","3","html-keyboard-response","518","f","adhabu","true","","1"
"8097.399999976158","","","","","3","html-slider-response","519","","","","4",""
"1203","","","","","3","html-keyboard-response","520","","","","",""
"6087","hammer","mekno,kitovu,layag,napakyas","napakyas","n","3","html-keyboard-response","521","v","kitovu","false","","4"
"2279.100000023842","","","","","3","html-slider-response","522","","","","2",""
"1300","","","","","3","html-keyboard-response","523","","","","",""
"3943","fork","baboy,paghago,gorisi,mgonjwa","mgonjwa","n","3","html-keyboard-response","524","j","gorisi","false","","4"
"1703.6000000238419","","","","","3","html-slider-response","525","","","","2",""
"1233","","","","","3","html-keyboard-response","526","","","","",""
"1267","sun","basi,bendi,luha,uongo","basi","f","3","html-keyboard-response","527","f","basi","true","","1"
"2284.3000000715256","","","","","3","html-slider-response","528","","","","4",""
"4000","","","","","3","html-keyboard-response","529","","","","",""
"10769","ladder","mashua,pangalan,mwanga,kamba","pangalan","v","3","html-keyboard-response","530","v","pangalan","true","","4"
"2307.4000000953674","","","","","3","html-slider-response","531","","","","2",""
"1216","","","","","3","html-keyboard-response","532","","","","",""
"1186","banana","kasamok,hagdan,kazi,twai","kazi","j","3","html-keyboard-response","533","j","kazi","true","","1"
"2169.2000000476837","","","","","3","html-slider-response","534","","","","4",""
"1103","","","","","3","html-keyboard-response","535","","","","",""
"3170","pudding","abug,mpishi,aibu,iring","aibu","j","3","html-keyboard-response","536","v","mpishi","false","","4"
"2621.600000023842","","","","","3","html-slider-response","537","","","","2",""
"1177","","","","","3","html-keyboard-response","538","","","","",""
"2540","body","nyundu,tindashan,jibini,kununa","tindashan","v","3","html-keyboard-response","539","v","tindashan","true","","4"
"2194","","","","","3","html-slider-response","540","","","","2",""
"1402","","","","","3","html-keyboard-response","541","","","","",""
"4721","bed","kalipay,haraka,starehe,mapintas","mapintas","n","3","html-keyboard-response","542","v","haraka","false","","4"
"2656.5","","","","","3","html-slider-response","543","","","","2",""
"1822","","","","","3","html-keyboard-response","544","","","","",""
"18082","tissue","lamigas,kisiwa,ugomvi,katika","ugomvi","j","3","html-keyboard-response","545","f","lamigas","false","","4"
"2473.399999976158","","","","","3","html-slider-response","546","","","","2",""
"874","","","","","3","html-keyboard-response","547","","","","",""
"2210","candle","gabi,farasi,kupanda,geza","geza","n","3","html-keyboard-response","548","f","gabi","false","","4"
"2410","","","","","3","html-slider-response","549","","","","2",""
"911","","","","","3","html-keyboard-response","550","","","","",""
"1021","tomato","chupi,mvua,chupa,takatak","mvua","v","3","html-keyboard-response","551","v","mvua","true","","1"
"2115.899999976158","","","","","3","html-slider-response","552","","","","4",""
"1693","","","","","3","html-keyboard-response","553","","","","",""
"2591","list","wingu,alizeti,kuzama,kaso","wingu","f","3","html-keyboard-response","554","j","kuzama","false","","4"
"2433","","","","","3","html-slider-response","555","","","","2",""
"1115","","","","","3","html-keyboard-response","556","","","","",""
"3762","olive","bata,siagi,welder,jiwe","jiwe","n","3","html-keyboard-response","557","v","siagi","false","","4"
"7856","","","","","3","html-slider-response","558","","","","2",""
"1029","","","","","3","html-keyboard-response","559","","","","",""
"1464","picture","kubwa,silya,chaki,asin","kubwa","f","3","html-keyboard-response","560","f","kubwa","true","","1"
"3413.9000000953674","","","","","3","html-slider-response","561","","","","4",""
"894","","","","","3","html-keyboard-response","562","","","","",""
"6756","page","wakala,ishiri,skina,wimbo","wimbo","n","4","html-keyboard-response","888","n","wimbo","true","",""
"2309.2999999523163","","","","","4","html-slider-response","889","","","","2",""
"9407","sheet","juuya,watu,kamantis,bililhon","bililhon","n","4","html-keyboard-response","890","v","watu","false","",""
"5119.5","","","","","4","html-slider-response","891","","","","2",""
"2041","ladder","mashua,pangalan,mwanga,kamba","pangalan","v","4","html-keyboard-response","892","v","pangalan","true","",""
"3557","","","","","4","html-slider-response","893","","","","2",""
"8960","door","tena,soko,nyota,surali","surali","n","4","html-keyboard-response","894","f","tena","false","",""
"2031.0999999046326","","","","","4","html-slider-response","895","","","","2",""
"2026","spider","bunyag,mkboa,atop,kamwe","kamwe","n","4","html-keyboard-response","896","n","kamwe","true","",""
"2226.399999976158","","","","","4","html-slider-response","897","","","","2",""
"3389","picture","kubwa,silya,chaki,asin","kubwa","f","4","html-keyboard-response","898","n","asin","false","",""
"3604.2000000476837","","","","","4","html-slider-response","899","","","","4",""
"1915","boat","agalon,hamsi,pombe,kitanda","agalon","f","4","html-keyboard-response","900","f","agalon","true","",""
"2033.0999999046326","","","","","4","html-slider-response","901","","","","4",""
"2991","donkey","elfu,bloke,lalake,rombus","elfu","f","4","html-keyboard-response","902","f","elfu","true","",""
"2618.7000000476837","","","","","4","html-slider-response","903","","","","4",""
"16099","book","mali,kuhesa,picha,mara","mali","f","4","html-keyboard-response","904","v","kuhesa","false","",""
"2312.7000000476837","","","","","4","html-slider-response","905","","","","2",""
"3062","cup","dagat,shimoni,matumai,jeraha","matumai","j","4","html-keyboard-response","906","v","shimoni","false","",""
"2027.2999999523163","","","","","4","html-slider-response","907","","","","2",""
"4183","sun","bendi,basi,luha,uongo","basi","v","4","html-keyboard-response","908","v","basi","true","",""
"2663.7999999523163","","","","","4","html-slider-response","909","","","","2",""
"3305","pudding","aibu,abug,mpishi,iring","aibu","f","4","html-keyboard-response","910","v","abug","false","",""
"15907.5","","","","","4","html-slider-response","911","","","","2",""
"6787","human","bado,kikapu,punguza,tinapay","tinapay","n","4","html-keyboard-response","912","n","tinapay","true","",""
"1975.2000000476837","","","","","4","html-slider-response","913","","","","2",""
"5120","squirrel","mahugaw,hofu,ukweli,kichwa","hofu","v","4","html-keyboard-response","914","f","mahugaw","false","",""
"2046.8999999761581","","","","","4","html-slider-response","915","","","","2",""
"8647","park","tambok,pwani,ihalas,bunifu","bunifu","n","4","html-keyboard-response","916","v","pwani","false","",""
"1861","","","","","4","html-slider-response","917","","","","2",""
"2248","poster","nchi,fedha,kasuko,madungog","madungog","n","4","html-keyboard-response","918","n","madungog","true","",""
"2469.2999999523163","","","","","4","html-slider-response","919","","","","2",""
"2933","wolf","kaburi,ndizi,lugha,mchuzi","lugha","j","4","html-keyboard-response","920","j","lugha","true","",""
"1994.5","","","","","4","html-slider-response","921","","","","2",""
"3540","cat","neyemba,paghukom,baki,akili","paghukom","v","4","html-keyboard-response","922","v","paghukom","true","",""
"1926.2000000476837","","","","","4","html-slider-response","923","","","","2",""
"4838","fish","bala,baho,imani,buli","buli","n","4","html-keyboard-response","924","v","baho","false","",""
"2087.2000000476837","","","","","4","html-slider-response","925","","","","2",""
"3753","tooth","kijiko,kabalaka,uadui,pahiyum","kabalaka","v","4","html-keyboard-response","926","v","kabalaka","true","",""
"19274.300000071526","","","","","4","html-slider-response","927","","","","2",""
"4803","cave","ganti,maisha,nyundo,kesho","kesho","n","4","html-keyboard-response","928","n","kesho","true","",""
"2640.6999999284744","","","","","4","html-slider-response","929","","","","2",""
"4277","lamp","daub,afya,bilaska,mbolea","afya","v","4","html-keyboard-response","930","v","afya","true","",""
"4906.299999952316","","","","","4","html-slider-response","931","","","","2",""
"2901","banana","kasamok,hagdan,kazi,twai","kazi","j","4","html-keyboard-response","932","v","hagdan","false","",""
"2253.6999999284744","","","","","4","html-slider-response","933","","","","2",""
"4209","bonfire","mwezi,goti,mfuko,kusanya","goti","v","4","html-keyboard-response","934","v","goti","true","",""
"2069.7000000476837","","","","","4","html-slider-response","935","","","","2",""
"1860","cop","bustani,jikoni,mechezo,bakus","mechezo","j","4","html-keyboard-response","936","j","mechezo","true","",""
"3418.5","","","","","4","html-slider-response","937","","","","2",""
"34989","marker","maji,mapafu,salita,atay","maji","f","4","html-keyboard-response","938","n","atay","false","",""
"1938.8999999761581","","","","","4","html-slider-response","939","","","","2",""
"7023","window","nanga,kweli,kujenga,umaga","kweli","v","4","html-keyboard-response","940","f","nanga","false","",""
"2384.899999976158","","","","","4","html-slider-response","941","","","","2",""
"4863","body","nyundu,jibini,kununa,tindashan","tindashan","n","4","html-keyboard-response","942","j","kununa","false","",""
"2777.5","","","","","4","html-slider-response","943","","","","2",""
"4573","apple","ukame,estante,edad,kisu","kisu","n","4","html-keyboard-response","944","j","edad","false","",""
"8812.600000023842","","","","","4","html-slider-response","945","","","","2",""
"4776","salmon","sensilyo,mzungu,seri,baharia","sensilyo","f","4","html-keyboard-response","946","v","mzungu","false","",""
"2824.2999999523163","","","","","4","html-slider-response","947","","","","2",""
"2922","bed","kalipay,haraka,mapintas,starehe","mapintas","j","4","html-keyboard-response","948","v","haraka","false","",""
"2043.3000000715256","","","","","4","html-slider-response","949","","","","2",""
"4308","berry","abogado,nogozi,kinywa,kofia","kofia","n","4","html-keyboard-response","950","v","nogozi","false","",""
"2194.100000023842","","","","","4","html-slider-response","951","","","","2",""
"3003","mirror","rangi,kanding,sulagma,furaha","sulagma","j","4","html-keyboard-response","952","j","sulagma","true","",""
"52256.90000009537","","","","","4","html-slider-response","953","","","","2",""
"3415","flag","ndege,mkate,kawa,trekta","trekta","n","4","html-keyboard-response","954","n","trekta","true","",""
"4177.800000071526","","","","","4","html-slider-response","955","","","","2",""
"17467","shoulder","kelele,ndaniya,mkuu,guruwe","mkuu","j","4","html-keyboard-response","956","v","ndaniya","false","",""
"2367.100000023842","","","","","4","html-slider-response","957","","","","2",""
"4726","tissue","lamigas,ugomvi,kisiwa,katika","ugomvi","v","4","html-keyboard-response","958","f","lamigas","false","",""
"5494.199999928474","","","","","4","html-slider-response","959","","","","2",""
"5973","notebook","msitu,kemia,kila,mdudu","kemia","v","4","html-keyboard-response","960","v","kemia","true","",""
"2257.1999999284744","","","","","4","html-slider-response","961","","","","2",""
"2900","snake","jansa,pagtukod,karon,mvringo","pagtukod","v","4","html-keyboard-response","962","v","pagtukod","true","",""
"2512.4000000953674","","","","","4","html-slider-response","963","","","","2",""
"1803","finger","simu,moyo,sufuria,lima","moyo","v","4","html-keyboard-response","964","v","moyo","true","",""
"1954","","","","","4","html-slider-response","965","","","","2",""
"2761","basket","kumba,kumbuka,utepe,hasira","kumba","f","4","html-keyboard-response","966","v","kumbuka","false","",""
"21049.5","","","","","4","html-slider-response","967","","","","2",""
"10423","curtain","lisud,bulwawan,mchanga,chubani","mchanga","j","4","html-keyboard-response","968","j","mchanga","true","",""
"2292.899999976158","","","","","4","html-slider-response","969","","","","2",""
"3620","perfume","bino,sungura,katuyoan,ndogo","katuyoan","j","4","html-keyboard-response","970","v","sungura","false","",""
"2081","","","","","4","html-slider-response","971","","","","2",""
"8476","key","miaka,goma,ahos,chombo","chombo","n","4","html-keyboard-response","972","n","chombo","true","",""
"2100.399999976158","","","","","4","html-slider-response","973","","","","2",""
"2873","olive","jiwe,bata,siagi,welder","jiwe","f","4","html-keyboard-response","974","f","jiwe","true","",""
"2002.8999999761581","","","","","4","html-slider-response","975","","","","2",""
"8069","rose","singizi,mwanake,paghalad,amani","paghalad","j","4","html-keyboard-response","976","j","paghalad","true","",""
"2420.7999999523163","","","","","4","html-slider-response","977","","","","2",""
"22817","bridge","sahani,daima,ngono,panya","sahani","f","4","html-keyboard-response","978","v","daima","false","",""
"6311.300000071526","","","","","4","html-slider-response","979","","","","2",""
"2752","hill","kushoto,kukimba,sweta,matumbo","matumbo","n","4","html-keyboard-response","980","n","matumbo","true","",""
"1924.8000000715256","","","","","4","html-slider-response","981","","","","2",""
"5766","letter","kifua,filimbi,chuma,uhuru","kifua","f","4","html-keyboard-response","982","v","filimbi","false","",""
"1918.7000000476837","","","","","4","html-slider-response","983","","","","2",""
"3135","sock","ndoora,kimysa,mamba,mtirka","mamba","j","4","html-keyboard-response","984","v","kimysa","false","",""
"2483.5999999046326","","","","","4","html-slider-response","985","","","","2",""
"4848","fork","baboy,paghago,mgonjwa,gorisi","mgonjwa","j","4","html-keyboard-response","986","v","paghago","false","",""
"21397.899999976158","","","","","4","html-slider-response","987","","","","2",""
"4200","box","kuacha,adui,rafiki,kitande","adui","v","4","html-keyboard-response","988","v","adui","true","",""
"2512.2999999523163","","","","","4","html-slider-response","989","","","","2",""
"4270","gift","baba,nyange,baso,pagtawag","pagtawag","n","4","html-keyboard-response","990","f","baba","false","",""
"2767","","","","","4","html-slider-response","991","","","","2",""
"3442","bucket","kiatu,baga,ijayo,init","kiatu","f","4","html-keyboard-response","992","n","init","false","",""
"2615.7000000476837","","","","","4","html-slider-response","993","","","","2",""
"9630","shop","samaki,nopya,kerida,ndezu","samaki","f","4","html-keyboard-response","994","f","samaki","true","",""
"2183.7000000476837","","","","","4","html-slider-response","995","","","","2",""
"3365","puppet","napulo,lamok,godoro,mazishi","mazishi","n","4","html-keyboard-response","996","v","lamok","false","",""
"2172.7999999523163","","","","","4","html-slider-response","997","","","","2",""
"2619","nose","gubat,kopa,kidole,sehemu","sehemu","n","4","html-keyboard-response","998","v","kopa","false","",""
"2250.899999976158","","","","","4","html-slider-response","999","","","","2",""
"2961","music","mraba,mageho,baiski,tumbo","baiski","j","4","html-keyboard-response","1000","j","baiski","true","",""
"1860.3999999761581","","","","","4","html-slider-response","1001","","","","2",""
"21825","dog","lubi,bahari,washia,kalamu","bahari","v","4","html-keyboard-response","1002","v","bahari","true","",""
"11315.200000047684","","","","","4","html-slider-response","1003","","","","2",""
"8044","eel","ishara,kunywa,msumari,kabuang","msumari","j","4","html-keyboard-response","1004","j","msumari","true","",""
"2973.899999976158","","","","","4","html-slider-response","1005","","","","2",""
"4393","number","shule,kengele,choori,mundamo","mundamo","n","4","html-keyboard-response","1006","n","mundamo","true","",""
"2346.399999976158","","","","","4","html-slider-response","1007","","","","2",""
"3935","tomato","chupi,chupa,takatak,mvua","mvua","n","4","html-keyboard-response","1008","n","mvua","true","",""
"1977","","","","","4","html-slider-response","1009","","","","2",""
"2592","coffin","barua,kioo,tubag,hulma","kioo","v","4","html-keyboard-response","1010","v","kioo","true","",""
"16289","","","","","4","html-slider-response","1011","","","","2",""
"3606","knee","duka,mvuke,kubale,bili","duka","f","4","html-keyboard-response","1012","v","mvuke","false","",""
"2083.2000000476837","","","","","4","html-slider-response","1013","","","","2",""
"13036","woman","bandari,bituin,kovuli,pagtabon","pagtabon","n","4","html-keyboard-response","1014","n","pagtabon","true","",""
"2134.399999976158","","","","","4","html-slider-response","1015","","","","2",""
"4888","stone","ulimwengu,mkasi,asili,wingi","wingi","n","4","html-keyboard-response","1016","n","wingi","true","",""
"2256.100000023842","","","","","4","html-slider-response","1017","","","","2",""
"2733","bread","dari,kaili,dizeli,bugas","dari","f","4","html-keyboard-response","1018","f","dari","true","",""
"2038.2000000476837","","","","","4","html-slider-response","1019","","","","2",""
"2942","triangle","kihozi,bentaha,kasadpan,liog","kasadpan","j","4","html-keyboard-response","1020","f","kihozi","false","",""
"2302.2000000476837","","","","","4","html-slider-response","1021","","","","2",""
"6040","scissors","tanuri,duga,mtawa,suga","tanuri","f","4","html-keyboard-response","1022","j","mtawa","false","",""
"2274.2000000476837","","","","","4","html-slider-response","1023","","","","2",""
"2923","giraffe","daraja,jumatu,hangyo,mahitabo","mahitabo","n","4","html-keyboard-response","1024","n","mahitabo","true","",""
"1942.5999999046326","","","","","4","html-slider-response","1025","","","","2",""
"3821","flower","tamasha,lobo,usiku,bega","bega","n","4","html-keyboard-response","1026","v","lobo","false","",""
"2113.1999999284744","","","","","4","html-slider-response","1027","","","","2",""
"2030","candle","geza,gabi,farasi,kupanda","geza","f","4","html-keyboard-response","1028","v","gabi","false","",""
"1671.3000000715256","","","","","4","html-slider-response","1029","","","","2",""
"2942","mother","kahawa,mbuzi,jokofu,babaye","babaye","n","4","html-keyboard-response","1030","n","babaye","true","",""
"1951.2999999523163","","","","","4","html-slider-response","1031","","","","2",""
"3623","towel","pagpalit,tembo,funzi,pito","pagpalit","f","4","html-keyboard-response","1032","j","funzi","false","",""
"2147.600000023842","","","","","4","html-slider-response","1033","","","","2",""
"33361","elephant","petye,kito,pagduol,suka","kito","v","4","html-keyboard-response","1034","v","kito","true","",""
"2172.399999976158","","","","","4","html-slider-response","1035","","","","2",""
"3270","shelf","bungtod,pamahaw,kadaot,awit","pamahaw","v","4","html-keyboard-response","1036","v","pamahaw","true","",""
"2185.7000000476837","","","","","4","html-slider-response","1037","","","","2",""
"4072","mosquito","isda,taras,martilyo,gutom","martilyo","j","4","html-keyboard-response","1038","v","taras","false","",""
"2131.4000000953674","","","","","4","html-slider-response","1039","","","","2",""
"4183","column","pundok,ufagio,dila,pala","ufagio","v","4","html-keyboard-response","1040","j","dila","false","",""
"2843.9000000953674","","","","","4","html-slider-response","1041","","","","2",""
"4178","pants","pintal,chuki,hari,haki","haki","n","4","html-keyboard-response","1042","n","haki","true","",""
"1819.2999999523163","","","","","4","html-slider-response","1043","","","","2",""
"2209","list","alizeti,kuzama,kaso,wingu","wingu","n","4","html-keyboard-response","1044","v","kuzama","false","",""
"1832.8999999761581","","","","","4","html-slider-response","1045","","","","2",""
"1817","bank","kudhibi,tualya,ofisi,silingan","silingan","n","4","html-keyboard-response","1046","n","silingan","true","",""
"1826.3999999761581","","","","","4","html-slider-response","1047","","","","2",""
"1723","clock","kartasi,abang,osha,mbwa","mbwa","n","4","html-keyboard-response","1048","v","abang","false","",""
"2000.8999999761581","","","","","4","html-slider-response","1049","","","","2",""
"2694","ceiling","kugita,kawaida,maua,rayna","maua","j","4","html-keyboard-response","1050","v","kawaida","false","",""
"2212.899999976158","","","","","4","html-slider-response","1051","","","","2",""
"2073","train","itik,dakika,sayari,mungu","sayari","j","4","html-keyboard-response","1052","j","sayari","true","",""
"1834.5","","","","","4","html-slider-response","1053","","","","2",""
"6258","magazine","gundi,mchawi,kiti,bahandi","kiti","j","4","html-keyboard-response","1054","f","gundi","false","",""
"3231.600000023842","","","","","4","html-slider-response","1055","","","","2",""
"2154","office","hazini,yatima,kuna,leso","leso","n","4","html-keyboard-response","1056","n","leso","true","",""
"1855.2000000476837","","","","","4","html-slider-response","1057","","","","2",""
"2682","wheel","punda,tawo,baadaye,bafuni","bafuni","n","4","html-keyboard-response","1058","f","punda","false","",""
"2626.7000000476837","","","","","4","html-slider-response","1059","","","","2",""
"3359","spoon","betri,nzuri,ngazi,pagsulod","pagsulod","n","4","html-keyboard-response","1060","n","pagsulod","true","",""
"2021.2000000476837","","","","","4","html-slider-response","1061","","","","2",""
"4063","hammer","mekno,kitovu,layag,napakyas","napakyas","n","4","html-keyboard-response","1062","j","layag","false","",""
"1919.7000000476837","","","","","4","html-slider-response","1063","","","","2",""
"5269","cigar","ndugu,adhabu,kuta,mlango","adhabu","v","4","html-keyboard-response","1064","j","kuta","false","",""
"2705.8000000715256","","","","","4","html-slider-response","1065","","","","2",""
"4961","shoe","nyeusi,uyoga,hatua,kama","uyoga","v","4","html-keyboard-response","1066","v","uyoga","true","",""
"2084.1999999284744","","","","","4","html-slider-response","1067","","","","2",""
"8075","list","wingu,alizeti,kuzama,kaso","wingu","f","5","html-keyboard-response","1069","f","wingu","true","",""
"2914.2999999523163","","","","","5","html-slider-response","1070","","","","2",""
"1968","number","mundamo,shule,kengele,choori","mundamo","f","5","html-keyboard-response","1071","f","mundamo","true","",""
"2278.8000000715256","","","","","5","html-slider-response","1072","","","","2",""
"4460","apple","ukame,estante,edad,kisu","kisu","n","5","html-keyboard-response","1073","n","kisu","true","",""
"1967.9000000953674","","","","","5","html-slider-response","1074","","","","2",""
"4624","knee","duka,mvuke,kubale,bili","duka","f","5","html-keyboard-response","1075","f","duka","true","",""
"2056.5","","","","","5","html-slider-response","1076","","","","2",""
"3002","tooth","kabalaka,kijiko,uadui,pahiyum","kabalaka","f","5","html-keyboard-response","1077","v","kijiko","false","",""
"1970.2000000476837","","","","","5","html-slider-response","1078","","","","2",""
"5143","berry","abogado,kofia,nogozi,kinywa","kofia","v","5","html-keyboard-response","1079","j","nogozi","false","",""
"1912.7000000476837","","","","","5","html-slider-response","1080","","","","2",""
"1715","bridge","daima,sahani,ngono,panya","sahani","v","5","html-keyboard-response","1081","v","sahani","true","",""
"1801","","","","","5","html-slider-response","1082","","","","2",""
"2938","perfume","bino,sungura,ndogo,katuyoan","katuyoan","n","5","html-keyboard-response","1083","v","sungura","false","",""
"1991.6000000238419","","","","","5","html-slider-response","1084","","","","2",""
"3117","ladder","pangalan,mashua,mwanga,kamba","pangalan","f","5","html-keyboard-response","1085","f","pangalan","true","",""
"6496.200000047684","","","","","5","html-slider-response","1086","","","","2",""
"2555","pants","pintal,chuki,hari,haki","haki","n","5","html-keyboard-response","1087","n","haki","true","",""
"2218.899999976158","","","","","5","html-slider-response","1088","","","","2",""
"3032","salmon","mzungu,seri,sensilyo,baharia","sensilyo","j","5","html-keyboard-response","1089","j","sensilyo","true","",""
"4510","","","","","5","html-slider-response","1090","","","","2",""
"3468","coffin","kioo,barua,tubag,hulma","kioo","f","5","html-keyboard-response","1091","n","hulma","false","",""
"2528.1999999284744","","","","","5","html-slider-response","1092","","","","2",""
"5230","park","tambok,bunifu,pwani,ihalas","bunifu","v","5","html-keyboard-response","1093","n","ihalas","false","",""
"30980","","","","","5","html-slider-response","1094","","","","2",""
"4720","giraffe","daraja,jumatu,hangyo,mahitabo","mahitabo","n","5","html-keyboard-response","1095","n","mahitabo","true","",""
"1830.3999999761581","","","","","5","html-slider-response","1096","","","","2",""
"3347","mirror","rangi,sulagma,kanding,furaha","sulagma","v","5","html-keyboard-response","1097","v","sulagma","true","",""
"2744.2999999523163","","","","","5","html-slider-response","1098","","","","2",""
"4992","ceiling","kugita,maua,kawaida,rayna","maua","v","5","html-keyboard-response","1099","j","kawaida","false","",""
"2380.2000000476837","","","","","5","html-slider-response","1100","","","","2",""
"4339","marker","mapafu,salita,maji,atay","maji","j","5","html-keyboard-response","1101","j","maji","true","",""
"2093.3000000715256","","","","","5","html-slider-response","1102","","","","2",""
"20595","sock","ndoora,mamba,kimysa,mtirka","mamba","v","5","html-keyboard-response","1103","j","kimysa","false","",""
"2415.3000000715256","","","","","5","html-slider-response","1104","","","","2",""
"2172","cop","bustani,jikoni,mechezo,bakus","mechezo","j","5","html-keyboard-response","1105","j","mechezo","true","",""
"2084.100000023842","","","","","5","html-slider-response","1106","","","","2",""
"13498","gift","baba,nyange,pagtawag,baso","pagtawag","j","5","html-keyboard-response","1107","j","pagtawag","true","",""
"32238","","","","","5","html-slider-response","1108","","","","2",""
"4205","notebook","msitu,kila,kemia,mdudu","kemia","j","5","html-keyboard-response","1109","j","kemia","true","",""
"2287.5","","","","","5","html-slider-response","1110","","","","2",""
"1738","bank","kudhibi,silingan,tualya,ofisi","silingan","v","5","html-keyboard-response","1111","v","silingan","true","",""
"2451.5","","","","","5","html-slider-response","1112","","","","2",""
"8063","letter","filimbi,chuma,kifua,uhuru","kifua","j","5","html-keyboard-response","1113","v","chuma","false","",""
"2803.5","","","","","5","html-slider-response","1114","","","","2",""
"20096","candle","gabi,farasi,geza,kupanda","geza","j","5","html-keyboard-response","1115","f","gabi","false","",""
"2250.5","","","","","5","html-slider-response","1116","","","","2",""
"1688","bread","kaili,dizeli,dari,bugas","dari","j","5","html-keyboard-response","1117","j","dari","true","",""
"2069.100000023842","","","","","5","html-slider-response","1118","","","","2",""
"2478","snake","jansa,karon,pagtukod,mvringo","pagtukod","j","5","html-keyboard-response","1119","j","pagtukod","true","",""
"3044.600000023842","","","","","5","html-slider-response","1120","","","","2",""
"5234","rose","singizi,mwanake,paghalad,amani","paghalad","j","5","html-keyboard-response","1121","f","singizi","false","",""
"2515.2000000476837","","","","","5","html-slider-response","1122","","","","2",""
"23405","hill","matumbo,kushoto,kukimba,sweta","matumbo","f","5","html-keyboard-response","1123","f","matumbo","true","",""
"4059.899999976158","","","","","5","html-slider-response","1124","","","","2",""
"5971","train","sayari,itik,dakika,mungu","sayari","f","5","html-keyboard-response","1125","j","dakika","false","",""
"28893.200000047684","","","","","5","html-slider-response","1126","","","","2",""
"3664","shop","samaki,nopya,kerida,ndezu","samaki","f","5","html-keyboard-response","1127","v","nopya","false","",""
"2549.8000000715256","","","","","5","html-slider-response","1128","","","","2",""
"6430","nose","sehemu,gubat,kopa,kidole","sehemu","f","5","html-keyboard-response","1129","n","kidole","false","",""
"22545.5","","","","","5","html-slider-response","1130","","","","2",""
"2579","boat","hamsi,agalon,pombe,kitanda","agalon","v","5","html-keyboard-response","1131","v","agalon","true","",""
"65574.79999995232","","","","","5","html-slider-response","1132","","","","2",""
"4265","body","nyundu,tindashan,jibini,kununa","tindashan","v","5","html-keyboard-response","1133","v","tindashan","true","",""
"2297.9000000953674","","","","","5","html-slider-response","1134","","","","2",""
"3298","bed","kalipay,haraka,mapintas,starehe","mapintas","j","5","html-keyboard-response","1135","j","mapintas","true","",""
"2321.399999976158","","","","","5","html-slider-response","1136","","","","2",""
"3739","squirrel","mahugaw,hofu,ukweli,kichwa","hofu","v","5","html-keyboard-response","1137","f","mahugaw","false","",""
"1896.7999999523163","","","","","5","html-slider-response","1138","","","","2",""
"3169","window","nanga,kujenga,kweli,umaga","kweli","j","5","html-keyboard-response","1139","j","kweli","true","",""
"2182.7999999523163","","","","","5","html-slider-response","1140","","","","2",""
"2510","bonfire","mwezi,goti,mfuko,kusanya","goti","v","5","html-keyboard-response","1141","v","goti","true","",""
"2020.7000000476837","","","","","5","html-slider-response","1142","","","","2",""
"3333","fish","buli,bala,baho,imani","buli","f","5","html-keyboard-response","1143","n","imani","false","",""
"2024","","","","","5","html-slider-response","1144","","","","2",""
"3854","cat","neyemba,baki,akili,paghukom","paghukom","n","5","html-keyboard-response","1145","j","akili","false","",""
"106278","","","","","5","html-slider-response","1146","","","","2",""
"2292","spider","bunyag,kamwe,mkboa,atop","kamwe","v","5","html-keyboard-response","1147","v","kamwe","true","",""
"3849.899999976158","","","","","5","html-slider-response","1148","","","","2",""
"4425","eel","ishara,msumari,kunywa,kabuang","msumari","v","5","html-keyboard-response","1149","v","msumari","true","",""
"2579.399999976158","","","","","5","html-slider-response","1150","","","","2",""
"7073","woman","bandari,bituin,pagtabon,kovuli","pagtabon","j","5","html-keyboard-response","1151","f","bandari","false","",""
"1982","","","","","5","html-slider-response","1152","","","","2",""
"3239","magazine","gundi,kiti,mchawi,bahandi","kiti","v","5","html-keyboard-response","1153","j","mchawi","false","",""
"3049.2999999523163","","","","","5","html-slider-response","1154","","","","2",""
"2448","pudding","abug,mpishi,iring,aibu","aibu","n","5","html-keyboard-response","1155","f","abug","false","",""
"2207.5","","","","","5","html-slider-response","1156","","","","2",""
"4784","lamp","daub,bilaska,afya,mbolea","afya","j","5","html-keyboard-response","1157","j","afya","true","",""
"2229.399999976158","","","","","5","html-slider-response","1158","","","","2",""
"4230","cave","ganti,kesho,maisha,nyundo","kesho","v","5","html-keyboard-response","1159","v","kesho","true","",""
"2251.5","","","","","5","html-slider-response","1160","","","","2",""
"4434","shoulder","kelele,ndaniya,guruwe,mkuu","mkuu","n","5","html-keyboard-response","1161","f","kelele","false","",""
"3048","","","","","5","html-slider-response","1162","","","","2",""
"2685","stone","ulimwengu,wingi,mkasi,asili","wingi","v","5","html-keyboard-response","1163","v","wingi","true","",""
"50103.5","","","","","5","html-slider-response","1164","","","","2",""
"3602","column","pundok,dila,ufagio,pala","ufagio","j","5","html-keyboard-response","1165","f","pundok","false","",""
"2472","","","","","5","html-slider-response","1166","","","","2",""
"3420","page","wakala,wimbo,ishiri,skina","wimbo","v","5","html-keyboard-response","1167","v","wimbo","true","",""
"2149.899999976158","","","","","5","html-slider-response","1168","","","","2",""
"3182","shoe","nyeusi,hatua,kama,uyoga","uyoga","n","5","html-keyboard-response","1169","j","kama","false","",""
"2109.100000023842","","","","","5","html-slider-response","1170","","","","2",""
"3997","clock","kartasi,abang,mbwa,osha","mbwa","j","5","html-keyboard-response","1171","v","abang","false","",""
"1906.5999999046326","","","","","5","html-slider-response","1172","","","","2",""
"2771","towel","pagpalit,tembo,funzi,pito","pagpalit","f","5","html-keyboard-response","1173","v","tembo","false","",""
"4770","","","","","5","html-slider-response","1174","","","","2",""
"2264","tomato","chupi,chupa,mvua,takatak","mvua","j","5","html-keyboard-response","1175","j","mvua","true","",""
"2108.2999999523163","","","","","5","html-slider-response","1176","","","","2",""
"5057","bucket","kiatu,baga,ijayo,init","kiatu","f","5","html-keyboard-response","1177","n","init","false","",""
"2009.9000000953674","","","","","5","html-slider-response","1178","","","","2",""
"1522","finger","simu,sufuria,moyo,lima","moyo","j","5","html-keyboard-response","1179","j","moyo","true","",""
"2322.9000000953674","","","","","5","html-slider-response","1180","","","","2",""
"1664","mother","kahawa,mbuzi,jokofu,babaye","babaye","n","5","html-keyboard-response","1181","n","babaye","true","",""
"1984.7999999523163","","","","","5","html-slider-response","1182","","","","2",""
"2170","human","bado,kikapu,tinapay,punguza","tinapay","j","5","html-keyboard-response","1183","j","tinapay","true","",""
"1947.7999999523163","","","","","5","html-slider-response","1184","","","","2",""
"4657","sun","bendi,luha,uongo,basi","basi","n","5","html-keyboard-response","1185","v","luha","false","",""
"2771.8000000715256","","","","","5","html-slider-response","1186","","","","2",""
"5727","fork","mgonjwa,baboy,paghago,gorisi","mgonjwa","f","5","html-keyboard-response","1187","v","baboy","false","",""
"2211.5","","","","","5","html-slider-response","1188","","","","2",""
"2459","donkey","bloke,lalake,rombus,elfu","elfu","n","5","html-keyboard-response","1189","n","elfu","true","",""
"1938.2999999523163","","","","","5","html-slider-response","1190","","","","2",""
"2167","wolf","lugha,kaburi,ndizi,mchuzi","lugha","f","5","html-keyboard-response","1191","f","lugha","true","",""
"2013.5","","","","","5","html-slider-response","1192","","","","2",""
"5320","cigar","ndugu,kuta,mlango,adhabu","adhabu","n","5","html-keyboard-response","1193","v","kuta","false","",""
"1770","","","","","5","html-slider-response","1194","","","","2",""
"2365","olive","bata,jiwe,siagi,welder","jiwe","v","5","html-keyboard-response","1195","v","jiwe","true","",""
"1929.7000000476837","","","","","5","html-slider-response","1196","","","","2",""
"2326","key","miaka,goma,ahos,chombo","chombo","n","5","html-keyboard-response","1197","n","chombo","true","",""
"1903.7000000476837","","","","","5","html-slider-response","1198","","","","2",""
"2863","door","surali,tena,soko,nyota","surali","f","5","html-keyboard-response","1199","v","tena","false","",""
"2167.100000023842","","","","","5","html-slider-response","1200","","","","2",""
"2487","wheel","punda,bafuni,tawo,baadaye","bafuni","v","5","html-keyboard-response","1201","v","bafuni","true","",""
"2965.5999999046326","","","","","5","html-slider-response","1202","","","","2",""
"8902","basket","kumbuka,utepe,kumba,hasira","kumba","j","5","html-keyboard-response","1203","n","hasira","false","",""
"2074","","","","","5","html-slider-response","1204","","","","2",""
"3964","elephant","petye,pagduol,kito,suka","kito","j","5","html-keyboard-response","1205","v","pagduol","false","",""
"3353.7000000476837","","","","","5","html-slider-response","1206","","","","2",""
"1422","office","hazini,yatima,kuna,leso","leso","n","5","html-keyboard-response","1207","n","leso","true","",""
"1678.0999999046326","","","","","5","html-slider-response","1208","","","","2",""
"3674","music","baiski,mraba,mageho,tumbo","baiski","f","5","html-keyboard-response","1209","f","baiski","true","",""
"2608.2000000476837","","","","","5","html-slider-response","1210","","","","2",""
"4330","tissue","lamigas,kisiwa,katika,ugomvi","ugomvi","n","5","html-keyboard-response","1211","f","lamigas","false","",""
"4326.600000023842","","","","","5","html-slider-response","1212","","","","2",""
"3190","curtain","lisud,mchanga,bulwawan,chubani","mchanga","v","5","html-keyboard-response","1213","v","mchanga","true","",""
"1877.6000000238419","","","","","5","html-slider-response","1214","","","","2",""
"2202","flag","ndege,trekta,mkate,kawa","trekta","v","5","html-keyboard-response","1215","f","ndege","false","",""
"3390","","","","","5","html-slider-response","1216","","","","2",""
"16910","dog","lubi,washia,bahari,kalamu","bahari","j","5","html-keyboard-response","1217","v","washia","false","",""
"3225.899999976158","","","","","5","html-slider-response","1218","","","","2",""
"12103","cup","dagat,matumai,shimoni,jeraha","matumai","v","5","html-keyboard-response","1219","f","dagat","false","",""
"2181.600000023842","","","","","5","html-slider-response","1220","","","","2",""
"5999","sheet","juuya,watu,bililhon,kamantis","bililhon","j","5","html-keyboard-response","1221","n","kamantis","false","",""
"2158.899999976158","","","","","5","html-slider-response","1222","","","","2",""
"6420","spoon","betri,nzuri,pagsulod,ngazi","pagsulod","j","5","html-keyboard-response","1223","j","pagsulod","true","",""
"2080.899999976158","","","","","5","html-slider-response","1224","","","","2",""
"2805","flower","bega,tamasha,lobo,usiku","bega","f","5","html-keyboard-response","1225","v","tamasha","false","",""
"2133.1999999284744","","","","","5","html-slider-response","1226","","","","2",""
"11507","picture","kubwa,silya,chaki,asin","kubwa","f","5","html-keyboard-response","1227","v","silya","false","",""
"2259.3000000715256","","","","","5","html-slider-response","1228","","","","2",""
"2610","puppet","napulo,mazishi,lamok,godoro","mazishi","v","5","html-keyboard-response","1229","j","lamok","false","",""
"2240.6999999284744","","","","","5","html-slider-response","1230","","","","2",""
"8352","banana","kasamok,kazi,hagdan,twai","kazi","v","5","html-keyboard-response","1231","j","hagdan","false","",""
"1929.8000000715256","","","","","5","html-slider-response","1232","","","","2",""
"2646","book","kuhesa,picha,mara,mali","mali","n","5","html-keyboard-response","1233","f","kuhesa","false","",""
"2004.1999999284744","","","","","5","html-slider-response","1234","","","","2",""
"2541","triangle","kihozi,kasadpan,bentaha,liog","kasadpan","v","5","html-keyboard-response","1235","v","kasadpan","true","",""
"2037.8999999761581","","","","","5","html-slider-response","1236","","","","2",""
"1812","poster","nchi,fedha,kasuko,madungog","madungog","n","5","html-keyboard-response","1237","v","fedha","false","",""
"2008","","","","","5","html-slider-response","1238","","","","2",""
"2813","box","kuacha,adui,rafiki,kitande","adui","v","5","html-keyboard-response","1239","v","adui","true","",""
"2088.5","","","","","5","html-slider-response","1240","","","","2",""
"3575","mosquito","isda,taras,martilyo,gutom","martilyo","j","5","html-keyboard-response","1241","j","martilyo","true","",""
"1880.5999999046326","","","","","5","html-slider-response","1242","","","","2",""
"13976","shelf","pamahaw,bungtod,kadaot,awit","pamahaw","f","5","html-keyboard-response","1243","f","pamahaw","true","",""
"3418.5","","","","","5","html-slider-response","1244","","","","2",""
"2639","scissors","duga,tanuri,mtawa,suga","tanuri","v","5","html-keyboard-response","1245","v","tanuri","true","",""
"4723.299999952316","","","","","5","html-slider-response","1246","","","","2",""
"1576","hammer","mekno,kitovu,layag,napakyas","napakyas","n","5","html-keyboard-response","1247","n","napakyas","true","",""
"12615.200000047684","","","","","5","html-slider-response","1248","","","","2",""
