"rt","en_word","options","swa_word","correct_answer","phase","trial_type","trial_index","input_answer","input_word","accuracy","certainty","amt_choices"
"4194","bonfire","mwezi,goti,mfuko,kusanya","goti","v","2","html-keyboard-response","106","j","mfuko","false","",""
"2304.2000000011176","","","","","2","html-slider-response","107","","","","2",""
"3455","flower","tamasha,lobo,usiku,bega","bega","n","2","html-keyboard-response","108","n","bega","true","",""
"3404.199999999255","","","","","2","html-slider-response","109","","","","3",""
"4465","column","pundok,dila,ufagio,pala","ufagio","j","2","html-keyboard-response","110","j","ufagio","true","",""
"3096.0999999996275","","","","","2","html-slider-response","111","","","","4",""
"4537","music","mraba,mageho,tumbo,baiski","baiski","n","2","html-keyboard-response","112","f","mraba","false","",""
"2690.9000000003725","","","","","2","html-slider-response","113","","","","1",""
"2576","spider","kamwe,bunyag,mkboa,atop","kamwe","f","2","html-keyboard-response","114","f","kamwe","true","",""
"1690.800000000745","","","","","2","html-slider-response","115","","","","5",""
"5663","fork","baboy,mgonjwa,paghago,gorisi","mgonjwa","v","2","html-keyboard-response","116","v","mgonjwa","true","",""
"2686.2999999988824","","","","","2","html-slider-response","117","","","","5",""
"2872","mosquito","isda,taras,martilyo,gutom","martilyo","j","2","html-keyboard-response","118","j","martilyo","true","",""
"1449.699999999255","","","","","2","html-slider-response","119","","","","5",""
"6797","banana","kasamok,kazi,hagdan,twai","kazi","v","2","html-keyboard-response","120","v","kazi","true","",""
"2041.5999999996275","","","","","2","html-slider-response","121","","","","4",""
"4083","cup","dagat,shimoni,jeraha,matumai","matumai","n","2","html-keyboard-response","122","f","dagat","false","",""
"1472.9000000003725","","","","","2","html-slider-response","123","","","","1",""
"5170","shop","nopya,kerida,samaki,ndezu","samaki","j","2","html-keyboard-response","124","j","samaki","true","",""
"1313","","","","","2","html-slider-response","125","","","","1",""
"2783","elephant","petye,kito,pagduol,suka","kito","v","2","html-keyboard-response","126","v","kito","true","",""
"1393.800000000745","","","","","2","html-slider-response","127","","","","4",""
"3409","bucket","baga,kiatu,ijayo,init","kiatu","v","2","html-keyboard-response","128","v","kiatu","true","",""
"2268.4000000003725","","","","","2","html-slider-response","129","","","","2",""
"2643","book","kuhesa,picha,mara,mali","mali","n","2","html-keyboard-response","130","n","mali","true","",""
"1740.5999999996275","","","","","2","html-slider-response","131","","","","2",""
"3370","mirror","sulagma,rangi,kanding,furaha","sulagma","f","2","html-keyboard-response","132","n","furaha","false","",""
"1498.699999999255","","","","","2","html-slider-response","133","","","","2",""
"2963","office","hazini,yatima,leso,kuna","leso","j","2","html-keyboard-response","134","j","leso","true","",""
"4459.799999998882","","","","","2","html-slider-response","135","","","","3",""
"4468","body","nyundu,tindashan,jibini,kununa","tindashan","v","2","html-keyboard-response","136","v","tindashan","true","",""
"1597.4000000003725","","","","","2","html-slider-response","137","","","","5",""
"3855","perfume","bino,katuyoan,sungura,ndogo","katuyoan","v","2","html-keyboard-response","138","j","sungura","false","",""
"1889.800000000745","","","","","2","html-slider-response","139","","","","2",""
"6030","olive","jiwe,bata,siagi,welder","jiwe","f","2","html-keyboard-response","140","f","jiwe","true","",""
"1186","","","","","2","html-slider-response","141","","","","1",""
"3252","magazine","gundi,kiti,mchawi,bahandi","kiti","v","2","html-keyboard-response","142","j","mchawi","false","",""
"1874.5","","","","","2","html-slider-response","143","","","","4",""
"3616","bread","kaili,dizeli,bugas,dari","dari","n","2","html-keyboard-response","144","n","dari","true","",""
"1577.5","","","","","2","html-slider-response","145","","","","4",""
"2757","cave","ganti,kesho,maisha,nyundo","kesho","v","2","html-keyboard-response","146","v","kesho","true","",""
"1483.8999999985099","","","","","2","html-slider-response","147","","","","5",""
"4422","ladder","pangalan,mashua,mwanga,kamba","pangalan","f","2","html-keyboard-response","148","n","kamba","false","",""
"1804.199999999255","","","","","2","html-slider-response","149","","","","2",""
"4078","human","tinapay,bado,kikapu,punguza","tinapay","f","2","html-keyboard-response","150","f","tinapay","true","",""
"1967.5","","","","","2","html-slider-response","151","","","","4",""
"18834","clock","kartasi,abang,osha,mbwa","mbwa","n","2","html-keyboard-response","152","j","osha","false","",""
"3218.60000000149","","","","","2","html-slider-response","153","","","","2",""
"3448","shelf","bungtod,kadaot,awit,pamahaw","pamahaw","n","2","html-keyboard-response","154","j","awit","false","",""
"1825.9000000003725","","","","","2","html-slider-response","155","","","","2",""
"3348","salmon","sensilyo,mzungu,seri,baharia","sensilyo","f","2","html-keyboard-response","156","j","seri","false","",""
"2875.89999999851","","","","","2","html-slider-response","157","","","","1",""
"2467","coffin","kioo,barua,tubag,hulma","kioo","f","2","html-keyboard-response","158","f","kioo","true","",""
"1808.9000000003725","","","","","2","html-slider-response","159","","","","4",""
"3878","notebook","msitu,kila,kemia,mdudu","kemia","j","2","html-keyboard-response","160","f","msitu","false","",""
"2144.9000000003725","","","","","2","html-slider-response","161","","","","4",""
"5078","shoulder","mkuu,kelele,ndaniya,guruwe","mkuu","f","2","html-keyboard-response","162","v","kelele","false","",""
"1823.699999999255","","","","","2","html-slider-response","163","","","","1",""
"3502","park","bunifu,tambok,pwani,ihalas","bunifu","f","2","html-keyboard-response","164","j","pwani","false","",""
"1736","","","","","2","html-slider-response","165","","","","4",""
"3495","number","mundamo,shule,kengele,choori","mundamo","f","2","html-keyboard-response","166","v","shule","false","",""
"2136.5","","","","","2","html-slider-response","167","","","","2",""
"2545","apple","ukame,kisu,estante,edad","kisu","v","2","html-keyboard-response","168","v","kisu","true","",""
"1928","","","","","2","html-slider-response","169","","","","4",""
"4475","letter","filimbi,chuma,kifua,uhuru","kifua","j","2","html-keyboard-response","170","j","kifua","true","",""
"1649.0999999996275","","","","","2","html-slider-response","171","","","","2",""
"2760","eel","msumari,ishara,kunywa,kabuang","msumari","f","2","html-keyboard-response","172","f","msumari","true","",""
"2140.0999999996275","","","","","2","html-slider-response","173","","","","5",""
"3683","cop","bustani,mechezo,jikoni,bakus","mechezo","v","2","html-keyboard-response","174","v","mechezo","true","",""
"1945.7999999988824","","","","","2","html-slider-response","175","","","","5",""
"5456","wolf","kaburi,ndizi,lugha,mchuzi","lugha","j","2","html-keyboard-response","176","v","ndizi","false","",""
"1428.5","","","","","2","html-slider-response","177","","","","2",""
"3866","squirrel","mahugaw,ukweli,kichwa,hofu","hofu","n","2","html-keyboard-response","178","n","hofu","true","",""
"1252.0999999996275","","","","","2","html-slider-response","179","","","","1",""
"4130","nose","gubat,kopa,kidole,sehemu","sehemu","n","2","html-keyboard-response","180","v","kopa","false","",""
"1581.5999999996275","","","","","2","html-slider-response","181","","","","1",""
"4216","sock","ndoora,kimysa,mamba,mtirka","mamba","j","2","html-keyboard-response","182","f","ndoora","false","",""
"2085.10000000149","","","","","2","html-slider-response","183","","","","2",""
"5421","bank","kudhibi,tualya,ofisi,silingan","silingan","n","2","html-keyboard-response","184","n","silingan","true","",""
"2038.199999999255","","","","","2","html-slider-response","185","","","","2",""
"2383","donkey","elfu,bloke,lalake,rombus","elfu","f","2","html-keyboard-response","186","f","elfu","true","",""
"2005.7000000011176","","","","","2","html-slider-response","187","","","","4",""
"4266","poster","madungog,nchi,fedha,kasuko","madungog","f","2","html-keyboard-response","188","v","nchi","false","",""
"1331.5","","","","","2","html-slider-response","189","","","","2",""
"3806","puppet","napulo,mazishi,lamok,godoro","mazishi","v","2","html-keyboard-response","190","v","mazishi","true","",""
"1416.0999999996275","","","","","2","html-slider-response","191","","","","2",""
"4158","hill","kushoto,matumbo,kukimba,sweta","matumbo","v","2","html-keyboard-response","192","n","sweta","false","",""
"1749.0999999996275","","","","","2","html-slider-response","193","","","","2",""
"2585","tooth","kijiko,uadui,kabalaka,pahiyum","kabalaka","j","2","html-keyboard-response","194","f","kijiko","false","",""
"1368.6000000014901","","","","","2","html-slider-response","195","","","","1",""
"2835","woman","pagtabon,bandari,bituin,kovuli","pagtabon","f","2","html-keyboard-response","196","f","pagtabon","true","",""
"3289.39999999851","","","","","2","html-slider-response","197","","","","3",""
"5152","wheel","punda,tawo,bafuni,baadaye","bafuni","j","2","html-keyboard-response","198","v","tawo","false","",""
"1823.199999999255","","","","","2","html-slider-response","199","","","","1",""
"4215","mother","kahawa,babaye,mbuzi,jokofu","babaye","v","2","html-keyboard-response","200","j","mbuzi","false","",""
"2016","","","","","2","html-slider-response","201","","","","1",""
"2937","bed","kalipay,mapintas,haraka,starehe","mapintas","v","2","html-keyboard-response","202","f","kalipay","false","",""
"5158.4000000003725","","","","","2","html-slider-response","203","","","","3",""
"11275","key","miaka,goma,chombo,ahos","chombo","j","2","html-keyboard-response","204","v","goma","false","",""
"1708.5","","","","","2","html-slider-response","205","","","","2",""
"5817","page","wimbo,wakala,ishiri,skina","wimbo","f","2","html-keyboard-response","206","n","skina","false","",""
"1806.9000000003725","","","","","2","html-slider-response","207","","","","1",""
"4064","pants","pintal,chuki,haki,hari","haki","j","2","html-keyboard-response","208","j","haki","true","",""
"1839.199999999255","","","","","2","html-slider-response","209","","","","4",""
"3566","sun","bendi,basi,luha,uongo","basi","v","2","html-keyboard-response","210","v","basi","true","",""
"1646.0999999996275","","","","","2","html-slider-response","211","","","","4",""
"3896","finger","simu,moyo,sufuria,lima","moyo","v","2","html-keyboard-response","212","f","simu","false","",""
"1845.4000000003725","","","","","2","html-slider-response","213","","","","2",""
"3465","shoe","uyoga,nyeusi,hatua,kama","uyoga","f","2","html-keyboard-response","214","v","nyeusi","false","",""
"1695.2999999988824","","","","","2","html-slider-response","215","","","","1",""
"4291","giraffe","daraja,jumatu,mahitabo,hangyo","mahitabo","j","2","html-keyboard-response","216","j","mahitabo","true","",""
"2159.2999999988824","","","","","2","html-slider-response","217","","","","2",""
"3054","dog","lubi,washia,bahari,kalamu","bahari","j","2","html-keyboard-response","218","j","bahari","true","",""
"1544.4000000003725","","","","","2","html-slider-response","219","","","","2",""
"2899","box","adui,kuacha,rafiki,kitande","adui","f","2","html-keyboard-response","220","j","rafiki","false","",""
"1947.9000000003725","","","","","2","html-slider-response","221","","","","2",""
"4042","scissors","duga,tanuri,mtawa,suga","tanuri","v","2","html-keyboard-response","222","n","suga","false","",""
"1643.4000000003725","","","","","2","html-slider-response","223","","","","2",""
"3179","cat","neyemba,paghukom,baki,akili","paghukom","v","2","html-keyboard-response","224","n","akili","false","",""
"1452.0999999996275","","","","","2","html-slider-response","225","","","","2",""
"4101","basket","kumba,kumbuka,utepe,hasira","kumba","f","2","html-keyboard-response","226","v","kumbuka","false","",""
"2018.699999999255","","","","","2","html-slider-response","227","","","","1",""
"4473","snake","jansa,karon,pagtukod,mvringo","pagtukod","j","2","html-keyboard-response","228","v","karon","false","",""
"1343.800000000745","","","","","2","html-slider-response","229","","","","2",""
"3766","gift","baba,nyange,pagtawag,baso","pagtawag","j","2","html-keyboard-response","230","v","nyange","false","",""
"1721.6000000014901","","","","","2","html-slider-response","231","","","","2",""
"4465","train","itik,dakika,sayari,mungu","sayari","j","2","html-keyboard-response","232","v","dakika","false","",""
"3231.7999999988824","","","","","2","html-slider-response","233","","","","3",""
"3309","pudding","abug,mpishi,aibu,iring","aibu","j","2","html-keyboard-response","234","v","mpishi","false","",""
"1682.5","","","","","2","html-slider-response","235","","","","2",""
"4779","tomato","chupi,chupa,mvua,takatak","mvua","j","2","html-keyboard-response","236","v","chupa","false","",""
"1617.4000000003725","","","","","2","html-slider-response","237","","","","1",""
"4409","stone","ulimwengu,mkasi,wingi,asili","wingi","j","2","html-keyboard-response","238","j","wingi","true","",""
"1207.699999999255","","","","","2","html-slider-response","239","","","","2",""
"5439","hammer","mekno,kitovu,napakyas,layag","napakyas","j","2","html-keyboard-response","240","n","layag","false","",""
"1307.2000000011176","","","","","2","html-slider-response","241","","","","2",""
"4619","knee","mvuke,kubale,bili,duka","duka","n","2","html-keyboard-response","242","n","duka","true","",""
"1466.300000000745","","","","","2","html-slider-response","243","","","","2",""
"4383","ceiling","kugita,maua,kawaida,rayna","maua","v","2","html-keyboard-response","244","j","kawaida","false","",""
"2075.2000000011176","","","","","2","html-slider-response","245","","","","2",""
"16499","spoon","betri,pagsulod,nzuri,ngazi","pagsulod","v","2","html-keyboard-response","246","j","nzuri","false","",""
"2344.800000000745","","","","","2","html-slider-response","247","","","","1",""
"29628","marker","mapafu,maji,salita,atay","maji","v","2","html-keyboard-response","248","f","mapafu","false","",""
"1877","","","","","2","html-slider-response","249","","","","2",""
"2942","candle","gabi,farasi,kupanda,geza","geza","n","2","html-keyboard-response","250","f","gabi","false","",""
"1497.199999999255","","","","","2","html-slider-response","251","","","","4",""
"3681","tissue","lamigas,kisiwa,katika,ugomvi","ugomvi","n","2","html-keyboard-response","252","j","katika","false","",""
"1205.7000000011176","","","","","2","html-slider-response","253","","","","2",""
"3512","bridge","sahani,daima,ngono,panya","sahani","f","2","html-keyboard-response","254","j","ngono","false","",""
"1287.0999999996275","","","","","2","html-slider-response","255","","","","2",""
"3865","berry","kofia,abogado,nogozi,kinywa","kofia","f","2","html-keyboard-response","256","n","kinywa","false","",""
"1078.4000000003725","","","","","2","html-slider-response","257","","","","2",""
"3548","triangle","kihozi,bentaha,kasadpan,liog","kasadpan","j","2","html-keyboard-response","258","n","liog","false","",""
"1854","","","","","2","html-slider-response","259","","","","1",""
"2257","door","tena,soko,surali,nyota","surali","j","2","html-keyboard-response","260","v","soko","false","",""
"1414.0999999996275","","","","","2","html-slider-response","261","","","","2",""
"1913","fish","bala,buli,baho,imani","buli","v","2","html-keyboard-response","262","f","bala","false","",""
"1658.0999999996275","","","","","2","html-slider-response","263","","","","2",""
"2736","curtain","lisud,mchanga,bulwawan,chubani","mchanga","v","2","html-keyboard-response","264","v","mchanga","true","",""
"1271.6000000014901","","","","","2","html-slider-response","265","","","","2",""
"4243","flag","ndege,mkate,trekta,kawa","trekta","j","2","html-keyboard-response","266","n","kawa","false","",""
"1583.9000000003725","","","","","2","html-slider-response","267","","","","2",""
"3177","boat","hamsi,pombe,kitanda,agalon","agalon","n","2","html-keyboard-response","268","v","pombe","false","",""
"1193.0999999996275","","","","","2","html-slider-response","269","","","","2",""
"2218","rose","singizi,paghalad,mwanake,amani","paghalad","v","2","html-keyboard-response","270","f","singizi","false","",""
"1983.199999999255","","","","","2","html-slider-response","271","","","","2",""
"3438","lamp","daub,bilaska,afya,mbolea","afya","j","2","html-keyboard-response","272","f","daub","false","",""
"2532.5","","","","","2","html-slider-response","273","","","","4",""
"4726","cigar","ndugu,kuta,mlango,adhabu","adhabu","n","2","html-keyboard-response","274","n","adhabu","true","",""
"1377.800000000745","","","","","2","html-slider-response","275","","","","1",""
"3275","list","alizeti,kuzama,wingu,kaso","wingu","j","2","html-keyboard-response","276","n","kaso","false","",""
"1205.800000000745","","","","","2","html-slider-response","277","","","","2",""
"2682","sheet","juuya,bililhon,watu,kamantis","bililhon","v","2","html-keyboard-response","278","j","watu","false","",""
"1720.4000000003725","","","","","2","html-slider-response","279","","","","2",""
"3246","picture","kubwa,silya,chaki,asin","kubwa","f","2","html-keyboard-response","280","n","asin","false","",""
"1125","","","","","2","html-slider-response","281","","","","2",""
"4196","towel","tembo,funzi,pagpalit,pito","pagpalit","j","2","html-keyboard-response","282","f","tembo","false","",""
"1406","","","","","2","html-slider-response","283","","","","1",""
"6256","window","nanga,kujenga,kweli,umaga","kweli","j","2","html-keyboard-response","284","j","kweli","true","",""
"2271.5999999996275","","","","","2","html-slider-response","285","","","","1",""
"3811","box","kuacha,rafiki,adui,kitande","adui","j","3","html-keyboard-response","293","f","kuacha","false","","4"
"2180.0999999996275","","","","","3","html-slider-response","294","","","","1",""
"1734","","","","","3","html-keyboard-response","295","","","","",""
"4200","pants","pintal,haki,chuki,hari","haki","v","3","html-keyboard-response","296","v","haki","true","","4"
"2090","","","","","3","html-slider-response","297","","","","4",""
"1040","","","","","3","html-keyboard-response","298","","","","",""
"2468","cup","matumai,dagat,shimoni,jeraha","matumai","f","3","html-keyboard-response","299","v","dagat","false","","4"
"1818.5","","","","","3","html-slider-response","300","","","","2",""
"896","","","","","3","html-keyboard-response","301","","","","",""
"3319","triangle","kihozi,bentaha,liog,kasadpan","kasadpan","n","3","html-keyboard-response","302","j","liog","false","","4"
"2060.10000000149","","","","","3","html-slider-response","303","","","","1",""
"1113","","","","","3","html-keyboard-response","304","","","","",""
"3679","curtain","mchanga,lisud,bulwawan,chubani","mchanga","f","3","html-keyboard-response","305","v","lisud","false","","4"
"1848.300000000745","","","","","3","html-slider-response","306","","","","1",""
"1115","","","","","3","html-keyboard-response","307","","","","",""
"3375","clock","kartasi,abang,mbwa,osha","mbwa","j","3","html-keyboard-response","308","j","mbwa","true","","4"
"1411","","","","","3","html-slider-response","309","","","","1",""
"1088","","","","","3","html-keyboard-response","310","","","","",""
"3723","mirror","rangi,kanding,furaha,sulagma","sulagma","n","3","html-keyboard-response","311","f","rangi","false","","4"
"1385.5","","","","","3","html-slider-response","312","","","","1",""
"777","","","","","3","html-keyboard-response","313","","","","",""
"1195","coffin","barua,kioo,tubag,hulma","kioo","v","3","html-keyboard-response","314","v","kioo","true","","1"
"2511.4000000003725","","","","","3","html-slider-response","315","","","","5",""
"755","","","","","3","html-keyboard-response","316","","","","",""
"4051","magazine","gundi,mchawi,bahandi,kiti","kiti","n","3","html-keyboard-response","317","v","mchawi","false","","4"
"1878.5999999996275","","","","","3","html-slider-response","318","","","","4",""
"776","","","","","3","html-keyboard-response","319","","","","",""
"1460","column","ufagio,pundok,dila,pala","ufagio","f","3","html-keyboard-response","320","f","ufagio","true","","1"
"2598.5","","","","","3","html-slider-response","321","","","","5",""
"982","","","","","3","html-keyboard-response","322","","","","",""
"6127","number","shule,kengele,choori,mundamo","mundamo","n","3","html-keyboard-response","323","j","choori","false","","4"
"1492.5","","","","","3","html-slider-response","324","","","","2",""
"768","","","","","3","html-keyboard-response","325","","","","",""
"3556","rose","singizi,mwanake,amani,paghalad","paghalad","n","3","html-keyboard-response","326","f","singizi","false","","4"
"1514","","","","","3","html-slider-response","327","","","","1",""
"876","","","","","3","html-keyboard-response","328","","","","",""
"3351","eel","ishara,kunywa,msumari,kabuang","msumari","j","3","html-keyboard-response","329","j","msumari","true","","4"
"1711.4000000003725","","","","","3","html-slider-response","330","","","","5",""
"830","","","","","3","html-keyboard-response","331","","","","",""
"2183","gift","baba,nyange,pagtawag,baso","pagtawag","j","3","html-keyboard-response","332","v","nyange","false","","4"
"1969.4000000003725","","","","","3","html-slider-response","333","","","","2",""
"877","","","","","3","html-keyboard-response","334","","","","",""
"1543","apple","ukame,estante,edad,kisu","kisu","n","3","html-keyboard-response","335","n","kisu","true","","1"
"1471.7000000011176","","","","","3","html-slider-response","336","","","","5",""
"258","","","","","3","html-keyboard-response","337","","","","",""
"1451","wheel","punda,bafuni,tawo,baadaye","bafuni","v","3","html-keyboard-response","338","v","bafuni","true","","1"
"2258.7000000011176","","","","","3","html-slider-response","339","","","","5",""
"601","","","","","3","html-keyboard-response","340","","","","",""
"3084","knee","mvuke,kubale,duka,bili","duka","j","3","html-keyboard-response","341","v","kubale","false","","4"
"2559","","","","","3","html-slider-response","342","","","","2",""
"715","","","","","3","html-keyboard-response","343","","","","",""
"1722","basket","kumbuka,utepe,hasira,kumba","kumba","n","3","html-keyboard-response","344","n","kumba","true","","1"
"2759.7000000011176","","","","","3","html-slider-response","345","","","","5",""
"547","","","","","3","html-keyboard-response","346","","","","",""
"6440","park","tambok,pwani,ihalas,bunifu","bunifu","n","3","html-keyboard-response","347","n","bunifu","true","","4"
"2424.199999999255","","","","","3","html-slider-response","348","","","","3",""
"694","","","","","3","html-keyboard-response","349","","","","",""
"3828","finger","simu,moyo,sufuria,lima","moyo","v","3","html-keyboard-response","350","j","sufuria","false","","4"
"1421.699999999255","","","","","3","html-slider-response","351","","","","2",""
"809","","","","","3","html-keyboard-response","352","","","","",""
"3910","boat","hamsi,agalon,pombe,kitanda","agalon","v","3","html-keyboard-response","353","f","hamsi","false","","4"
"1644.4000000003725","","","","","3","html-slider-response","354","","","","1",""
"778","","","","","3","html-keyboard-response","355","","","","",""
"3760","hill","kushoto,matumbo,kukimba,sweta","matumbo","v","3","html-keyboard-response","356","n","sweta","false","","4"
"1956.4000000003725","","","","","3","html-slider-response","357","","","","2",""
"810","","","","","3","html-keyboard-response","358","","","","",""
"4583","train","itik,sayari,dakika,mungu","sayari","v","3","html-keyboard-response","359","j","dakika","false","","4"
"1637.4000000003725","","","","","3","html-slider-response","360","","","","1",""
"829","","","","","3","html-keyboard-response","361","","","","",""
"3980","wolf","kaburi,ndizi,mchuzi,lugha","lugha","n","3","html-keyboard-response","362","f","kaburi","false","","4"
"3207.5","","","","","3","html-slider-response","363","","","","1",""
"4205","","","","","3","html-keyboard-response","364","","","","",""
"3933","snake","jansa,karon,pagtukod,mvringo","pagtukod","j","3","html-keyboard-response","365","v","karon","false","","4"
"2289.39999999851","","","","","3","html-slider-response","366","","","","2",""
"616","","","","","3","html-keyboard-response","367","","","","",""
"2196","tooth","kabalaka,kijiko,uadui,pahiyum","kabalaka","f","3","html-keyboard-response","368","v","kijiko","false","","4"
"1771.2000000011176","","","","","3","html-slider-response","369","","","","1",""
"475","","","","","3","html-keyboard-response","370","","","","",""
"2447","notebook","kemia,msitu,kila,mdudu","kemia","f","3","html-keyboard-response","371","j","kila","false","","4"
"1953.1000000014901","","","","","3","html-slider-response","372","","","","2",""
"836","","","","","3","html-keyboard-response","373","","","","",""
"2267","flag","ndege,trekta,mkate,kawa","trekta","v","3","html-keyboard-response","374","v","trekta","true","","4"
"1750.5999999996275","","","","","3","html-slider-response","375","","","","2",""
"25676","","","","","3","html-keyboard-response","376","","","","",""
"1842","squirrel","hofu,mahugaw,ukweli,kichwa","hofu","f","3","html-keyboard-response","377","f","hofu","true","","4"
"1755.5","","","","","3","html-slider-response","378","","","","2",""
"727","","","","","3","html-keyboard-response","379","","","","",""
"2124","door","tena,soko,surali,nyota","surali","j","3","html-keyboard-response","380","v","soko","false","","4"
"1588","","","","","3","html-slider-response","381","","","","2",""
"738","","","","","3","html-keyboard-response","382","","","","",""
"1820","salmon","mzungu,seri,baharia,sensilyo","sensilyo","n","3","html-keyboard-response","383","v","seri","false","","4"
"2403.60000000149","","","","","3","html-slider-response","384","","","","1",""
"746","","","","","3","html-keyboard-response","385","","","","",""
"4684","shoulder","mkuu,kelele,ndaniya,guruwe","mkuu","f","3","html-keyboard-response","386","n","guruwe","false","","4"
"1577.5","","","","","3","html-slider-response","387","","","","2",""
"489","","","","","3","html-keyboard-response","388","","","","",""
"2579","lamp","daub,bilaska,mbolea,afya","afya","n","3","html-keyboard-response","389","f","daub","false","","4"
"1354.5","","","","","3","html-slider-response","390","","","","1",""
"511","","","","","3","html-keyboard-response","391","","","","",""
"1743","shelf","bungtod,kadaot,pamahaw,awit","pamahaw","j","3","html-keyboard-response","392","j","pamahaw","true","","1"
"1358.300000000745","","","","","3","html-slider-response","393","","","","5",""
"317","","","","","3","html-keyboard-response","394","","","","",""
"3135","human","bado,kikapu,tinapay,punguza","tinapay","j","3","html-keyboard-response","395","j","tinapay","true","","4"
"1606.7000000011176","","","","","3","html-slider-response","396","","","","5",""
"648","","","","","3","html-keyboard-response","397","","","","",""
"2579","towel","tembo,funzi,pagpalit,pito","pagpalit","j","3","html-keyboard-response","398","v","funzi","false","","4"
"1284.7999999988824","","","","","3","html-slider-response","399","","","","2",""
"522","","","","","3","html-keyboard-response","400","","","","",""
"5379","cat","neyemba,paghukom,baki,akili","paghukom","v","3","html-keyboard-response","401","n","akili","false","","4"
"1849.0999999996275","","","","","3","html-slider-response","402","","","","2",""
"800","","","","","3","html-keyboard-response","403","","","","",""
"7176","spider","bunyag,mkboa,kamwe,atop","kamwe","j","3","html-keyboard-response","404","j","kamwe","true","","4"
"2472.300000000745","","","","","3","html-slider-response","405","","","","4",""
"702","","","","","3","html-keyboard-response","406","","","","",""
"6567","window","nanga,kujenga,kweli,umaga","kweli","j","3","html-keyboard-response","407","f","nanga","false","","4"
"2460.5999999996275","","","","","3","html-slider-response","408","","","","2",""
"1186","","","","","3","html-keyboard-response","409","","","","",""
"1574","woman","bandari,bituin,pagtabon,kovuli","pagtabon","j","3","html-keyboard-response","410","j","pagtabon","true","","1"
"1678.9000000003725","","","","","3","html-slider-response","411","","","","5",""
"960","","","","","3","html-keyboard-response","412","","","","",""
"10727","giraffe","daraja,mahitabo,jumatu,hangyo","mahitabo","v","3","html-keyboard-response","413","v","mahitabo","true","","4"
"3397.699999999255","","","","","3","html-slider-response","414","","","","2",""
"721","","","","","3","html-keyboard-response","415","","","","",""
"3431","elephant","petye,pagduol,kito,suka","kito","j","3","html-keyboard-response","416","j","kito","true","","4"
"1300.9000000003725","","","","","3","html-slider-response","417","","","","4",""
"1601","","","","","3","html-keyboard-response","418","","","","",""
"2547","cave","kesho,ganti,maisha,nyundo","kesho","f","3","html-keyboard-response","419","f","kesho","true","","4"
"1528.4000000003725","","","","","3","html-slider-response","420","","","","5",""
"803","","","","","3","html-keyboard-response","421","","","","",""
"2504","bread","kaili,dizeli,dari,bugas","dari","j","3","html-keyboard-response","422","j","dari","true","","4"
"1535.2999999988824","","","","","3","html-slider-response","423","","","","5",""
"938","","","","","3","html-keyboard-response","424","","","","",""
"4824","stone","ulimwengu,mkasi,wingi,asili","wingi","j","3","html-keyboard-response","425","f","ulimwengu","false","","4"
"1635.4000000003725","","","","","3","html-slider-response","426","","","","4",""
"955","","","","","3","html-keyboard-response","427","","","","",""
"5650","donkey","bloke,elfu,lalake,rombus","elfu","v","3","html-keyboard-response","428","v","elfu","true","","4"
"1345.300000000745","","","","","3","html-slider-response","429","","","","2",""
"529","","","","","3","html-keyboard-response","430","","","","",""
"4153","bridge","daima,ngono,sahani,panya","sahani","j","3","html-keyboard-response","431","n","panya","false","","4"
"1601.2000000011176","","","","","3","html-slider-response","432","","","","2",""
"571","","","","","3","html-keyboard-response","433","","","","",""
"1979","bonfire","mwezi,mfuko,kusanya,goti","goti","n","3","html-keyboard-response","434","v","mfuko","false","","4"
"1597.5","","","","","3","html-slider-response","435","","","","2",""
"589","","","","","3","html-keyboard-response","436","","","","",""
"5423","book","kuhesa,mali,picha,mara","mali","v","3","html-keyboard-response","437","f","kuhesa","false","","4"
"2209.2999999988824","","","","","3","html-slider-response","438","","","","2",""
"512","","","","","3","html-keyboard-response","439","","","","",""
"3904","fish","bala,baho,buli,imani","buli","j","3","html-keyboard-response","440","f","bala","false","","4"
"1724.0999999996275","","","","","3","html-slider-response","441","","","","2",""
"506","","","","","3","html-keyboard-response","442","","","","",""
"2391","spoon","betri,pagsulod,nzuri,ngazi","pagsulod","v","3","html-keyboard-response","443","v","pagsulod","true","","4"
"1486.800000000745","","","","","3","html-slider-response","444","","","","2",""
"583","","","","","3","html-keyboard-response","445","","","","",""
"4860","scissors","tanuri,duga,mtawa,suga","tanuri","f","3","html-keyboard-response","446","v","duga","false","","4"
"1597.5999999996275","","","","","3","html-slider-response","447","","","","2",""
"717","","","","","3","html-keyboard-response","448","","","","",""
"18790","page","wakala,ishiri,skina,wimbo","wimbo","n","3","html-keyboard-response","449","n","wimbo","true","","4"
"2024.7999999988824","","","","","3","html-slider-response","450","","","","1",""
"599","","","","","3","html-keyboard-response","451","","","","",""
"1355","nose","gubat,sehemu,kopa,kidole","sehemu","v","3","html-keyboard-response","452","v","sehemu","true","","1"
"1613.5","","","","","3","html-slider-response","453","","","","5",""
"697","","","","","3","html-keyboard-response","454","","","","",""
"3176","ceiling","maua,kugita,kawaida,rayna","maua","f","3","html-keyboard-response","455","j","kawaida","false","","4"
"2371.10000000149","","","","","3","html-slider-response","456","","","","2",""
"744","","","","","3","html-keyboard-response","457","","","","",""
"2896","bucket","baga,ijayo,kiatu,init","kiatu","j","3","html-keyboard-response","458","f","baga","false","","4"
"1830.5999999996275","","","","","3","html-slider-response","459","","","","2",""
"707","","","","","3","html-keyboard-response","460","","","","",""
"1136","berry","kofia,abogado,nogozi,kinywa","kofia","f","3","html-keyboard-response","461","f","kofia","true","","1"
"2381.2000000011176","","","","","3","html-slider-response","462","","","","5",""
"258","","","","","3","html-keyboard-response","463","","","","",""
"928","mother","kahawa,babaye,mbuzi,jokofu","babaye","v","3","html-keyboard-response","464","v","babaye","true","","1"
"1941.5","","","","","3","html-slider-response","465","","","","5",""
"281","","","","","3","html-keyboard-response","466","","","","",""
"2799","mosquito","isda,martilyo,taras,gutom","martilyo","v","3","html-keyboard-response","467","v","martilyo","true","","4"
"1394.199999999255","","","","","3","html-slider-response","468","","","","4",""
"553","","","","","3","html-keyboard-response","469","","","","",""
"3499","perfume","bino,sungura,katuyoan,ndogo","katuyoan","j","3","html-keyboard-response","470","n","ndogo","false","","4"
"2704.9000000003725","","","","","3","html-slider-response","471","","","","2",""
"668","","","","","3","html-keyboard-response","472","","","","",""
"1779","sheet","juuya,watu,bililhon,kamantis","bililhon","j","3","html-keyboard-response","473","v","watu","false","","4"
"1518.7000000011176","","","","","3","html-slider-response","474","","","","2",""
"715","","","","","3","html-keyboard-response","475","","","","",""
"1020","puppet","mazishi,napulo,lamok,godoro","mazishi","f","3","html-keyboard-response","476","f","mazishi","true","","1"
"2381.5","","","","","3","html-slider-response","477","","","","5",""
"241","","","","","3","html-keyboard-response","478","","","","",""
"10727","poster","madungog,nchi,fedha,kasuko","madungog","f","3","html-keyboard-response","479","n","kasuko","false","","4"
"2670.0999999996275","","","","","3","html-slider-response","480","","","","1",""
"860","","","","","3","html-keyboard-response","481","","","","",""
"2044","music","mraba,mageho,baiski,tumbo","baiski","j","3","html-keyboard-response","482","v","mageho","false","","4"
"2023.300000000745","","","","","3","html-slider-response","483","","","","2",""
"698","","","","","3","html-keyboard-response","484","","","","",""
"2812","key","chombo,miaka,goma,ahos","chombo","f","3","html-keyboard-response","485","n","ahos","false","","4"
"2009.3999999985099","","","","","3","html-slider-response","486","","","","1",""
"693","","","","","3","html-keyboard-response","487","","","","",""
"3570","sock","mamba,ndoora,kimysa,mtirka","mamba","f","3","html-keyboard-response","488","f","mamba","true","","4"
"1715.7999999988824","","","","","3","html-slider-response","489","","","","2",""
"766","","","","","3","html-keyboard-response","490","","","","",""
"3288","marker","mapafu,salita,atay,maji","maji","n","3","html-keyboard-response","491","n","maji","true","","4"
"1954.5","","","","","3","html-slider-response","492","","","","1",""
"636","","","","","3","html-keyboard-response","493","","","","",""
"3735","office","hazini,yatima,leso,kuna","leso","j","3","html-keyboard-response","494","j","leso","true","","4"
"1517.4000000003725","","","","","3","html-slider-response","495","","","","2",""
"593","","","","","3","html-keyboard-response","496","","","","",""
"2431","shoe","nyeusi,hatua,uyoga,kama","uyoga","j","3","html-keyboard-response","497","v","hatua","false","","4"
"1170.4000000003725","","","","","3","html-slider-response","498","","","","2",""
"508","","","","","3","html-keyboard-response","499","","","","",""
"2607","cop","bustani,jikoni,bakus,mechezo","mechezo","n","3","html-keyboard-response","500","n","mechezo","true","","4"
"2221.5999999996275","","","","","3","html-slider-response","501","","","","5",""
"529","","","","","3","html-keyboard-response","502","","","","",""
"4672","bank","kudhibi,tualya,silingan,ofisi","silingan","j","3","html-keyboard-response","503","j","silingan","true","","4"
"1575.5","","","","","3","html-slider-response","504","","","","2",""
"870","","","","","3","html-keyboard-response","505","","","","",""
"1336","letter","filimbi,chuma,kifua,uhuru","kifua","j","3","html-keyboard-response","506","j","kifua","true","","1"
"2020.199999999255","","","","","3","html-slider-response","507","","","","5",""
"825","","","","","3","html-keyboard-response","508","","","","",""
"1211","dog","lubi,washia,bahari,kalamu","bahari","j","3","html-keyboard-response","509","j","bahari","true","","1"
"2420.199999999255","","","","","3","html-slider-response","510","","","","5",""
"622","","","","","3","html-keyboard-response","511","","","","",""
"1955","shop","nopya,samaki,kerida,ndezu","samaki","v","3","html-keyboard-response","512","v","samaki","true","","4"
"2305.699999999255","","","","","3","html-slider-response","513","","","","2",""
"642","","","","","3","html-keyboard-response","514","","","","",""
"2339","flower","tamasha,bega,lobo,usiku","bega","v","3","html-keyboard-response","515","v","bega","true","","4"
"1704","","","","","3","html-slider-response","516","","","","2",""
"687","","","","","3","html-keyboard-response","517","","","","",""
"1684","cigar","ndugu,kuta,mlango,adhabu","adhabu","n","3","html-keyboard-response","518","n","adhabu","true","","1"
"1592.5999999996275","","","","","3","html-slider-response","519","","","","5",""
"838","","","","","3","html-keyboard-response","520","","","","",""
"3879","hammer","mekno,kitovu,layag,napakyas","napakyas","n","3","html-keyboard-response","521","v","kitovu","false","","4"
"1227.2999999988824","","","","","3","html-slider-response","522","","","","2",""
"491","","","","","3","html-keyboard-response","523","","","","",""
"3711","fork","baboy,mgonjwa,paghago,gorisi","mgonjwa","v","3","html-keyboard-response","524","v","mgonjwa","true","","4"
"2693","","","","","3","html-slider-response","525","","","","2",""
"624","","","","","3","html-keyboard-response","526","","","","",""
"1283","sun","bendi,luha,basi,uongo","basi","j","3","html-keyboard-response","527","j","basi","true","","1"
"1452.199999999255","","","","","3","html-slider-response","528","","","","5",""
"515","","","","","3","html-keyboard-response","529","","","","",""
"5175","ladder","pangalan,mashua,mwanga,kamba","pangalan","f","3","html-keyboard-response","530","v","mashua","false","","4"
"1759.4000000003725","","","","","3","html-slider-response","531","","","","2",""
"598","","","","","3","html-keyboard-response","532","","","","",""
"939","banana","kasamok,kazi,hagdan,twai","kazi","v","3","html-keyboard-response","533","v","kazi","true","","1"
"1716.0999999996275","","","","","3","html-slider-response","534","","","","5",""
"406","","","","","3","html-keyboard-response","535","","","","",""
"5280","pudding","abug,aibu,mpishi,iring","aibu","v","3","html-keyboard-response","536","n","iring","false","","4"
"1532.5","","","","","3","html-slider-response","537","","","","4",""
"563","","","","","3","html-keyboard-response","538","","","","",""
"4419","body","nyundu,jibini,tindashan,kununa","tindashan","j","3","html-keyboard-response","539","j","tindashan","true","","4"
"1459.9000000003725","","","","","3","html-slider-response","540","","","","5",""
"279","","","","","3","html-keyboard-response","541","","","","",""
"3116","bed","kalipay,haraka,starehe,mapintas","mapintas","n","3","html-keyboard-response","542","n","mapintas","true","","4"
"2219.9000000003725","","","","","3","html-slider-response","543","","","","2",""
"602","","","","","3","html-keyboard-response","544","","","","",""
"2035","tissue","lamigas,kisiwa,katika,ugomvi","ugomvi","n","3","html-keyboard-response","545","f","lamigas","false","","4"
"1207.7000000011176","","","","","3","html-slider-response","546","","","","2",""
"455","","","","","3","html-keyboard-response","547","","","","",""
"1655","candle","gabi,farasi,geza,kupanda","geza","j","3","html-keyboard-response","548","f","gabi","false","","4"
"1367.699999999255","","","","","3","html-slider-response","549","","","","2",""
"503","","","","","3","html-keyboard-response","550","","","","",""
"1255","tomato","mvua,chupi,chupa,takatak","mvua","f","3","html-keyboard-response","551","f","mvua","true","","1"
"1481.4000000003725","","","","","3","html-slider-response","552","","","","5",""
"292","","","","","3","html-keyboard-response","553","","","","",""
"1892","list","alizeti,wingu,kuzama,kaso","wingu","v","3","html-keyboard-response","554","v","wingu","true","","4"
"1752.300000000745","","","","","3","html-slider-response","555","","","","2",""
"575","","","","","3","html-keyboard-response","556","","","","",""
"3384","olive","bata,jiwe,siagi,welder","jiwe","v","3","html-keyboard-response","557","v","jiwe","true","","4"
"2345.300000000745","","","","","3","html-slider-response","558","","","","1",""
"643","","","","","3","html-keyboard-response","559","","","","",""
"967","picture","silya,kubwa,chaki,asin","kubwa","v","3","html-keyboard-response","560","v","kubwa","true","","1"
"1511.2999999988824","","","","","3","html-slider-response","561","","","","5",""
"403","","","","","3","html-keyboard-response","562","","","","",""
"3572","page","wakala,ishiri,skina,wimbo","wimbo","n","4","html-keyboard-response","888","n","wimbo","true","",""
"2865.599999997765","","","","","4","html-slider-response","889","","","","1",""
"2736","sheet","juuya,bililhon,watu,kamantis","bililhon","v","4","html-keyboard-response","890","j","watu","false","",""
"2120.39999999851","","","","","4","html-slider-response","891","","","","1",""
"7490","ladder","mashua,mwanga,pangalan,kamba","pangalan","j","4","html-keyboard-response","892","f","mashua","false","",""
"1487","","","","","4","html-slider-response","893","","","","2",""
"3023","door","tena,soko,nyota,surali","surali","n","4","html-keyboard-response","894","j","nyota","false","",""
"2590.800000000745","","","","","4","html-slider-response","895","","","","3",""
"2643","spider","bunyag,mkboa,kamwe,atop","kamwe","j","4","html-keyboard-response","896","j","kamwe","true","",""
"1729.1000000014901","","","","","4","html-slider-response","897","","","","5",""
"3790","picture","silya,chaki,kubwa,asin","kubwa","j","4","html-keyboard-response","898","j","kubwa","true","",""
"1209.3999999985099","","","","","4","html-slider-response","899","","","","2",""
"3265","boat","hamsi,agalon,pombe,kitanda","agalon","v","4","html-keyboard-response","900","j","pombe","false","",""
"2629.199999999255","","","","","4","html-slider-response","901","","","","2",""
"2582","donkey","bloke,lalake,elfu,rombus","elfu","j","4","html-keyboard-response","902","j","elfu","true","",""
"1368.800000000745","","","","","4","html-slider-response","903","","","","5",""
"5700","book","kuhesa,mali,picha,mara","mali","v","4","html-keyboard-response","904","f","kuhesa","false","",""
"2065.199999999255","","","","","4","html-slider-response","905","","","","2",""
"4798","cup","dagat,matumai,shimoni,jeraha","matumai","v","4","html-keyboard-response","906","v","matumai","true","",""
"1518.199999999255","","","","","4","html-slider-response","907","","","","2",""
"3451","sun","bendi,basi,luha,uongo","basi","v","4","html-keyboard-response","908","v","basi","true","",""
"1580.2000000029802","","","","","4","html-slider-response","909","","","","2",""
"7017","pudding","abug,aibu,mpishi,iring","aibu","v","4","html-keyboard-response","910","j","mpishi","false","",""
"1438.2999999970198","","","","","4","html-slider-response","911","","","","2",""
"2332","human","bado,tinapay,kikapu,punguza","tinapay","v","4","html-keyboard-response","912","v","tinapay","true","",""
"1525.300000000745","","","","","4","html-slider-response","913","","","","5",""
"4633","squirrel","mahugaw,ukweli,hofu,kichwa","hofu","j","4","html-keyboard-response","914","j","hofu","true","",""
"1627.300000000745","","","","","4","html-slider-response","915","","","","4",""
"4434","park","tambok,bunifu,pwani,ihalas","bunifu","v","4","html-keyboard-response","916","j","pwani","false","",""
"1448.7000000029802","","","","","4","html-slider-response","917","","","","2",""
"4332","poster","madungog,nchi,fedha,kasuko","madungog","f","4","html-keyboard-response","918","v","nchi","false","",""
"2010.5","","","","","4","html-slider-response","919","","","","2",""
"7021","wolf","kaburi,ndizi,lugha,mchuzi","lugha","j","4","html-keyboard-response","920","n","mchuzi","false","",""
"1544.300000000745","","","","","4","html-slider-response","921","","","","2",""
"5213","cat","neyemba,baki,paghukom,akili","paghukom","j","4","html-keyboard-response","922","v","baki","false","",""
"1576.1000000014901","","","","","4","html-slider-response","923","","","","2",""
"4778","fish","bala,baho,imani,buli","buli","n","4","html-keyboard-response","924","f","bala","false","",""
"1751.1000000014901","","","","","4","html-slider-response","925","","","","2",""
"2688","tooth","kijiko,uadui,pahiyum,kabalaka","kabalaka","n","4","html-keyboard-response","926","n","kabalaka","true","",""
"1841.7000000029802","","","","","4","html-slider-response","927","","","","1",""
"1885","cave","kesho,ganti,maisha,nyundo","kesho","f","4","html-keyboard-response","928","f","kesho","true","",""
"1460.5999999977648","","","","","4","html-slider-response","929","","","","5",""
"1989","lamp","daub,bilaska,afya,mbolea","afya","j","4","html-keyboard-response","930","f","daub","false","",""
"2080.7000000029802","","","","","4","html-slider-response","931","","","","4",""
"4922","banana","kasamok,hagdan,kazi,twai","kazi","j","4","html-keyboard-response","932","j","kazi","true","",""
"1390.2000000029802","","","","","4","html-slider-response","933","","","","4",""
"4984","bonfire","mwezi,mfuko,goti,kusanya","goti","j","4","html-keyboard-response","934","v","mfuko","false","",""
"2155.900000002235","","","","","4","html-slider-response","935","","","","2",""
"1738","cop","bustani,mechezo,jikoni,bakus","mechezo","v","4","html-keyboard-response","936","v","mechezo","true","",""
"1621.5","","","","","4","html-slider-response","937","","","","5",""
"4208","marker","mapafu,maji,salita,atay","maji","v","4","html-keyboard-response","938","j","salita","false","",""
"1234.800000000745","","","","","4","html-slider-response","939","","","","2",""
"2648","window","kweli,nanga,kujenga,umaga","kweli","f","4","html-keyboard-response","940","v","nanga","false","",""
"1020.1999999992549","","","","","4","html-slider-response","941","","","","2",""
"1874","body","nyundu,tindashan,jibini,kununa","tindashan","v","4","html-keyboard-response","942","v","tindashan","true","",""
"2265.39999999851","","","","","4","html-slider-response","943","","","","4",""
"3477","apple","ukame,kisu,estante,edad","kisu","v","4","html-keyboard-response","944","v","kisu","true","",""
"1197.1000000014901","","","","","4","html-slider-response","945","","","","2",""
"3845","salmon","mzungu,seri,sensilyo,baharia","sensilyo","j","4","html-keyboard-response","946","j","sensilyo","true","",""
"1439.699999999255","","","","","4","html-slider-response","947","","","","2",""
"3442","bed","mapintas,kalipay,haraka,starehe","mapintas","f","4","html-keyboard-response","948","f","mapintas","true","",""
"1516.199999999255","","","","","4","html-slider-response","949","","","","2",""
"2695","berry","abogado,kofia,nogozi,kinywa","kofia","v","4","html-keyboard-response","950","j","nogozi","false","",""
"1382.8999999985099","","","","","4","html-slider-response","951","","","","2",""
"4771","mirror","rangi,sulagma,kanding,furaha","sulagma","v","4","html-keyboard-response","952","f","rangi","false","",""
"1081.7000000029802","","","","","4","html-slider-response","953","","","","2",""
"2745","flag","ndege,mkate,trekta,kawa","trekta","j","4","html-keyboard-response","954","j","trekta","true","",""
"2021.5999999977648","","","","","4","html-slider-response","955","","","","2",""
"3420","shoulder","kelele,mkuu,ndaniya,guruwe","mkuu","v","4","html-keyboard-response","956","v","mkuu","true","",""
"1907.5","","","","","4","html-slider-response","957","","","","2",""
"2868","tissue","ugomvi,lamigas,kisiwa,katika","ugomvi","f","4","html-keyboard-response","958","v","lamigas","false","",""
"1416.3999999985099","","","","","4","html-slider-response","959","","","","2",""
"4251","notebook","msitu,kila,kemia,mdudu","kemia","j","4","html-keyboard-response","960","f","msitu","false","",""
"1701.9000000022352","","","","","4","html-slider-response","961","","","","4",""
"3658","snake","pagtukod,jansa,karon,mvringo","pagtukod","f","4","html-keyboard-response","962","v","jansa","false","",""
"1679.800000000745","","","","","4","html-slider-response","963","","","","2",""
"1714","finger","moyo,simu,sufuria,lima","moyo","f","4","html-keyboard-response","964","f","moyo","true","",""
"1080.6000000014901","","","","","4","html-slider-response","965","","","","1",""
"3757","basket","kumbuka,utepe,hasira,kumba","kumba","n","4","html-keyboard-response","966","j","hasira","false","",""
"1398.300000000745","","","","","4","html-slider-response","967","","","","2",""
"2008","curtain","lisud,bulwawan,mchanga,chubani","mchanga","j","4","html-keyboard-response","968","v","bulwawan","false","",""
"2138.5","","","","","4","html-slider-response","969","","","","2",""
"1564","perfume","bino,sungura,katuyoan,ndogo","katuyoan","j","4","html-keyboard-response","970","f","bino","false","",""
"1473.699999999255","","","","","4","html-slider-response","971","","","","2",""
"4892","key","miaka,chombo,goma,ahos","chombo","v","4","html-keyboard-response","972","n","ahos","false","",""
"1553.9000000022352","","","","","4","html-slider-response","973","","","","2",""
"4956","olive","bata,siagi,welder,jiwe","jiwe","n","4","html-keyboard-response","974","f","bata","false","",""
"1142.3999999985099","","","","","4","html-slider-response","975","","","","2",""
"4052","rose","singizi,mwanake,amani,paghalad","paghalad","n","4","html-keyboard-response","976","n","paghalad","true","",""
"1368.199999999255","","","","","4","html-slider-response","977","","","","2",""
"4741","bridge","sahani,daima,ngono,panya","sahani","f","4","html-keyboard-response","978","f","sahani","true","",""
"1873.300000000745","","","","","4","html-slider-response","979","","","","2",""
"3082","hill","matumbo,kushoto,kukimba,sweta","matumbo","f","4","html-keyboard-response","980","f","matumbo","true","",""
"1385.300000000745","","","","","4","html-slider-response","981","","","","2",""
"10590","letter","filimbi,chuma,kifua,uhuru","kifua","j","4","html-keyboard-response","982","j","kifua","true","",""
"2228.300000000745","","","","","4","html-slider-response","983","","","","2",""
"1990","sock","mamba,ndoora,kimysa,mtirka","mamba","f","4","html-keyboard-response","984","f","mamba","true","",""
"2203.699999999255","","","","","4","html-slider-response","985","","","","2",""
"2775","fork","mgonjwa,baboy,paghago,gorisi","mgonjwa","f","4","html-keyboard-response","986","f","mgonjwa","true","",""
"1525.300000000745","","","","","4","html-slider-response","987","","","","5",""
"2141","box","kuacha,adui,rafiki,kitande","adui","v","4","html-keyboard-response","988","v","adui","true","",""
"1794.2000000029802","","","","","4","html-slider-response","989","","","","2",""
"2535","gift","baba,pagtawag,nyange,baso","pagtawag","v","4","html-keyboard-response","990","f","baba","false","",""
"1721.9000000022352","","","","","4","html-slider-response","991","","","","2",""
"2006","bucket","baga,ijayo,init,kiatu","kiatu","n","4","html-keyboard-response","992","j","init","false","",""
"1240.199999999255","","","","","4","html-slider-response","993","","","","2",""
"5298","shop","nopya,kerida,samaki,ndezu","samaki","j","4","html-keyboard-response","994","v","kerida","false","",""
"2085.60000000149","","","","","4","html-slider-response","995","","","","2",""
"3069","puppet","napulo,lamok,mazishi,godoro","mazishi","j","4","html-keyboard-response","996","j","mazishi","true","",""
"2163.400000002235","","","","","4","html-slider-response","997","","","","4",""
"2135","nose","sehemu,gubat,kopa,kidole","sehemu","f","4","html-keyboard-response","998","v","gubat","false","",""
"1411.6000000014901","","","","","4","html-slider-response","999","","","","2",""
"3818","music","mraba,mageho,baiski,tumbo","baiski","j","4","html-keyboard-response","1000","v","mageho","false","",""
"1218.699999999255","","","","","4","html-slider-response","1001","","","","2",""
"2160","dog","lubi,washia,kalamu,bahari","bahari","n","4","html-keyboard-response","1002","f","lubi","false","",""
"2232.7999999970198","","","","","4","html-slider-response","1003","","","","2",""
"3769","eel","ishara,kunywa,msumari,kabuang","msumari","j","4","html-keyboard-response","1004","j","msumari","true","",""
"2878.39999999851","","","","","4","html-slider-response","1005","","","","4",""
"5219","number","mundamo,shule,kengele,choori","mundamo","f","4","html-keyboard-response","1006","n","choori","false","",""
"1289.199999999255","","","","","4","html-slider-response","1007","","","","2",""
"2673","tomato","chupi,chupa,takatak,mvua","mvua","n","4","html-keyboard-response","1008","f","chupi","false","",""
"1593.7000000029802","","","","","4","html-slider-response","1009","","","","2",""
"3731","coffin","kioo,barua,tubag,hulma","kioo","f","4","html-keyboard-response","1010","f","kioo","true","",""
"3688.900000002235","","","","","4","html-slider-response","1011","","","","3",""
"2165","knee","duka,mvuke,kubale,bili","duka","f","4","html-keyboard-response","1012","v","mvuke","false","",""
"1159.800000000745","","","","","4","html-slider-response","1013","","","","2",""
"2519","woman","bandari,pagtabon,bituin,kovuli","pagtabon","v","4","html-keyboard-response","1014","v","pagtabon","true","",""
"2104.099999997765","","","","","4","html-slider-response","1015","","","","2",""
"2085","stone","wingi,ulimwengu,mkasi,asili","wingi","f","4","html-keyboard-response","1016","f","wingi","true","",""
"2218.5","","","","","4","html-slider-response","1017","","","","2",""
"3236","bread","kaili,dizeli,dari,bugas","dari","j","4","html-keyboard-response","1018","j","dari","true","",""
"1836.800000000745","","","","","4","html-slider-response","1019","","","","4",""
"4684","triangle","kihozi,kasadpan,bentaha,liog","kasadpan","v","4","html-keyboard-response","1020","v","kasadpan","true","",""
"3652.599999997765","","","","","4","html-slider-response","1021","","","","3",""
"2846","scissors","tanuri,duga,mtawa,suga","tanuri","f","4","html-keyboard-response","1022","j","mtawa","false","",""
"1610.2999999970198","","","","","4","html-slider-response","1023","","","","2",""
"1719","giraffe","daraja,mahitabo,jumatu,hangyo","mahitabo","v","4","html-keyboard-response","1024","v","mahitabo","true","",""
"1371.699999999255","","","","","4","html-slider-response","1025","","","","4",""
"3311","flower","tamasha,lobo,usiku,bega","bega","n","4","html-keyboard-response","1026","f","tamasha","false","",""
"1324.3999999985099","","","","","4","html-slider-response","1027","","","","2",""
"3536","candle","geza,gabi,farasi,kupanda","geza","f","4","html-keyboard-response","1028","f","geza","true","",""
"1216.2999999970198","","","","","4","html-slider-response","1029","","","","1",""
"3907","mother","kahawa,mbuzi,babaye,jokofu","babaye","j","4","html-keyboard-response","1030","j","babaye","true","",""
"1114.300000000745","","","","","4","html-slider-response","1031","","","","2",""
"2416","towel","tembo,funzi,pagpalit,pito","pagpalit","j","4","html-keyboard-response","1032","v","funzi","false","",""
"957.1000000014901","","","","","4","html-slider-response","1033","","","","2",""
"2236","elephant","petye,pagduol,kito,suka","kito","j","4","html-keyboard-response","1034","j","kito","true","",""
"1965.300000000745","","","","","4","html-slider-response","1035","","","","5",""
"6149","shelf","bungtod,kadaot,awit,pamahaw","pamahaw","n","4","html-keyboard-response","1036","v","kadaot","false","",""
"2165.10000000149","","","","","4","html-slider-response","1037","","","","1",""
"2082","mosquito","isda,taras,martilyo,gutom","martilyo","j","4","html-keyboard-response","1038","j","martilyo","true","",""
"1741.800000000745","","","","","4","html-slider-response","1039","","","","5",""
"5368","column","pundok,dila,ufagio,pala","ufagio","j","4","html-keyboard-response","1040","j","ufagio","true","",""
"1539.5","","","","","4","html-slider-response","1041","","","","2",""
"1959","pants","pintal,chuki,hari,haki","haki","n","4","html-keyboard-response","1042","n","haki","true","",""
"1855.5","","","","","4","html-slider-response","1043","","","","5",""
"4018","list","alizeti,kuzama,wingu,kaso","wingu","j","4","html-keyboard-response","1044","j","wingu","true","",""
"1564.5","","","","","4","html-slider-response","1045","","","","4",""
"3445","bank","silingan,kudhibi,tualya,ofisi","silingan","f","4","html-keyboard-response","1046","n","ofisi","false","",""
"1467.8999999985099","","","","","4","html-slider-response","1047","","","","2",""
"4167","clock","kartasi,abang,osha,mbwa","mbwa","n","4","html-keyboard-response","1048","f","kartasi","false","",""
"1336","","","","","4","html-slider-response","1049","","","","2",""
"3081","ceiling","kugita,maua,kawaida,rayna","maua","v","4","html-keyboard-response","1050","v","maua","true","",""
"1235.1000000014901","","","","","4","html-slider-response","1051","","","","2",""
"2635","train","itik,sayari,dakika,mungu","sayari","v","4","html-keyboard-response","1052","n","mungu","false","",""
"1649.5999999977648","","","","","4","html-slider-response","1053","","","","2",""
"4728","magazine","gundi,kiti,mchawi,bahandi","kiti","v","4","html-keyboard-response","1054","j","mchawi","false","",""
"2531.699999999255","","","","","4","html-slider-response","1055","","","","2",""
"4018","office","leso,hazini,yatima,kuna","leso","f","4","html-keyboard-response","1056","n","kuna","false","",""
"1918.3999999985099","","","","","4","html-slider-response","1057","","","","2",""
"3122","wheel","punda,tawo,baadaye,bafuni","bafuni","n","4","html-keyboard-response","1058","v","tawo","false","",""
"1637.6000000014901","","","","","4","html-slider-response","1059","","","","1",""
"2140","spoon","betri,pagsulod,nzuri,ngazi","pagsulod","v","4","html-keyboard-response","1060","v","pagsulod","true","",""
"1219.5","","","","","4","html-slider-response","1061","","","","4",""
"2027","hammer","mekno,kitovu,napakyas,layag","napakyas","j","4","html-keyboard-response","1062","f","mekno","false","",""
"1416.699999999255","","","","","4","html-slider-response","1063","","","","1",""
"3637","cigar","ndugu,adhabu,kuta,mlango","adhabu","v","4","html-keyboard-response","1064","j","kuta","false","",""
"1557.800000000745","","","","","4","html-slider-response","1065","","","","2",""
"3828","shoe","nyeusi,uyoga,hatua,kama","uyoga","v","4","html-keyboard-response","1066","n","kama","false","",""
"1410.1000000014901","","","","","4","html-slider-response","1067","","","","2",""
"4035","list","alizeti,kuzama,kaso,wingu","wingu","n","5","html-keyboard-response","1069","n","wingu","true","",""
"1835.800000000745","","","","","5","html-slider-response","1070","","","","4",""
"3178","number","mundamo,shule,kengele,choori","mundamo","f","5","html-keyboard-response","1071","f","mundamo","true","",""
"1347.300000000745","","","","","5","html-slider-response","1072","","","","2",""
"2458","apple","kisu,ukame,estante,edad","kisu","f","5","html-keyboard-response","1073","f","kisu","true","",""
"2995.800000000745","","","","","5","html-slider-response","1074","","","","3",""
"2927","knee","mvuke,kubale,bili,duka","duka","n","5","html-keyboard-response","1075","n","duka","true","",""
"2135.7000000029802","","","","","5","html-slider-response","1076","","","","4",""
"2965","tooth","kabalaka,kijiko,uadui,pahiyum","kabalaka","f","5","html-keyboard-response","1077","f","kabalaka","true","",""
"1728.6000000014901","","","","","5","html-slider-response","1078","","","","1",""
"5395","berry","abogado,kofia,nogozi,kinywa","kofia","v","5","html-keyboard-response","1079","v","kofia","true","",""
"2616","","","","","5","html-slider-response","1080","","","","1",""
"4469","bridge","daima,ngono,panya,sahani","sahani","n","5","html-keyboard-response","1081","f","daima","false","",""
"1474.5","","","","","5","html-slider-response","1082","","","","2",""
"3505","perfume","bino,katuyoan,sungura,ndogo","katuyoan","v","5","html-keyboard-response","1083","n","ndogo","false","",""
"986.7999999970198","","","","","5","html-slider-response","1084","","","","1",""
"3063","ladder","mashua,mwanga,kamba,pangalan","pangalan","n","5","html-keyboard-response","1085","n","pangalan","true","",""
"1822.699999999255","","","","","5","html-slider-response","1086","","","","4",""
"2599","pants","pintal,chuki,haki,hari","haki","j","5","html-keyboard-response","1087","j","haki","true","",""
"1363.300000000745","","","","","5","html-slider-response","1088","","","","5",""
"2251","salmon","mzungu,seri,sensilyo,baharia","sensilyo","j","5","html-keyboard-response","1089","v","seri","false","",""
"1391.8999999985099","","","","","5","html-slider-response","1090","","","","2",""
"2173","coffin","barua,kioo,tubag,hulma","kioo","v","5","html-keyboard-response","1091","v","kioo","true","",""
"1281.3999999985099","","","","","5","html-slider-response","1092","","","","2",""
"3629","park","tambok,bunifu,pwani,ihalas","bunifu","v","5","html-keyboard-response","1093","j","pwani","false","",""
"1917.300000000745","","","","","5","html-slider-response","1094","","","","2",""
"2092","giraffe","daraja,jumatu,hangyo,mahitabo","mahitabo","n","5","html-keyboard-response","1095","n","mahitabo","true","",""
"1199.7000000029802","","","","","5","html-slider-response","1096","","","","4",""
"1951","mirror","rangi,sulagma,kanding,furaha","sulagma","v","5","html-keyboard-response","1097","v","sulagma","true","",""
"1311.5999999977648","","","","","5","html-slider-response","1098","","","","2",""
"1827","ceiling","kugita,maua,kawaida,rayna","maua","v","5","html-keyboard-response","1099","f","kugita","false","",""
"1384.1000000014901","","","","","5","html-slider-response","1100","","","","2",""
"3265","marker","mapafu,salita,atay,maji","maji","n","5","html-keyboard-response","1101","n","maji","true","",""
"1838.1000000014901","","","","","5","html-slider-response","1102","","","","1",""
"2021","sock","ndoora,kimysa,mamba,mtirka","mamba","j","5","html-keyboard-response","1103","v","kimysa","false","",""
"1139.699999999255","","","","","5","html-slider-response","1104","","","","1",""
"1599","cop","bustani,mechezo,jikoni,bakus","mechezo","v","5","html-keyboard-response","1105","v","mechezo","true","",""
"1401.1000000014901","","","","","5","html-slider-response","1106","","","","5",""
"3412","gift","baba,nyange,baso,pagtawag","pagtawag","n","5","html-keyboard-response","1107","j","baso","false","",""
"979.3999999985099","","","","","5","html-slider-response","1108","","","","2",""
"4328","notebook","kemia,msitu,kila,mdudu","kemia","f","5","html-keyboard-response","1109","j","kila","false","",""
"1840.7000000029802","","","","","5","html-slider-response","1110","","","","2",""
"3693","bank","kudhibi,tualya,ofisi,silingan","silingan","n","5","html-keyboard-response","1111","j","ofisi","false","",""
"1999.1000000014901","","","","","5","html-slider-response","1112","","","","1",""
"3463","letter","filimbi,kifua,chuma,uhuru","kifua","v","5","html-keyboard-response","1113","v","kifua","true","",""
"1576.5","","","","","5","html-slider-response","1114","","","","4",""
"5477","candle","geza,gabi,farasi,kupanda","geza","f","5","html-keyboard-response","1115","f","geza","true","",""
"2327.39999999851","","","","","5","html-slider-response","1116","","","","2",""
"3498","bread","dari,kaili,dizeli,bugas","dari","f","5","html-keyboard-response","1117","f","dari","true","",""
"1789.5","","","","","5","html-slider-response","1118","","","","2",""
"2676","snake","jansa,pagtukod,karon,mvringo","pagtukod","v","5","html-keyboard-response","1119","j","karon","false","",""
"1550.5","","","","","5","html-slider-response","1120","","","","4",""
"2400","rose","paghalad,singizi,mwanake,amani","paghalad","f","5","html-keyboard-response","1121","f","paghalad","true","",""
"1569.4000000022352","","","","","5","html-slider-response","1122","","","","1",""
"4077","hill","kushoto,kukimba,sweta,matumbo","matumbo","n","5","html-keyboard-response","1123","v","kukimba","false","",""
"1800.2000000029802","","","","","5","html-slider-response","1124","","","","1",""
"2709","train","itik,dakika,mungu,sayari","sayari","n","5","html-keyboard-response","1125","v","dakika","false","",""
"2041.4000000022352","","","","","5","html-slider-response","1126","","","","2",""
"2837","shop","nopya,samaki,kerida,ndezu","samaki","v","5","html-keyboard-response","1127","v","samaki","true","",""
"1454","","","","","5","html-slider-response","1128","","","","1",""
"2863","nose","gubat,kopa,sehemu,kidole","sehemu","j","5","html-keyboard-response","1129","v","kopa","false","",""
"1002.5","","","","","5","html-slider-response","1130","","","","2",""
"4952","boat","hamsi,pombe,agalon,kitanda","agalon","j","5","html-keyboard-response","1131","f","hamsi","false","",""
"1754.4000000022352","","","","","5","html-slider-response","1132","","","","1",""
"1903","body","nyundu,jibini,tindashan,kununa","tindashan","j","5","html-keyboard-response","1133","j","tindashan","true","",""
"1423.2999999970198","","","","","5","html-slider-response","1134","","","","5",""
"3256","bed","mapintas,kalipay,haraka,starehe","mapintas","f","5","html-keyboard-response","1135","f","mapintas","true","",""
"1729.0999999977648","","","","","5","html-slider-response","1136","","","","4",""
"1565","squirrel","hofu,mahugaw,ukweli,kichwa","hofu","f","5","html-keyboard-response","1137","f","hofu","true","",""
"1090.4000000022352","","","","","5","html-slider-response","1138","","","","5",""
"2915","window","kweli,nanga,kujenga,umaga","kweli","f","5","html-keyboard-response","1139","v","nanga","false","",""
"1484.699999999255","","","","","5","html-slider-response","1140","","","","1",""
"5126","bonfire","goti,mwezi,mfuko,kusanya","goti","f","5","html-keyboard-response","1141","v","mwezi","false","",""
"1258.5999999977648","","","","","5","html-slider-response","1142","","","","2",""
"2142","fish","bala,baho,buli,imani","buli","j","5","html-keyboard-response","1143","f","bala","false","",""
"1493.1000000014901","","","","","5","html-slider-response","1144","","","","1",""
"1978","cat","neyemba,baki,akili,paghukom","paghukom","n","5","html-keyboard-response","1145","v","baki","false","",""
"2178.400000002235","","","","","5","html-slider-response","1146","","","","1",""
"4446","spider","bunyag,mkboa,atop,kamwe","kamwe","n","5","html-keyboard-response","1147","n","kamwe","true","",""
"1787.5","","","","","5","html-slider-response","1148","","","","5",""
"4363","eel","ishara,kunywa,msumari,kabuang","msumari","j","5","html-keyboard-response","1149","j","msumari","true","",""
"1609.300000000745","","","","","5","html-slider-response","1150","","","","5",""
"2254","woman","pagtabon,bandari,bituin,kovuli","pagtabon","f","5","html-keyboard-response","1151","v","bandari","false","",""
"1174.5","","","","","5","html-slider-response","1152","","","","1",""
"4007","magazine","kiti,gundi,mchawi,bahandi","kiti","f","5","html-keyboard-response","1153","f","kiti","true","",""
"1873.9000000022352","","","","","5","html-slider-response","1154","","","","2",""
"2213","pudding","abug,mpishi,aibu,iring","aibu","j","5","html-keyboard-response","1155","n","iring","false","",""
"1427.800000000745","","","","","5","html-slider-response","1156","","","","2",""
"2270","lamp","daub,bilaska,mbolea,afya","afya","n","5","html-keyboard-response","1157","f","daub","false","",""
"1114.1000000014901","","","","","5","html-slider-response","1158","","","","2",""
"1824","cave","ganti,maisha,nyundo,kesho","kesho","n","5","html-keyboard-response","1159","n","kesho","true","",""
"1938.199999999255","","","","","5","html-slider-response","1160","","","","5",""
"2521","shoulder","mkuu,kelele,ndaniya,guruwe","mkuu","f","5","html-keyboard-response","1161","v","kelele","false","",""
"921.3000000007451","","","","","5","html-slider-response","1162","","","","2",""
"2612","stone","ulimwengu,mkasi,wingi,asili","wingi","j","5","html-keyboard-response","1163","j","wingi","true","",""
"1645.1000000014901","","","","","5","html-slider-response","1164","","","","4",""
"3370","column","pundok,ufagio,dila,pala","ufagio","v","5","html-keyboard-response","1165","f","pundok","false","",""
"1232.300000000745","","","","","5","html-slider-response","1166","","","","2",""
"3146","page","wakala,ishiri,wimbo,skina","wimbo","j","5","html-keyboard-response","1167","j","wimbo","true","",""
"1647.0999999977648","","","","","5","html-slider-response","1168","","","","4",""
"3526","shoe","nyeusi,hatua,uyoga,kama","uyoga","j","5","html-keyboard-response","1169","v","hatua","false","",""
"3153.10000000149","","","","","5","html-slider-response","1170","","","","1",""
"4415","clock","kartasi,abang,osha,mbwa","mbwa","n","5","html-keyboard-response","1171","f","kartasi","false","",""
"1279.199999999255","","","","","5","html-slider-response","1172","","","","1",""
"1955","towel","tembo,funzi,pagpalit,pito","pagpalit","j","5","html-keyboard-response","1173","v","funzi","false","",""
"1252.6000000014901","","","","","5","html-slider-response","1174","","","","1",""
"2973","tomato","mvua,chupi,chupa,takatak","mvua","f","5","html-keyboard-response","1175","v","chupi","false","",""
"1736.199999999255","","","","","5","html-slider-response","1176","","","","1",""
"1485","bucket","baga,ijayo,kiatu,init","kiatu","j","5","html-keyboard-response","1177","f","baga","false","",""
"1914.9000000022352","","","","","5","html-slider-response","1178","","","","1",""
"1500","finger","simu,sufuria,lima,moyo","moyo","n","5","html-keyboard-response","1179","f","simu","false","",""
"1145.199999999255","","","","","5","html-slider-response","1180","","","","1",""
"2069","mother","kahawa,mbuzi,babaye,jokofu","babaye","j","5","html-keyboard-response","1181","j","babaye","true","",""
"1619.6000000014901","","","","","5","html-slider-response","1182","","","","2",""
"2095","human","bado,kikapu,punguza,tinapay","tinapay","n","5","html-keyboard-response","1183","n","tinapay","true","",""
"1498.2999999970198","","","","","5","html-slider-response","1184","","","","5",""
"4559","sun","bendi,luha,uongo,basi","basi","n","5","html-keyboard-response","1185","n","basi","true","",""
"1702.3999999985099","","","","","5","html-slider-response","1186","","","","4",""
"2484","fork","baboy,paghago,gorisi,mgonjwa","mgonjwa","n","5","html-keyboard-response","1187","n","mgonjwa","true","",""
"1341.6000000014901","","","","","5","html-slider-response","1188","","","","4",""
"2340","donkey","elfu,bloke,lalake,rombus","elfu","f","5","html-keyboard-response","1189","f","elfu","true","",""
"1417","","","","","5","html-slider-response","1190","","","","5",""
"3769","wolf","kaburi,lugha,ndizi,mchuzi","lugha","v","5","html-keyboard-response","1191","f","kaburi","false","",""
"1543.1000000014901","","","","","5","html-slider-response","1192","","","","1",""
"2450","cigar","adhabu,ndugu,kuta,mlango","adhabu","f","5","html-keyboard-response","1193","j","kuta","false","",""
"1539","","","","","5","html-slider-response","1194","","","","1",""
"2383","olive","bata,jiwe,siagi,welder","jiwe","v","5","html-keyboard-response","1195","f","bata","false","",""
"2107.39999999851","","","","","5","html-slider-response","1196","","","","1",""
"6030","key","miaka,goma,chombo,ahos","chombo","j","5","html-keyboard-response","1197","f","miaka","false","",""
"1686.800000000745","","","","","5","html-slider-response","1198","","","","1",""
"3936","door","tena,soko,surali,nyota","surali","j","5","html-keyboard-response","1199","n","nyota","false","",""
"2015.300000000745","","","","","5","html-slider-response","1200","","","","1",""
"3390","wheel","punda,tawo,bafuni,baadaye","bafuni","j","5","html-keyboard-response","1201","f","punda","false","",""
"1561.199999999255","","","","","5","html-slider-response","1202","","","","1",""
"3678","basket","kumba,kumbuka,utepe,hasira","kumba","f","5","html-keyboard-response","1203","f","kumba","true","",""
"1343.3999999985099","","","","","5","html-slider-response","1204","","","","2",""
"2622","elephant","petye,pagduol,kito,suka","kito","j","5","html-keyboard-response","1205","j","kito","true","",""
"1798.300000000745","","","","","5","html-slider-response","1206","","","","4",""
"2384","office","hazini,yatima,kuna,leso","leso","n","5","html-keyboard-response","1207","n","leso","true","",""
"1168.5","","","","","5","html-slider-response","1208","","","","4",""
"3110","music","baiski,mraba,mageho,tumbo","baiski","f","5","html-keyboard-response","1209","v","mraba","false","",""
"1373.800000000745","","","","","5","html-slider-response","1210","","","","1",""
"2804","tissue","ugomvi,lamigas,kisiwa,katika","ugomvi","f","5","html-keyboard-response","1211","j","kisiwa","false","",""
"1357.5","","","","","5","html-slider-response","1212","","","","1",""
"3658","curtain","mchanga,lisud,bulwawan,chubani","mchanga","f","5","html-keyboard-response","1213","f","mchanga","true","",""
"2384.7999999970198","","","","","5","html-slider-response","1214","","","","1",""
"1341","flag","ndege,trekta,mkate,kawa","trekta","v","5","html-keyboard-response","1215","v","trekta","true","",""
"2066.300000000745","","","","","5","html-slider-response","1216","","","","1",""
"2373","dog","lubi,washia,bahari,kalamu","bahari","j","5","html-keyboard-response","1217","f","lubi","false","",""
"1121.3999999985099","","","","","5","html-slider-response","1218","","","","2",""
"2249","cup","dagat,shimoni,matumai,jeraha","matumai","j","5","html-keyboard-response","1219","j","matumai","true","",""
"1175.5999999977648","","","","","5","html-slider-response","1220","","","","1",""
"2251","sheet","juuya,bililhon,watu,kamantis","bililhon","v","5","html-keyboard-response","1221","j","watu","false","",""
"1191.699999999255","","","","","5","html-slider-response","1222","","","","2",""
"2013","spoon","pagsulod,betri,nzuri,ngazi","pagsulod","f","5","html-keyboard-response","1223","v","betri","false","",""
"1748.3999999985099","","","","","5","html-slider-response","1224","","","","1",""
"2159","flower","tamasha,lobo,usiku,bega","bega","n","5","html-keyboard-response","1225","f","tamasha","false","",""
"1556.300000000745","","","","","5","html-slider-response","1226","","","","4",""
"1390","picture","kubwa,silya,chaki,asin","kubwa","f","5","html-keyboard-response","1227","f","kubwa","true","",""
"1209.4000000022352","","","","","5","html-slider-response","1228","","","","1",""
"4416","puppet","napulo,mazishi,lamok,godoro","mazishi","v","5","html-keyboard-response","1229","v","mazishi","true","",""
"1583.6000000014901","","","","","5","html-slider-response","1230","","","","4",""
"2579","banana","kasamok,kazi,hagdan,twai","kazi","v","5","html-keyboard-response","1231","n","twai","false","",""
"2429.39999999851","","","","","5","html-slider-response","1232","","","","1",""
"7052","book","mali,kuhesa,picha,mara","mali","f","5","html-keyboard-response","1233","v","kuhesa","false","",""
"2654.599999997765","","","","","5","html-slider-response","1234","","","","1",""
"3343","triangle","kihozi,kasadpan,bentaha,liog","kasadpan","v","5","html-keyboard-response","1235","v","kasadpan","true","",""
"1373.199999999255","","","","","5","html-slider-response","1236","","","","4",""
"2569","poster","nchi,fedha,kasuko,madungog","madungog","n","5","html-keyboard-response","1237","f","nchi","false","",""
"1989.0999999977648","","","","","5","html-slider-response","1238","","","","1",""
"3156","box","kuacha,rafiki,adui,kitande","adui","j","5","html-keyboard-response","1239","j","adui","true","",""
"1500.3999999985099","","","","","5","html-slider-response","1240","","","","1",""
"2110","mosquito","isda,martilyo,taras,gutom","martilyo","v","5","html-keyboard-response","1241","v","martilyo","true","",""
"1540.300000000745","","","","","5","html-slider-response","1242","","","","5",""
"2063","shelf","bungtod,kadaot,pamahaw,awit","pamahaw","j","5","html-keyboard-response","1243","v","kadaot","false","",""
"2283","","","","","5","html-slider-response","1244","","","","2",""
"1914","scissors","duga,mtawa,suga,tanuri","tanuri","n","5","html-keyboard-response","1245","f","duga","false","",""
"997.1999999992549","","","","","5","html-slider-response","1246","","","","4",""
"3098","hammer","mekno,kitovu,napakyas,layag","napakyas","j","5","html-keyboard-response","1247","n","layag","false","",""
"1891.199999999255","","","","","5","html-slider-response","1248","","","","1",""
