"rt","en_word","options","swa_word","correct_answer","phase","trial_type","trial_index","input_answer","input_word","accuracy","certainty","amt_choices"
"2504","bonfire","mwezi,mfuko,goti,kusanya","goti","j","2","html-keyboard-response","106","j","goti","true","",""
"2858.7999999523163","","","","","2","html-slider-response","107","","","","3",""
"4719","flower","tamasha,lobo,bega,usiku","bega","j","2","html-keyboard-response","108","f","tamasha","false","",""
"1947.3999999761581","","","","","2","html-slider-response","109","","","","1",""
"1624","column","pundok,dila,ufagio,pala","ufagio","j","2","html-keyboard-response","110","n","pala","false","",""
"1962.6999999284744","","","","","2","html-slider-response","111","","","","1",""
"1453","music","mraba,baiski,mageho,tumbo","baiski","v","2","html-keyboard-response","112","f","mraba","false","",""
"1771.9000000953674","","","","","2","html-slider-response","113","","","","1",""
"7528","spider","bunyag,mkboa,kamwe,atop","kamwe","j","2","html-keyboard-response","114","v","mkboa","false","",""
"4924.299999952316","","","","","2","html-slider-response","115","","","","2",""
"2728","fork","baboy,mgonjwa,paghago,gorisi","mgonjwa","v","2","html-keyboard-response","116","v","mgonjwa","true","",""
"1510.5","","","","","2","html-slider-response","117","","","","2",""
"1512","mosquito","isda,taras,gutom,martilyo","martilyo","n","2","html-keyboard-response","118","n","martilyo","true","",""
"1744.7000000476837","","","","","2","html-slider-response","119","","","","5",""
"2187","banana","kazi,kasamok,hagdan,twai","kazi","f","2","html-keyboard-response","120","f","kazi","true","",""
"1656","","","","","2","html-slider-response","121","","","","4",""
"2260","cup","dagat,matumai,shimoni,jeraha","matumai","v","2","html-keyboard-response","122","n","jeraha","false","",""
"1332.3999999761581","","","","","2","html-slider-response","123","","","","2",""
"11263","shop","nopya,kerida,samaki,ndezu","samaki","j","2","html-keyboard-response","124","f","nopya","false","",""
"1312.2000000476837","","","","","2","html-slider-response","125","","","","2",""
"28748","elephant","kito,petye,pagduol,suka","kito","f","2","html-keyboard-response","126","f","kito","true","",""
"1364.7999999523163","","","","","2","html-slider-response","127","","","","4",""
"1553","bucket","baga,ijayo,init,kiatu","kiatu","n","2","html-keyboard-response","128","j","init","false","",""
"1083.2999999523163","","","","","2","html-slider-response","129","","","","2",""
"1103","book","kuhesa,picha,mara,mali","mali","n","2","html-keyboard-response","130","n","mali","true","",""
"1026.6000000238419","","","","","2","html-slider-response","131","","","","2",""
"1350","mirror","sulagma,rangi,kanding,furaha","sulagma","f","2","html-keyboard-response","132","f","sulagma","true","",""
"2969.100000023842","","","","","2","html-slider-response","133","","","","2",""
"16818","office","hazini,yatima,leso,kuna","leso","j","2","html-keyboard-response","134","j","leso","true","",""
"2148","","","","","2","html-slider-response","135","","","","2",""
"33030","body","nyundu,tindashan,jibini,kununa","tindashan","v","2","html-keyboard-response","136","j","jibini","false","",""
"1893.8000000715256","","","","","2","html-slider-response","137","","","","2",""
"2140","perfume","katuyoan,bino,sungura,ndogo","katuyoan","f","2","html-keyboard-response","138","j","sungura","false","",""
"1631.3999999761581","","","","","2","html-slider-response","139","","","","2",""
"17838","olive","bata,siagi,welder,jiwe","jiwe","n","2","html-keyboard-response","140","n","jiwe","true","",""
"1298.9000000953674","","","","","2","html-slider-response","141","","","","2",""
"27249","magazine","kiti,gundi,mchawi,bahandi","kiti","f","2","html-keyboard-response","142","j","mchawi","false","",""
"1564.1000000238419","","","","","2","html-slider-response","143","","","","2",""
"1819","bread","dari,kaili,dizeli,bugas","dari","f","2","html-keyboard-response","144","n","bugas","false","",""
"3956.899999976158","","","","","2","html-slider-response","145","","","","2",""
"25383","cave","ganti,maisha,nyundo,kesho","kesho","n","2","html-keyboard-response","146","n","kesho","true","",""
"2458.399999976158","","","","","2","html-slider-response","147","","","","2",""
"2188","ladder","mashua,pangalan,mwanga,kamba","pangalan","v","2","html-keyboard-response","148","f","mashua","false","",""
"1754.3000000715256","","","","","2","html-slider-response","149","","","","2",""
"2108","human","bado,kikapu,tinapay,punguza","tinapay","j","2","html-keyboard-response","150","v","kikapu","false","",""
"1423.2999999523163","","","","","2","html-slider-response","151","","","","1",""
"1506","clock","kartasi,mbwa,abang,osha","mbwa","v","2","html-keyboard-response","152","n","osha","false","",""
"1638.7000000476837","","","","","2","html-slider-response","153","","","","1",""
"1541","shelf","bungtod,kadaot,pamahaw,awit","pamahaw","j","2","html-keyboard-response","154","v","kadaot","false","",""
"1056.5","","","","","2","html-slider-response","155","","","","1",""
"2045","salmon","mzungu,seri,baharia,sensilyo","sensilyo","n","2","html-keyboard-response","156","n","sensilyo","true","",""
"1752.6000000238419","","","","","2","html-slider-response","157","","","","2",""
"1370","coffin","kioo,barua,tubag,hulma","kioo","f","2","html-keyboard-response","158","f","kioo","true","",""
"1412.7999999523163","","","","","2","html-slider-response","159","","","","1",""
"2455","notebook","msitu,kemia,kila,mdudu","kemia","v","2","html-keyboard-response","160","f","msitu","false","",""
"1292.7000000476837","","","","","2","html-slider-response","161","","","","1",""
"1651","shoulder","kelele,mkuu,ndaniya,guruwe","mkuu","v","2","html-keyboard-response","162","n","guruwe","false","",""
"1236.3999999761581","","","","","2","html-slider-response","163","","","","1",""
"1288","park","tambok,pwani,ihalas,bunifu","bunifu","n","2","html-keyboard-response","164","j","ihalas","false","",""
"1092.0999999046326","","","","","2","html-slider-response","165","","","","1",""
"903","number","shule,kengele,mundamo,choori","mundamo","j","2","html-keyboard-response","166","f","shule","false","",""
"1131.8000000715256","","","","","2","html-slider-response","167","","","","2",""
"1767","apple","ukame,estante,edad,kisu","kisu","n","2","html-keyboard-response","168","j","edad","false","",""
"1199.2999999523163","","","","","2","html-slider-response","169","","","","1",""
"1800","letter","filimbi,kifua,chuma,uhuru","kifua","v","2","html-keyboard-response","170","f","filimbi","false","",""
"1278.3000000715256","","","","","2","html-slider-response","171","","","","1",""
"1769","eel","msumari,ishara,kunywa,kabuang","msumari","f","2","html-keyboard-response","172","v","ishara","false","",""
"1376.3999999761581","","","","","2","html-slider-response","173","","","","1",""
"1333","cop","bustani,jikoni,mechezo,bakus","mechezo","j","2","html-keyboard-response","174","n","bakus","false","",""
"1850.7999999523163","","","","","2","html-slider-response","175","","","","1",""
"1102","wolf","kaburi,lugha,ndizi,mchuzi","lugha","v","2","html-keyboard-response","176","n","mchuzi","false","",""
"2042.7999999523163","","","","","2","html-slider-response","177","","","","1",""
"305","squirrel","hofu,mahugaw,ukweli,kichwa","hofu","f","2","html-keyboard-response","178","n","kichwa","false","",""
"1133.1000000238419","","","","","2","html-slider-response","179","","","","1",""
"1968","nose","gubat,kopa,sehemu,kidole","sehemu","j","2","html-keyboard-response","180","v","kopa","false","",""
"1990.5","","","","","2","html-slider-response","181","","","","1",""
"1914","sock","ndoora,kimysa,mtirka,mamba","mamba","n","2","html-keyboard-response","182","j","mtirka","false","",""
"2631.2000000476837","","","","","2","html-slider-response","183","","","","1",""
"1203","bank","kudhibi,silingan,tualya,ofisi","silingan","v","2","html-keyboard-response","184","v","silingan","true","",""
"1113.2999999523163","","","","","2","html-slider-response","185","","","","1",""
"1346","donkey","elfu,bloke,lalake,rombus","elfu","f","2","html-keyboard-response","186","f","elfu","true","",""
"1291.6000000238419","","","","","2","html-slider-response","187","","","","1",""
"1963","poster","nchi,madungog,fedha,kasuko","madungog","v","2","html-keyboard-response","188","v","madungog","true","",""
"1584.6999999284744","","","","","2","html-slider-response","189","","","","1",""
"1350","puppet","napulo,lamok,godoro,mazishi","mazishi","n","2","html-keyboard-response","190","f","napulo","false","",""
"1417.0999999046326","","","","","2","html-slider-response","191","","","","1",""
"1064","hill","kushoto,kukimba,matumbo,sweta","matumbo","j","2","html-keyboard-response","192","n","sweta","false","",""
"1430.2000000476837","","","","","2","html-slider-response","193","","","","2",""
"1104","tooth","kabalaka,kijiko,uadui,pahiyum","kabalaka","f","2","html-keyboard-response","194","v","kijiko","false","",""
"1083.6000000238419","","","","","2","html-slider-response","195","","","","1",""
"1312","woman","bandari,pagtabon,bituin,kovuli","pagtabon","v","2","html-keyboard-response","196","j","bituin","false","",""
"1100.3999999761581","","","","","2","html-slider-response","197","","","","1",""
"1016","wheel","punda,tawo,bafuni,baadaye","bafuni","j","2","html-keyboard-response","198","f","punda","false","",""
"1026.6999999284744","","","","","2","html-slider-response","199","","","","1",""
"2090","mother","kahawa,mbuzi,babaye,jokofu","babaye","j","2","html-keyboard-response","200","v","mbuzi","false","",""
"1625.8999999761581","","","","","2","html-slider-response","201","","","","1",""
"1752","bed","mapintas,kalipay,haraka,starehe","mapintas","f","2","html-keyboard-response","202","v","kalipay","false","",""
"1505","","","","","2","html-slider-response","203","","","","1",""
"1366","key","chombo,miaka,goma,ahos","chombo","f","2","html-keyboard-response","204","j","goma","false","",""
"1005.5999999046326","","","","","2","html-slider-response","205","","","","1",""
"806","page","wakala,ishiri,wimbo,skina","wimbo","j","2","html-keyboard-response","206","f","wakala","false","",""
"978.7999999523163","","","","","2","html-slider-response","207","","","","1",""
"1105","pants","pintal,haki,chuki,hari","haki","v","2","html-keyboard-response","208","f","pintal","false","",""
"994.1000000238419","","","","","2","html-slider-response","209","","","","2",""
"1853","sun","bendi,luha,basi,uongo","basi","j","2","html-keyboard-response","210","n","uongo","false","",""
"1177.3999999761581","","","","","2","html-slider-response","211","","","","1",""
"1234","finger","simu,sufuria,lima,moyo","moyo","n","2","html-keyboard-response","212","j","lima","false","",""
"1516.4000000953674","","","","","2","html-slider-response","213","","","","1",""
"1200","shoe","nyeusi,uyoga,hatua,kama","uyoga","v","2","html-keyboard-response","214","f","nyeusi","false","",""
"1018.2000000476837","","","","","2","html-slider-response","215","","","","2",""
"1411","giraffe","mahitabo,daraja,jumatu,hangyo","mahitabo","f","2","html-keyboard-response","216","v","daraja","false","",""
"994.0999999046326","","","","","2","html-slider-response","217","","","","1",""
"1683","dog","lubi,washia,kalamu,bahari","bahari","n","2","html-keyboard-response","218","j","kalamu","false","",""
"1493.5999999046326","","","","","2","html-slider-response","219","","","","1",""
"960","box","kuacha,rafiki,adui,kitande","adui","j","2","html-keyboard-response","220","f","kuacha","false","",""
"1210.8000000715256","","","","","2","html-slider-response","221","","","","2",""
"1029","scissors","duga,mtawa,tanuri,suga","tanuri","j","2","html-keyboard-response","222","v","mtawa","false","",""
"1141.5","","","","","2","html-slider-response","223","","","","1",""
"1357","cat","paghukom,neyemba,baki,akili","paghukom","f","2","html-keyboard-response","224","n","akili","false","",""
"1070.6000000238419","","","","","2","html-slider-response","225","","","","1",""
"1211","basket","kumbuka,utepe,kumba,hasira","kumba","j","2","html-keyboard-response","226","f","kumbuka","false","",""
"1023","","","","","2","html-slider-response","227","","","","2",""
"1518","snake","jansa,pagtukod,karon,mvringo","pagtukod","v","2","html-keyboard-response","228","j","karon","false","",""
"1177.6000000238419","","","","","2","html-slider-response","229","","","","2",""
"1128","gift","pagtawag,baba,nyange,baso","pagtawag","f","2","html-keyboard-response","230","v","baba","false","",""
"889.7999999523163","","","","","2","html-slider-response","231","","","","1",""
"1207","train","sayari,itik,dakika,mungu","sayari","f","2","html-keyboard-response","232","f","sayari","true","",""
"818.7000000476837","","","","","2","html-slider-response","233","","","","2",""
"1226","pudding","abug,aibu,mpishi,iring","aibu","v","2","html-keyboard-response","234","n","iring","false","",""
"896.2999999523163","","","","","2","html-slider-response","235","","","","2",""
"2452","tomato","chupi,chupa,mvua,takatak","mvua","j","2","html-keyboard-response","236","v","chupa","false","",""
"1257.2000000476837","","","","","2","html-slider-response","237","","","","2",""
"1195","stone","ulimwengu,mkasi,asili,wingi","wingi","n","2","html-keyboard-response","238","f","ulimwengu","false","",""
"1184.9000000953674","","","","","2","html-slider-response","239","","","","2",""
"1094","hammer","mekno,napakyas,kitovu,layag","napakyas","v","2","html-keyboard-response","240","f","mekno","false","",""
"1013.1000000238419","","","","","2","html-slider-response","241","","","","1",""
"935","knee","duka,mvuke,kubale,bili","duka","f","2","html-keyboard-response","242","n","bili","false","",""
"962.3999999761581","","","","","2","html-slider-response","243","","","","1",""
"350","ceiling","kugita,maua,kawaida,rayna","maua","v","2","html-keyboard-response","244","n","rayna","false","",""
"2281.2999999523163","","","","","2","html-slider-response","245","","","","1",""
"244","spoon","betri,pagsulod,nzuri,ngazi","pagsulod","v","2","html-keyboard-response","246","j","nzuri","false","",""
"1412","","","","","2","html-slider-response","247","","","","2",""
"738","marker","mapafu,maji,salita,atay","maji","v","2","html-keyboard-response","248","j","salita","false","",""
"974.2999999523163","","","","","2","html-slider-response","249","","","","1",""
"1000","candle","gabi,farasi,geza,kupanda","geza","j","2","html-keyboard-response","250","v","farasi","false","",""
"1565.1000000238419","","","","","2","html-slider-response","251","","","","1",""
"1833","tissue","lamigas,ugomvi,kisiwa,katika","ugomvi","v","2","html-keyboard-response","252","n","katika","false","",""
"1946.7999999523163","","","","","2","html-slider-response","253","","","","1",""
"1679","bridge","sahani,daima,ngono,panya","sahani","f","2","html-keyboard-response","254","v","daima","false","",""
"1508","","","","","2","html-slider-response","255","","","","2",""
"1698","berry","kofia,abogado,nogozi,kinywa","kofia","f","2","html-keyboard-response","256","j","nogozi","false","",""
"1857.7999999523163","","","","","2","html-slider-response","257","","","","1",""
"922","triangle","kihozi,bentaha,liog,kasadpan","kasadpan","n","2","html-keyboard-response","258","n","kasadpan","true","",""
"973.7999999523163","","","","","2","html-slider-response","259","","","","1",""
"926","door","surali,tena,soko,nyota","surali","f","2","html-keyboard-response","260","f","surali","true","",""
"2017","","","","","2","html-slider-response","261","","","","2",""
"793","fish","bala,baho,buli,imani","buli","j","2","html-keyboard-response","262","f","bala","false","",""
"1183.5","","","","","2","html-slider-response","263","","","","2",""
"998","curtain","mchanga,lisud,bulwawan,chubani","mchanga","f","2","html-keyboard-response","264","v","lisud","false","",""
"1011.8000000715256","","","","","2","html-slider-response","265","","","","2",""
"1021","flag","trekta,ndege,mkate,kawa","trekta","f","2","html-keyboard-response","266","n","kawa","false","",""
"1390.7000000476837","","","","","2","html-slider-response","267","","","","2",""
"1289","boat","hamsi,agalon,pombe,kitanda","agalon","v","2","html-keyboard-response","268","j","pombe","false","",""
"1670.5","","","","","2","html-slider-response","269","","","","2",""
"299","rose","singizi,mwanake,paghalad,amani","paghalad","j","2","html-keyboard-response","270","j","paghalad","true","",""
"1251.7000000476837","","","","","2","html-slider-response","271","","","","2",""
"322","lamp","daub,afya,bilaska,mbolea","afya","v","2","html-keyboard-response","272","j","bilaska","false","",""
"1115.1999999284744","","","","","2","html-slider-response","273","","","","1",""
"234","cigar","adhabu,ndugu,kuta,mlango","adhabu","f","2","html-keyboard-response","274","f","adhabu","true","",""
"1235.7000000476837","","","","","2","html-slider-response","275","","","","1",""
"174","list","alizeti,kuzama,kaso,wingu","wingu","n","2","html-keyboard-response","276","v","kuzama","false","",""
"1554.2999999523163","","","","","2","html-slider-response","277","","","","2",""
"162","sheet","bililhon,juuya,watu,kamantis","bililhon","f","2","html-keyboard-response","278","n","kamantis","false","",""
"1325.4000000953674","","","","","2","html-slider-response","279","","","","1",""
"148","picture","kubwa,silya,chaki,asin","kubwa","f","2","html-keyboard-response","280","f","kubwa","true","",""
"1194.2000000476837","","","","","2","html-slider-response","281","","","","1",""
"217","towel","pagpalit,tembo,funzi,pito","pagpalit","f","2","html-keyboard-response","282","f","pagpalit","true","",""
"1880.5","","","","","2","html-slider-response","283","","","","1",""
"2376","window","nanga,kweli,kujenga,umaga","kweli","v","2","html-keyboard-response","284","n","umaga","false","",""
"1244.1000000238419","","","","","2","html-slider-response","285","","","","1",""
"3569","box","adui,kuacha,rafiki,kitande","adui","f","3","html-keyboard-response","293","n","kitande","false","","4"
"1703","","","","","3","html-slider-response","294","","","","2",""
"2248","","","","","3","html-keyboard-response","295","","","","",""
"2255","pants","haki,pintal,chuki,hari","haki","f","3","html-keyboard-response","296","f","haki","true","","4"
"1585.6000000238419","","","","","3","html-slider-response","297","","","","1",""
"1336","","","","","3","html-keyboard-response","298","","","","",""
"1976","cup","matumai,dagat,shimoni,jeraha","matumai","f","3","html-keyboard-response","299","v","dagat","false","","4"
"1297","","","","","3","html-slider-response","300","","","","1",""
"1213","","","","","3","html-keyboard-response","301","","","","",""
"2846","triangle","kihozi,bentaha,liog,kasadpan","kasadpan","n","3","html-keyboard-response","302","n","kasadpan","true","","4"
"924.2999999523163","","","","","3","html-slider-response","303","","","","1",""
"921","","","","","3","html-keyboard-response","304","","","","",""
"3307","curtain","lisud,mchanga,bulwawan,chubani","mchanga","v","3","html-keyboard-response","305","v","mchanga","true","","4"
"1032.6999999284744","","","","","3","html-slider-response","306","","","","1",""
"878","","","","","3","html-keyboard-response","307","","","","",""
"4516","clock","mbwa,kartasi,abang,osha","mbwa","f","3","html-keyboard-response","308","j","abang","false","","4"
"1067.5","","","","","3","html-slider-response","309","","","","1",""
"983","","","","","3","html-keyboard-response","310","","","","",""
"1818","mirror","sulagma,rangi,kanding,furaha","sulagma","f","3","html-keyboard-response","311","f","sulagma","true","","4"
"922.1999999284744","","","","","3","html-slider-response","312","","","","2",""
"1112","","","","","3","html-keyboard-response","313","","","","",""
"2074","coffin","barua,tubag,hulma,kioo","kioo","n","3","html-keyboard-response","314","n","kioo","true","","1"
"2541.600000023842","","","","","3","html-slider-response","315","","","","4",""
"563","","","","","3","html-keyboard-response","316","","","","",""
"2600","magazine","gundi,mchawi,kiti,bahandi","kiti","j","3","html-keyboard-response","317","n","bahandi","false","","4"
"1052.2000000476837","","","","","3","html-slider-response","318","","","","2",""
"609","","","","","3","html-keyboard-response","319","","","","",""
"1528","column","pundok,dila,ufagio,pala","ufagio","j","3","html-keyboard-response","320","j","ufagio","true","","1"
"2431.5","","","","","3","html-slider-response","321","","","","5",""
"462","","","","","3","html-keyboard-response","322","","","","",""
"1969","number","mundamo,shule,kengele,choori","mundamo","f","3","html-keyboard-response","323","f","mundamo","true","","4"
"1824.2000000476837","","","","","3","html-slider-response","324","","","","2",""
"832","","","","","3","html-keyboard-response","325","","","","",""
"2459","rose","paghalad,singizi,mwanake,amani","paghalad","f","3","html-keyboard-response","326","n","amani","false","","4"
"1205.3999999761581","","","","","3","html-slider-response","327","","","","4",""
"536","","","","","3","html-keyboard-response","328","","","","",""
"2377","eel","ishara,msumari,kunywa,kabuang","msumari","v","3","html-keyboard-response","329","v","msumari","true","","4"
"1252.4000000953674","","","","","3","html-slider-response","330","","","","2",""
"708","","","","","3","html-keyboard-response","331","","","","",""
"1613","gift","baba,nyange,pagtawag,baso","pagtawag","j","3","html-keyboard-response","332","n","baso","false","","4"
"1980.8999999761581","","","","","3","html-slider-response","333","","","","4",""
"718","","","","","3","html-keyboard-response","334","","","","",""
"1105","apple","kisu,ukame,estante,edad","kisu","f","3","html-keyboard-response","335","f","kisu","true","","1"
"1329.1000000238419","","","","","3","html-slider-response","336","","","","5",""
"515","","","","","3","html-keyboard-response","337","","","","",""
"1135","wheel","punda,tawo,baadaye,bafuni","bafuni","n","3","html-keyboard-response","338","n","bafuni","true","","1"
"1439.7999999523163","","","","","3","html-slider-response","339","","","","5",""
"534","","","","","3","html-keyboard-response","340","","","","",""
"1679","knee","mvuke,kubale,duka,bili","duka","j","3","html-keyboard-response","341","v","kubale","false","","4"
"1671.7000000476837","","","","","3","html-slider-response","342","","","","2",""
"358","","","","","3","html-keyboard-response","343","","","","",""
"1541","basket","kumba,kumbuka,utepe,hasira","kumba","f","3","html-keyboard-response","344","f","kumba","true","","1"
"1793.2000000476837","","","","","3","html-slider-response","345","","","","2",""
"1239","","","","","3","html-keyboard-response","346","","","","",""
"2224","park","bunifu,tambok,pwani,ihalas","bunifu","f","3","html-keyboard-response","347","j","pwani","false","","4"
"1388.5","","","","","3","html-slider-response","348","","","","4",""
"464","","","","","3","html-keyboard-response","349","","","","",""
"2816","finger","moyo,simu,sufuria,lima","moyo","f","3","html-keyboard-response","350","v","simu","false","","4"
"1572","","","","","3","html-slider-response","351","","","","2",""
"671","","","","","3","html-keyboard-response","352","","","","",""
"2727","boat","hamsi,pombe,agalon,kitanda","agalon","j","3","html-keyboard-response","353","j","agalon","true","","4"
"1679.7999999523163","","","","","3","html-slider-response","354","","","","2",""
"113","","","","","3","html-keyboard-response","355","","","","",""
"2290","hill","kushoto,kukimba,sweta,matumbo","matumbo","n","3","html-keyboard-response","356","j","sweta","false","","4"
"1095.6999999284744","","","","","3","html-slider-response","357","","","","4",""
"443","","","","","3","html-keyboard-response","358","","","","",""
"2249","train","itik,dakika,sayari,mungu","sayari","j","3","html-keyboard-response","359","f","itik","false","","4"
"1168.6999999284744","","","","","3","html-slider-response","360","","","","2",""
"361","","","","","3","html-keyboard-response","361","","","","",""
"1223","wolf","lugha,kaburi,ndizi,mchuzi","lugha","f","3","html-keyboard-response","362","v","kaburi","false","","4"
"1078.5999999046326","","","","","3","html-slider-response","363","","","","2",""
"348","","","","","3","html-keyboard-response","364","","","","",""
"3461","snake","pagtukod,jansa,karon,mvringo","pagtukod","f","3","html-keyboard-response","365","v","jansa","false","","4"
"1058","","","","","3","html-slider-response","366","","","","2",""
"379","","","","","3","html-keyboard-response","367","","","","",""
"2389","tooth","kabalaka,kijiko,uadui,pahiyum","kabalaka","f","3","html-keyboard-response","368","v","kijiko","false","","4"
"1286.0999999046326","","","","","3","html-slider-response","369","","","","2",""
"345","","","","","3","html-keyboard-response","370","","","","",""
"2070","notebook","msitu,kila,kemia,mdudu","kemia","j","3","html-keyboard-response","371","n","mdudu","false","","4"
"1115.1000000238419","","","","","3","html-slider-response","372","","","","2",""
"362","","","","","3","html-keyboard-response","373","","","","",""
"2309","flag","ndege,mkate,trekta,kawa","trekta","j","3","html-keyboard-response","374","n","kawa","false","","4"
"1496.1000000238419","","","","","3","html-slider-response","375","","","","2",""
"476","","","","","3","html-keyboard-response","376","","","","",""
"3829","squirrel","mahugaw,hofu,ukweli,kichwa","hofu","v","3","html-keyboard-response","377","f","mahugaw","false","","4"
"1788.2000000476837","","","","","3","html-slider-response","378","","","","2",""
"392","","","","","3","html-keyboard-response","379","","","","",""
"1912","door","tena,soko,nyota,surali","surali","n","3","html-keyboard-response","380","v","soko","false","","4"
"1597","","","","","3","html-slider-response","381","","","","2",""
"368","","","","","3","html-keyboard-response","382","","","","",""
"1927","salmon","mzungu,seri,sensilyo,baharia","sensilyo","j","3","html-keyboard-response","383","j","sensilyo","true","","4"
"2539.2999999523163","","","","","3","html-slider-response","384","","","","4",""
"726","","","","","3","html-keyboard-response","385","","","","",""
"2213","shoulder","kelele,ndaniya,guruwe,mkuu","mkuu","n","3","html-keyboard-response","386","j","guruwe","false","","4"
"1105.2000000476837","","","","","3","html-slider-response","387","","","","2",""
"404","","","","","3","html-keyboard-response","388","","","","",""
"1839","lamp","daub,bilaska,mbolea,afya","afya","n","3","html-keyboard-response","389","n","afya","true","","4"
"1029.6000000238419","","","","","3","html-slider-response","390","","","","2",""
"521","","","","","3","html-keyboard-response","391","","","","",""
"1249","shelf","bungtod,pamahaw,kadaot,awit","pamahaw","v","3","html-keyboard-response","392","v","pamahaw","true","","1"
"2059.5","","","","","3","html-slider-response","393","","","","5",""
"541","","","","","3","html-keyboard-response","394","","","","",""
"1694","human","bado,kikapu,punguza,tinapay","tinapay","n","3","html-keyboard-response","395","n","tinapay","true","","4"
"1216.1000000238419","","","","","3","html-slider-response","396","","","","2",""
"507","","","","","3","html-keyboard-response","397","","","","",""
"1919","towel","tembo,funzi,pito,pagpalit","pagpalit","n","3","html-keyboard-response","398","f","tembo","false","","4"
"1145.1000000238419","","","","","3","html-slider-response","399","","","","4",""
"388","","","","","3","html-keyboard-response","400","","","","",""
"2236","cat","neyemba,baki,akili,paghukom","paghukom","n","3","html-keyboard-response","401","j","akili","false","","4"
"3547.5","","","","","3","html-slider-response","402","","","","3",""
"656","","","","","3","html-keyboard-response","403","","","","",""
"3284","spider","bunyag,kamwe,mkboa,atop","kamwe","v","3","html-keyboard-response","404","j","mkboa","false","","4"
"1165.2999999523163","","","","","3","html-slider-response","405","","","","4",""
"659","","","","","3","html-keyboard-response","406","","","","",""
"1708","window","kweli,nanga,kujenga,umaga","kweli","f","3","html-keyboard-response","407","n","umaga","false","","4"
"1091.2999999523163","","","","","3","html-slider-response","408","","","","2",""
"333","","","","","3","html-keyboard-response","409","","","","",""
"1063","woman","bandari,pagtabon,bituin,kovuli","pagtabon","v","3","html-keyboard-response","410","v","pagtabon","true","","1"
"1080.5999999046326","","","","","3","html-slider-response","411","","","","5",""
"311","","","","","3","html-keyboard-response","412","","","","",""
"2284","giraffe","daraja,jumatu,mahitabo,hangyo","mahitabo","j","3","html-keyboard-response","413","f","daraja","false","","4"
"1337.5","","","","","3","html-slider-response","414","","","","2",""
"313","","","","","3","html-keyboard-response","415","","","","",""
"1616","elephant","petye,kito,pagduol,suka","kito","v","3","html-keyboard-response","416","v","kito","true","","4"
"1264.1000000238419","","","","","3","html-slider-response","417","","","","5",""
"376","","","","","3","html-keyboard-response","418","","","","",""
"1581","cave","ganti,kesho,maisha,nyundo","kesho","v","3","html-keyboard-response","419","f","ganti","false","","4"
"937.5","","","","","3","html-slider-response","420","","","","2",""
"168","","","","","3","html-keyboard-response","421","","","","",""
"1699","bread","kaili,dizeli,bugas,dari","dari","n","3","html-keyboard-response","422","n","dari","true","","4"
"987.8999999761581","","","","","3","html-slider-response","423","","","","2",""
"367","","","","","3","html-keyboard-response","424","","","","",""
"2219","stone","wingi,ulimwengu,mkasi,asili","wingi","f","3","html-keyboard-response","425","v","ulimwengu","false","","4"
"1146.7000000476837","","","","","3","html-slider-response","426","","","","4",""
"482","","","","","3","html-keyboard-response","427","","","","",""
"2206","donkey","elfu,bloke,lalake,rombus","elfu","f","3","html-keyboard-response","428","v","bloke","false","","4"
"1077.0999999046326","","","","","3","html-slider-response","429","","","","2",""
"233","","","","","3","html-keyboard-response","430","","","","",""
"1529","bridge","daima,sahani,ngono,panya","sahani","v","3","html-keyboard-response","431","f","daima","false","","4"
"979.6000000238419","","","","","3","html-slider-response","432","","","","2",""
"129","","","","","3","html-keyboard-response","433","","","","",""
"2066","bonfire","mwezi,goti,mfuko,kusanya","goti","v","3","html-keyboard-response","434","v","goti","true","","4"
"1190.7999999523163","","","","","3","html-slider-response","435","","","","5",""
"317","","","","","3","html-keyboard-response","436","","","","",""
"1513","book","mali,kuhesa,picha,mara","mali","f","3","html-keyboard-response","437","f","mali","true","","4"
"1466.1000000238419","","","","","3","html-slider-response","438","","","","2",""
"279","","","","","3","html-keyboard-response","439","","","","",""
"1927","fish","bala,buli,baho,imani","buli","v","3","html-keyboard-response","440","n","imani","false","","4"
"1026.7999999523163","","","","","3","html-slider-response","441","","","","2",""
"321","","","","","3","html-keyboard-response","442","","","","",""
"1237","spoon","betri,nzuri,ngazi,pagsulod","pagsulod","n","3","html-keyboard-response","443","f","betri","false","","4"
"1256.5","","","","","3","html-slider-response","444","","","","2",""
"381","","","","","3","html-keyboard-response","445","","","","",""
"2190","scissors","duga,mtawa,suga,tanuri","tanuri","n","3","html-keyboard-response","446","j","suga","false","","4"
"1555","","","","","3","html-slider-response","447","","","","2",""
"313","","","","","3","html-keyboard-response","448","","","","",""
"1458","page","wimbo,wakala,ishiri,skina","wimbo","f","3","html-keyboard-response","449","v","wakala","false","","4"
"1123.8000000715256","","","","","3","html-slider-response","450","","","","2",""
"136","","","","","3","html-keyboard-response","451","","","","",""
"1003","nose","gubat,kopa,kidole,sehemu","sehemu","n","3","html-keyboard-response","452","n","sehemu","true","","1"
"2005.2999999523163","","","","","3","html-slider-response","453","","","","5",""
"291","","","","","3","html-keyboard-response","454","","","","",""
"1640","ceiling","kugita,kawaida,maua,rayna","maua","j","3","html-keyboard-response","455","v","kawaida","false","","4"
"1002.2999999523163","","","","","3","html-slider-response","456","","","","2",""
"213","","","","","3","html-keyboard-response","457","","","","",""
"924","bucket","baga,kiatu,ijayo,init","kiatu","v","3","html-keyboard-response","458","f","baga","false","","4"
"1152.7999999523163","","","","","3","html-slider-response","459","","","","2",""
"109","","","","","3","html-keyboard-response","460","","","","",""
"908","berry","abogado,kofia,nogozi,kinywa","kofia","v","3","html-keyboard-response","461","v","kofia","true","","1"
"1370.2000000476837","","","","","3","html-slider-response","462","","","","5",""
"356","","","","","3","html-keyboard-response","463","","","","",""
"972","mother","kahawa,mbuzi,jokofu,babaye","babaye","n","3","html-keyboard-response","464","n","babaye","true","","1"
"1126.2000000476837","","","","","3","html-slider-response","465","","","","5",""
"246","","","","","3","html-keyboard-response","466","","","","",""
"1807","mosquito","isda,martilyo,taras,gutom","martilyo","v","3","html-keyboard-response","467","v","martilyo","true","","4"
"1734.5","","","","","3","html-slider-response","468","","","","4",""
"448","","","","","3","html-keyboard-response","469","","","","",""
"2216","perfume","bino,sungura,ndogo,katuyoan","katuyoan","n","3","html-keyboard-response","470","n","katuyoan","true","","4"
"1237.2000000476837","","","","","3","html-slider-response","471","","","","2",""
"291","","","","","3","html-keyboard-response","472","","","","",""
"2101","sheet","juuya,bililhon,watu,kamantis","bililhon","v","3","html-keyboard-response","473","v","bililhon","true","","4"
"993","","","","","3","html-slider-response","474","","","","2",""
"298","","","","","3","html-keyboard-response","475","","","","",""
"975","puppet","napulo,lamok,godoro,mazishi","mazishi","n","3","html-keyboard-response","476","n","mazishi","true","","1"
"1114.7000000476837","","","","","3","html-slider-response","477","","","","5",""
"374","","","","","3","html-keyboard-response","478","","","","",""
"1881","poster","nchi,madungog,fedha,kasuko","madungog","v","3","html-keyboard-response","479","v","madungog","true","","4"
"1051.7000000476837","","","","","3","html-slider-response","480","","","","4",""
"384","","","","","3","html-keyboard-response","481","","","","",""
"1940","music","mraba,mageho,tumbo,baiski","baiski","n","3","html-keyboard-response","482","v","mageho","false","","4"
"797.5","","","","","3","html-slider-response","483","","","","2",""
"281","","","","","3","html-keyboard-response","484","","","","",""
"1221","key","miaka,chombo,goma,ahos","chombo","v","3","html-keyboard-response","485","f","miaka","false","","4"
"1273.1000000238419","","","","","3","html-slider-response","486","","","","2",""
"196","","","","","3","html-keyboard-response","487","","","","",""
"1691","sock","mamba,ndoora,kimysa,mtirka","mamba","f","3","html-keyboard-response","488","n","mtirka","false","","4"
"975.8999999761581","","","","","3","html-slider-response","489","","","","2",""
"312","","","","","3","html-keyboard-response","490","","","","",""
"1489","marker","maji,mapafu,salita,atay","maji","f","3","html-keyboard-response","491","f","maji","true","","4"
"860.1000000238419","","","","","3","html-slider-response","492","","","","2",""
"438","","","","","3","html-keyboard-response","493","","","","",""
"1472","office","hazini,leso,yatima,kuna","leso","v","3","html-keyboard-response","494","v","leso","true","","4"
"1266","","","","","3","html-slider-response","495","","","","2",""
"382","","","","","3","html-keyboard-response","496","","","","",""
"1763","shoe","nyeusi,uyoga,hatua,kama","uyoga","v","3","html-keyboard-response","497","n","kama","false","","4"
"1151.6000000238419","","","","","3","html-slider-response","498","","","","2",""
"337","","","","","3","html-keyboard-response","499","","","","",""
"1853","cop","mechezo,bustani,jikoni,bakus","mechezo","f","3","html-keyboard-response","500","f","mechezo","true","","4"
"1124","","","","","3","html-slider-response","501","","","","2",""
"584","","","","","3","html-keyboard-response","502","","","","",""
"1566","bank","silingan,kudhibi,tualya,ofisi","silingan","f","3","html-keyboard-response","503","n","ofisi","false","","4"
"1173.5999999046326","","","","","3","html-slider-response","504","","","","2",""
"307","","","","","3","html-keyboard-response","505","","","","",""
"891","letter","kifua,filimbi,chuma,uhuru","kifua","f","3","html-keyboard-response","506","f","kifua","true","","1"
"1526.5","","","","","3","html-slider-response","507","","","","5",""
"283","","","","","3","html-keyboard-response","508","","","","",""
"931","dog","lubi,washia,kalamu,bahari","bahari","n","3","html-keyboard-response","509","n","bahari","true","","1"
"1165.8999999761581","","","","","3","html-slider-response","510","","","","5",""
"259","","","","","3","html-keyboard-response","511","","","","",""
"932","shop","nopya,samaki,kerida,ndezu","samaki","v","3","html-keyboard-response","512","f","nopya","false","","4"
"1557.6000000238419","","","","","3","html-slider-response","513","","","","2",""
"215","","","","","3","html-keyboard-response","514","","","","",""
"880","flower","tamasha,lobo,bega,usiku","bega","j","3","html-keyboard-response","515","v","lobo","false","","4"
"1066.8999999761581","","","","","3","html-slider-response","516","","","","2",""
"363","","","","","3","html-keyboard-response","517","","","","",""
"1181","cigar","ndugu,kuta,adhabu,mlango","adhabu","j","3","html-keyboard-response","518","j","adhabu","true","","1"
"1132.1000000238419","","","","","3","html-slider-response","519","","","","5",""
"267","","","","","3","html-keyboard-response","520","","","","",""
"1228","hammer","mekno,kitovu,layag,napakyas","napakyas","n","3","html-keyboard-response","521","f","mekno","false","","4"
"1326.7000000476837","","","","","3","html-slider-response","522","","","","2",""
"264","","","","","3","html-keyboard-response","523","","","","",""
"996","fork","baboy,mgonjwa,paghago,gorisi","mgonjwa","v","3","html-keyboard-response","524","f","baboy","false","","4"
"1217","","","","","3","html-slider-response","525","","","","2",""
"95","","","","","3","html-keyboard-response","526","","","","",""
"889","sun","bendi,luha,uongo,basi","basi","n","3","html-keyboard-response","527","n","basi","true","","1"
"921.5999999046326","","","","","3","html-slider-response","528","","","","5",""
"123","","","","","3","html-keyboard-response","529","","","","",""
"822","ladder","mashua,mwanga,pangalan,kamba","pangalan","j","3","html-keyboard-response","530","f","mashua","false","","4"
"879.6999999284744","","","","","3","html-slider-response","531","","","","2",""
"191","","","","","3","html-keyboard-response","532","","","","",""
"972","banana","kasamok,hagdan,kazi,twai","kazi","j","3","html-keyboard-response","533","j","kazi","true","","1"
"1016.7999999523163","","","","","3","html-slider-response","534","","","","5",""
"194","","","","","3","html-keyboard-response","535","","","","",""
"1548","pudding","abug,aibu,mpishi,iring","aibu","v","3","html-keyboard-response","536","v","aibu","true","","4"
"937.1999999284744","","","","","3","html-slider-response","537","","","","2",""
"301","","","","","3","html-keyboard-response","538","","","","",""
"2125","body","nyundu,jibini,tindashan,kununa","tindashan","j","3","html-keyboard-response","539","n","kununa","false","","4"
"1162.8999999761581","","","","","3","html-slider-response","540","","","","2",""
"163","","","","","3","html-keyboard-response","541","","","","",""
"1111","bed","mapintas,kalipay,haraka,starehe","mapintas","f","3","html-keyboard-response","542","f","mapintas","true","","4"
"1356.1000000238419","","","","","3","html-slider-response","543","","","","2",""
"287","","","","","3","html-keyboard-response","544","","","","",""
"2385","tissue","ugomvi,lamigas,kisiwa,katika","ugomvi","f","3","html-keyboard-response","545","j","kisiwa","false","","4"
"1736.6000000238419","","","","","3","html-slider-response","546","","","","2",""
"404","","","","","3","html-keyboard-response","547","","","","",""
"820","candle","gabi,farasi,kupanda,geza","geza","n","3","html-keyboard-response","548","f","gabi","false","","4"
"1179.3999999761581","","","","","3","html-slider-response","549","","","","2",""
"407","","","","","3","html-keyboard-response","550","","","","",""
"2360","tomato","chupi,chupa,mvua,takatak","mvua","j","3","html-keyboard-response","551","j","mvua","true","","1"
"1071.8999999761581","","","","","3","html-slider-response","552","","","","5",""
"475","","","","","3","html-keyboard-response","553","","","","",""
"1071","list","alizeti,wingu,kuzama,kaso","wingu","v","3","html-keyboard-response","554","f","alizeti","false","","4"
"1060.0999999046326","","","","","3","html-slider-response","555","","","","2",""
"264","","","","","3","html-keyboard-response","556","","","","",""
"2151","olive","bata,jiwe,siagi,welder","jiwe","v","3","html-keyboard-response","557","v","jiwe","true","","4"
"874.2999999523163","","","","","3","html-slider-response","558","","","","2",""
"303","","","","","3","html-keyboard-response","559","","","","",""
"1064","picture","silya,chaki,kubwa,asin","kubwa","j","3","html-keyboard-response","560","j","kubwa","true","","1"
"1713.6999999284744","","","","","3","html-slider-response","561","","","","5",""
"274","","","","","3","html-keyboard-response","562","","","","",""
"1569","page","wakala,wimbo,ishiri,skina","wimbo","v","4","html-keyboard-response","888","j","ishiri","false","",""
"2714.399999976158","","","","","4","html-slider-response","889","","","","2",""
"1100","sheet","juuya,bililhon,watu,kamantis","bililhon","v","4","html-keyboard-response","890","f","juuya","false","",""
"1104","","","","","4","html-slider-response","891","","","","2",""
"1143","ladder","pangalan,mashua,mwanga,kamba","pangalan","f","4","html-keyboard-response","892","v","mashua","false","",""
"866.3999999761581","","","","","4","html-slider-response","893","","","","2",""
"670","door","surali,tena,soko,nyota","surali","f","4","html-keyboard-response","894","f","surali","true","",""
"913.3999999761581","","","","","4","html-slider-response","895","","","","2",""
"245","spider","bunyag,kamwe,mkboa,atop","kamwe","v","4","html-keyboard-response","896","n","atop","false","",""
"1048.8999999761581","","","","","4","html-slider-response","897","","","","2",""
"587","picture","silya,chaki,kubwa,asin","kubwa","j","4","html-keyboard-response","898","n","asin","false","",""
"1092.1000000238419","","","","","4","html-slider-response","899","","","","2",""
"96","boat","hamsi,agalon,pombe,kitanda","agalon","v","4","html-keyboard-response","900","j","pombe","false","",""
"1182.2999999523163","","","","","4","html-slider-response","901","","","","2",""
"121","donkey","bloke,elfu,lalake,rombus","elfu","v","4","html-keyboard-response","902","f","bloke","false","",""
"1213.1000000238419","","","","","4","html-slider-response","903","","","","2",""
"139","book","kuhesa,mali,picha,mara","mali","v","4","html-keyboard-response","904","f","kuhesa","false","",""
"1139","","","","","4","html-slider-response","905","","","","2",""
"443","cup","matumai,dagat,shimoni,jeraha","matumai","f","4","html-keyboard-response","906","j","shimoni","false","",""
"1212.1000000238419","","","","","4","html-slider-response","907","","","","2",""
"198","sun","bendi,luha,basi,uongo","basi","j","4","html-keyboard-response","908","n","uongo","false","",""
"1159.3000000715256","","","","","4","html-slider-response","909","","","","2",""
"709","pudding","abug,mpishi,iring,aibu","aibu","n","4","html-keyboard-response","910","v","mpishi","false","",""
"1244.7000000476837","","","","","4","html-slider-response","911","","","","2",""
"255","human","bado,tinapay,kikapu,punguza","tinapay","v","4","html-keyboard-response","912","v","tinapay","true","",""
"1198.8999999761581","","","","","4","html-slider-response","913","","","","2",""
"1674","squirrel","hofu,mahugaw,ukweli,kichwa","hofu","f","4","html-keyboard-response","914","v","mahugaw","false","",""
"1325.7999999523163","","","","","4","html-slider-response","915","","","","2",""
"346","park","tambok,bunifu,pwani,ihalas","bunifu","v","4","html-keyboard-response","916","f","tambok","false","",""
"1085.5","","","","","4","html-slider-response","917","","","","2",""
"394","poster","nchi,madungog,fedha,kasuko","madungog","v","4","html-keyboard-response","918","n","kasuko","false","",""
"1244","","","","","4","html-slider-response","919","","","","2",""
"323","wolf","kaburi,ndizi,mchuzi,lugha","lugha","n","4","html-keyboard-response","920","f","kaburi","false","",""
"1107","","","","","4","html-slider-response","921","","","","2",""
"318","cat","neyemba,baki,akili,paghukom","paghukom","n","4","html-keyboard-response","922","j","akili","false","",""
"1974.5","","","","","4","html-slider-response","923","","","","2",""
"360","fish","bala,buli,baho,imani","buli","v","4","html-keyboard-response","924","v","buli","true","",""
"1030.5","","","","","4","html-slider-response","925","","","","2",""
"275","tooth","kijiko,uadui,kabalaka,pahiyum","kabalaka","j","4","html-keyboard-response","926","f","kijiko","false","",""
"2588.2999999523163","","","","","4","html-slider-response","927","","","","2",""
"428","cave","kesho,ganti,maisha,nyundo","kesho","f","4","html-keyboard-response","928","n","nyundo","false","",""
"1404.3000000715256","","","","","4","html-slider-response","929","","","","2",""
"359","lamp","afya,daub,bilaska,mbolea","afya","f","4","html-keyboard-response","930","f","afya","true","",""
"1030.6999999284744","","","","","4","html-slider-response","931","","","","2",""
"490","banana","kasamok,kazi,hagdan,twai","kazi","v","4","html-keyboard-response","932","n","twai","false","",""
"1061.1000000238419","","","","","4","html-slider-response","933","","","","2",""
"293","bonfire","goti,mwezi,mfuko,kusanya","goti","f","4","html-keyboard-response","934","v","mwezi","false","",""
"1411.1000000238419","","","","","4","html-slider-response","935","","","","2",""
"155","cop","bustani,jikoni,mechezo,bakus","mechezo","j","4","html-keyboard-response","936","j","mechezo","true","",""
"1472.5","","","","","4","html-slider-response","937","","","","2",""
"1187","marker","mapafu,salita,atay,maji","maji","n","4","html-keyboard-response","938","v","salita","false","",""
"1025.2000000476837","","","","","4","html-slider-response","939","","","","2",""
"284","window","kweli,nanga,kujenga,umaga","kweli","f","4","html-keyboard-response","940","f","kweli","true","",""
"994.7000000476837","","","","","4","html-slider-response","941","","","","2",""
"282","body","nyundu,tindashan,jibini,kununa","tindashan","v","4","html-keyboard-response","942","n","kununa","false","",""
"1053.1000000238419","","","","","4","html-slider-response","943","","","","2",""
"255","apple","ukame,estante,edad,kisu","kisu","n","4","html-keyboard-response","944","f","ukame","false","",""
"1111.2000000476837","","","","","4","html-slider-response","945","","","","2",""
"220","salmon","mzungu,sensilyo,seri,baharia","sensilyo","v","4","html-keyboard-response","946","v","sensilyo","true","",""
"977","","","","","4","html-slider-response","947","","","","2",""
"244","bed","mapintas,kalipay,haraka,starehe","mapintas","f","4","html-keyboard-response","948","f","mapintas","true","",""
"1090.6000000238419","","","","","4","html-slider-response","949","","","","2",""
"468","berry","abogado,kofia,nogozi,kinywa","kofia","v","4","html-keyboard-response","950","j","nogozi","false","",""
"1005.7999999523163","","","","","4","html-slider-response","951","","","","2",""
"175","mirror","rangi,kanding,sulagma,furaha","sulagma","j","4","html-keyboard-response","952","j","sulagma","true","",""
"2218.399999976158","","","","","4","html-slider-response","953","","","","2",""
"261","flag","ndege,trekta,mkate,kawa","trekta","v","4","html-keyboard-response","954","n","kawa","false","",""
"1385.8000000715256","","","","","4","html-slider-response","955","","","","2",""
"281","shoulder","kelele,ndaniya,mkuu,guruwe","mkuu","j","4","html-keyboard-response","956","v","ndaniya","false","",""
"1053.8000000715256","","","","","4","html-slider-response","957","","","","2",""
"175","tissue","ugomvi,lamigas,kisiwa,katika","ugomvi","f","4","html-keyboard-response","958","f","ugomvi","true","",""
"1021.6999999284744","","","","","4","html-slider-response","959","","","","2",""
"271","notebook","kemia,msitu,kila,mdudu","kemia","f","4","html-keyboard-response","960","n","mdudu","false","",""
"1160.1000000238419","","","","","4","html-slider-response","961","","","","2",""
"609","snake","jansa,karon,mvringo,pagtukod","pagtukod","n","4","html-keyboard-response","962","v","karon","false","",""
"1095.2999999523163","","","","","4","html-slider-response","963","","","","2",""
"1155","finger","simu,sufuria,lima,moyo","moyo","n","4","html-keyboard-response","964","j","lima","false","",""
"910.6999999284744","","","","","4","html-slider-response","965","","","","2",""
"250","basket","kumba,kumbuka,utepe,hasira","kumba","f","4","html-keyboard-response","966","f","kumba","true","",""
"1436.4000000953674","","","","","4","html-slider-response","967","","","","2",""
"153","curtain","mchanga,lisud,bulwawan,chubani","mchanga","f","4","html-keyboard-response","968","n","chubani","false","",""
"1503.7000000476837","","","","","4","html-slider-response","969","","","","2",""
"310","perfume","bino,sungura,ndogo,katuyoan","katuyoan","n","4","html-keyboard-response","970","f","bino","false","",""
"1103.3000000715256","","","","","4","html-slider-response","971","","","","2",""
"367","key","chombo,miaka,goma,ahos","chombo","f","4","html-keyboard-response","972","v","miaka","false","",""
"1384.7000000476837","","","","","4","html-slider-response","973","","","","2",""
"2623","olive","bata,jiwe,siagi,welder","jiwe","v","4","html-keyboard-response","974","v","jiwe","true","",""
"1496.6000000238419","","","","","4","html-slider-response","975","","","","2",""
"1731","rose","singizi,mwanake,paghalad,amani","paghalad","j","4","html-keyboard-response","976","f","singizi","false","",""
"1872.5999999046326","","","","","4","html-slider-response","977","","","","2",""
"772","bridge","daima,ngono,sahani,panya","sahani","j","4","html-keyboard-response","978","n","panya","false","",""
"1077.3999999761581","","","","","4","html-slider-response","979","","","","2",""
"585","hill","kushoto,matumbo,kukimba,sweta","matumbo","v","4","html-keyboard-response","980","v","matumbo","true","",""
"1135.1000000238419","","","","","4","html-slider-response","981","","","","2",""
"303","letter","kifua,filimbi,chuma,uhuru","kifua","f","4","html-keyboard-response","982","f","kifua","true","",""
"1215.7999999523163","","","","","4","html-slider-response","983","","","","2",""
"538","sock","ndoora,mamba,kimysa,mtirka","mamba","v","4","html-keyboard-response","984","j","kimysa","false","",""
"1052.1000000238419","","","","","4","html-slider-response","985","","","","2",""
"234","fork","baboy,mgonjwa,paghago,gorisi","mgonjwa","v","4","html-keyboard-response","986","v","mgonjwa","true","",""
"1220.2000000476837","","","","","4","html-slider-response","987","","","","2",""
"286","box","kuacha,adui,rafiki,kitande","adui","v","4","html-keyboard-response","988","n","kitande","false","",""
"863.8999999761581","","","","","4","html-slider-response","989","","","","2",""
"363","gift","baba,nyange,pagtawag,baso","pagtawag","j","4","html-keyboard-response","990","f","baba","false","",""
"1076","","","","","4","html-slider-response","991","","","","2",""
"132","bucket","baga,ijayo,kiatu,init","kiatu","j","4","html-keyboard-response","992","n","init","false","",""
"2941.2000000476837","","","","","4","html-slider-response","993","","","","2",""
"573","shop","nopya,kerida,ndezu,samaki","samaki","n","4","html-keyboard-response","994","v","kerida","false","",""
"1034.8000000715256","","","","","4","html-slider-response","995","","","","2",""
"335","puppet","mazishi,napulo,lamok,godoro","mazishi","f","4","html-keyboard-response","996","j","lamok","false","",""
"2117.8000000715256","","","","","4","html-slider-response","997","","","","2",""
"217","nose","gubat,sehemu,kopa,kidole","sehemu","v","4","html-keyboard-response","998","j","kopa","false","",""
"1180.7999999523163","","","","","4","html-slider-response","999","","","","2",""
"230","music","mraba,mageho,baiski,tumbo","baiski","j","4","html-keyboard-response","1000","j","baiski","true","",""
"1056","","","","","4","html-slider-response","1001","","","","2",""
"183","dog","bahari,lubi,washia,kalamu","bahari","f","4","html-keyboard-response","1002","v","lubi","false","",""
"1182.6999999284744","","","","","4","html-slider-response","1003","","","","2",""
"155","eel","ishara,kunywa,kabuang,msumari","msumari","n","4","html-keyboard-response","1004","v","kunywa","false","",""
"865","","","","","4","html-slider-response","1005","","","","2",""
"250","number","shule,mundamo,kengele,choori","mundamo","v","4","html-keyboard-response","1006","f","shule","false","",""
"905.8999999761581","","","","","4","html-slider-response","1007","","","","2",""
"211","tomato","chupi,chupa,takatak,mvua","mvua","n","4","html-keyboard-response","1008","f","chupi","false","",""
"984.7999999523163","","","","","4","html-slider-response","1009","","","","2",""
"159","coffin","barua,tubag,kioo,hulma","kioo","j","4","html-keyboard-response","1010","n","hulma","false","",""
"980.7000000476837","","","","","4","html-slider-response","1011","","","","2",""
"241","knee","mvuke,duka,kubale,bili","duka","v","4","html-keyboard-response","1012","f","mvuke","false","",""
"2301.2999999523163","","","","","4","html-slider-response","1013","","","","2",""
"286","woman","bandari,bituin,pagtabon,kovuli","pagtabon","j","4","html-keyboard-response","1014","n","kovuli","false","",""
"1794.3999999761581","","","","","4","html-slider-response","1015","","","","2",""
"197","stone","ulimwengu,mkasi,asili,wingi","wingi","n","4","html-keyboard-response","1016","v","mkasi","false","",""
"1105","","","","","4","html-slider-response","1017","","","","2",""
"57","bread","dari,kaili,dizeli,bugas","dari","f","4","html-keyboard-response","1018","f","dari","true","",""
"1131.3999999761581","","","","","4","html-slider-response","1019","","","","2",""
"85","triangle","kihozi,bentaha,liog,kasadpan","kasadpan","n","4","html-keyboard-response","1020","n","kasadpan","true","",""
"1014.7999999523163","","","","","4","html-slider-response","1021","","","","2",""
"192","scissors","duga,mtawa,tanuri,suga","tanuri","j","4","html-keyboard-response","1022","f","duga","false","",""
"1061.8999999761581","","","","","4","html-slider-response","1023","","","","2",""
"342","giraffe","mahitabo,daraja,jumatu,hangyo","mahitabo","f","4","html-keyboard-response","1024","j","jumatu","false","",""
"1666.1000000238419","","","","","4","html-slider-response","1025","","","","2",""
"1091","flower","tamasha,lobo,bega,usiku","bega","j","4","html-keyboard-response","1026","v","lobo","false","",""
"1297.2000000476837","","","","","4","html-slider-response","1027","","","","2",""
"605","candle","gabi,farasi,kupanda,geza","geza","n","4","html-keyboard-response","1028","v","farasi","false","",""
"1444.5999999046326","","","","","4","html-slider-response","1029","","","","2",""
"185","mother","babaye,kahawa,mbuzi,jokofu","babaye","f","4","html-keyboard-response","1030","f","babaye","true","",""
"1019.1000000238419","","","","","4","html-slider-response","1031","","","","2",""
"268","towel","pagpalit,tembo,funzi,pito","pagpalit","f","4","html-keyboard-response","1032","n","pito","false","",""
"1138","","","","","4","html-slider-response","1033","","","","2",""
"124","elephant","petye,pagduol,kito,suka","kito","j","4","html-keyboard-response","1034","f","petye","false","",""
"1378.2999999523163","","","","","4","html-slider-response","1035","","","","2",""
"208","shelf","bungtod,kadaot,awit,pamahaw","pamahaw","n","4","html-keyboard-response","1036","n","pamahaw","true","",""
"946.5999999046326","","","","","4","html-slider-response","1037","","","","2",""
"168","mosquito","isda,taras,martilyo,gutom","martilyo","j","4","html-keyboard-response","1038","v","taras","false","",""
"1384","","","","","4","html-slider-response","1039","","","","2",""
"121","column","pundok,dila,ufagio,pala","ufagio","j","4","html-keyboard-response","1040","j","ufagio","true","",""
"1946.6999999284744","","","","","4","html-slider-response","1041","","","","2",""
"158","pants","pintal,chuki,haki,hari","haki","j","4","html-keyboard-response","1042","f","pintal","false","",""
"1062.4000000953674","","","","","4","html-slider-response","1043","","","","2",""
"236","list","wingu,alizeti,kuzama,kaso","wingu","f","4","html-keyboard-response","1044","v","alizeti","false","",""
"1098.6999999284744","","","","","4","html-slider-response","1045","","","","2",""
"207","bank","silingan,kudhibi,tualya,ofisi","silingan","f","4","html-keyboard-response","1046","f","silingan","true","",""
"1030.6000000238419","","","","","4","html-slider-response","1047","","","","2",""
"297","clock","mbwa,kartasi,abang,osha","mbwa","f","4","html-keyboard-response","1048","n","osha","false","",""
"1652.7000000476837","","","","","4","html-slider-response","1049","","","","2",""
"40255","ceiling","maua,kugita,kawaida,rayna","maua","f","4","html-keyboard-response","1050","v","kugita","false","",""
"2036.9000000953674","","","","","4","html-slider-response","1051","","","","2",""
"595","train","itik,dakika,sayari,mungu","sayari","j","4","html-keyboard-response","1052","f","itik","false","",""
"1472.2000000476837","","","","","4","html-slider-response","1053","","","","2",""
"188","magazine","kiti,gundi,mchawi,bahandi","kiti","f","4","html-keyboard-response","1054","n","bahandi","false","",""
"1404.1000000238419","","","","","4","html-slider-response","1055","","","","2",""
"130","office","hazini,yatima,kuna,leso","leso","n","4","html-keyboard-response","1056","f","hazini","false","",""
"994.2000000476837","","","","","4","html-slider-response","1057","","","","2",""
"250","wheel","bafuni,punda,tawo,baadaye","bafuni","f","4","html-keyboard-response","1058","v","punda","false","",""
"970.2999999523163","","","","","4","html-slider-response","1059","","","","2",""
"283","spoon","pagsulod,betri,nzuri,ngazi","pagsulod","f","4","html-keyboard-response","1060","f","pagsulod","true","",""
"2436.7000000476837","","","","","4","html-slider-response","1061","","","","2",""
"479","hammer","napakyas,mekno,kitovu,layag","napakyas","f","4","html-keyboard-response","1062","n","layag","false","",""
"1136.5999999046326","","","","","4","html-slider-response","1063","","","","2",""
"1367","cigar","adhabu,ndugu,kuta,mlango","adhabu","f","4","html-keyboard-response","1064","f","adhabu","true","",""
"1231.2000000476837","","","","","4","html-slider-response","1065","","","","2",""
"229","shoe","nyeusi,hatua,uyoga,kama","uyoga","j","4","html-keyboard-response","1066","v","hatua","false","",""
"1523.5","","","","","4","html-slider-response","1067","","","","2",""
"676","list","alizeti,wingu,kuzama,kaso","wingu","v","5","html-keyboard-response","1069","j","kuzama","false","",""
"1102.1000000238419","","","","","5","html-slider-response","1070","","","","2",""
"105","number","shule,kengele,choori,mundamo","mundamo","n","5","html-keyboard-response","1071","j","choori","false","",""
"874.1000000238419","","","","","5","html-slider-response","1072","","","","2",""
"194","apple","ukame,kisu,estante,edad","kisu","v","5","html-keyboard-response","1073","j","estante","false","",""
"1075.1999999284744","","","","","5","html-slider-response","1074","","","","2",""
"260","knee","duka,mvuke,kubale,bili","duka","f","5","html-keyboard-response","1075","n","bili","false","",""
"791.5","","","","","5","html-slider-response","1076","","","","2",""
"334","tooth","kijiko,uadui,pahiyum,kabalaka","kabalaka","n","5","html-keyboard-response","1077","n","kabalaka","true","",""
"925.7000000476837","","","","","5","html-slider-response","1078","","","","2",""
"509","berry","abogado,nogozi,kinywa,kofia","kofia","n","5","html-keyboard-response","1079","f","abogado","false","",""
"736","","","","","5","html-slider-response","1080","","","","2",""
"240","bridge","daima,ngono,sahani,panya","sahani","j","5","html-keyboard-response","1081","f","daima","false","",""
"674.2000000476837","","","","","5","html-slider-response","1082","","","","2",""
"168","perfume","bino,sungura,ndogo,katuyoan","katuyoan","n","5","html-keyboard-response","1083","f","bino","false","",""
"1173.1000000238419","","","","","5","html-slider-response","1084","","","","2",""
"197","ladder","mashua,mwanga,pangalan,kamba","pangalan","j","5","html-keyboard-response","1085","v","mwanga","false","",""
"861.1000000238419","","","","","5","html-slider-response","1086","","","","2",""
"300","pants","pintal,chuki,hari,haki","haki","n","5","html-keyboard-response","1087","v","chuki","false","",""
"719.0999999046326","","","","","5","html-slider-response","1088","","","","2",""
"365","salmon","mzungu,sensilyo,seri,baharia","sensilyo","v","5","html-keyboard-response","1089","f","mzungu","false","",""
"801","","","","","5","html-slider-response","1090","","","","2",""
"288","coffin","barua,tubag,hulma,kioo","kioo","n","5","html-keyboard-response","1091","v","tubag","false","",""
"1771.1000000238419","","","","","5","html-slider-response","1092","","","","2",""
"246","park","tambok,bunifu,pwani,ihalas","bunifu","v","5","html-keyboard-response","1093","n","ihalas","false","",""
"887.2000000476837","","","","","5","html-slider-response","1094","","","","2",""
"108","giraffe","daraja,mahitabo,jumatu,hangyo","mahitabo","v","5","html-keyboard-response","1095","n","hangyo","false","",""
"2319.7000000476837","","","","","5","html-slider-response","1096","","","","2",""
"2330","mirror","rangi,kanding,furaha,sulagma","sulagma","n","5","html-keyboard-response","1097","n","sulagma","true","",""
"1564.7000000476837","","","","","5","html-slider-response","1098","","","","2",""
"1085","ceiling","kugita,kawaida,rayna,maua","maua","n","5","html-keyboard-response","1099","f","kugita","false","",""
"2849.7000000476837","","","","","5","html-slider-response","1100","","","","2",""
"440","marker","mapafu,maji,salita,atay","maji","v","5","html-keyboard-response","1101","f","mapafu","false","",""
"804.7000000476837","","","","","5","html-slider-response","1102","","","","2",""
"214","sock","ndoora,mamba,kimysa,mtirka","mamba","v","5","html-keyboard-response","1103","f","ndoora","false","",""
"741.4000000953674","","","","","5","html-slider-response","1104","","","","2",""
"199","cop","bustani,mechezo,jikoni,bakus","mechezo","v","5","html-keyboard-response","1105","f","bustani","false","",""
"1005.5","","","","","5","html-slider-response","1106","","","","2",""
"153","gift","baba,nyange,pagtawag,baso","pagtawag","j","5","html-keyboard-response","1107","f","baba","false","",""
"1470","","","","","5","html-slider-response","1108","","","","2",""
"1205","notebook","msitu,kemia,kila,mdudu","kemia","v","5","html-keyboard-response","1109","n","mdudu","false","",""
"2463.9000000953674","","","","","5","html-slider-response","1110","","","","2",""
"914","bank","silingan,kudhibi,tualya,ofisi","silingan","f","5","html-keyboard-response","1111","n","ofisi","false","",""
"991","","","","","5","html-slider-response","1112","","","","2",""
"1089","letter","kifua,filimbi,chuma,uhuru","kifua","f","5","html-keyboard-response","1113","j","chuma","false","",""
"978.3000000715256","","","","","5","html-slider-response","1114","","","","2",""
"1016","candle","gabi,geza,farasi,kupanda","geza","v","5","html-keyboard-response","1115","f","gabi","false","",""
"1074.1999999284744","","","","","5","html-slider-response","1116","","","","2",""
"358","bread","dari,kaili,dizeli,bugas","dari","f","5","html-keyboard-response","1117","v","kaili","false","",""
"967.8999999761581","","","","","5","html-slider-response","1118","","","","2",""
"289","snake","jansa,karon,mvringo,pagtukod","pagtukod","n","5","html-keyboard-response","1119","f","jansa","false","",""
"963.6000000238419","","","","","5","html-slider-response","1120","","","","2",""
"134","rose","paghalad,singizi,mwanake,amani","paghalad","f","5","html-keyboard-response","1121","n","amani","false","",""
"973.8999999761581","","","","","5","html-slider-response","1122","","","","2",""
"241","hill","matumbo,kushoto,kukimba,sweta","matumbo","f","5","html-keyboard-response","1123","n","sweta","false","",""
"866.8999999761581","","","","","5","html-slider-response","1124","","","","2",""
"343","train","itik,sayari,dakika,mungu","sayari","v","5","html-keyboard-response","1125","f","itik","false","",""
"1570.3999999761581","","","","","5","html-slider-response","1126","","","","2",""
"207","shop","nopya,kerida,ndezu,samaki","samaki","n","5","html-keyboard-response","1127","j","ndezu","false","",""
"989","","","","","5","html-slider-response","1128","","","","2",""
"135","nose","sehemu,gubat,kopa,kidole","sehemu","f","5","html-keyboard-response","1129","v","gubat","false","",""
"932.5","","","","","5","html-slider-response","1130","","","","2",""
"773","boat","agalon,hamsi,pombe,kitanda","agalon","f","5","html-keyboard-response","1131","v","hamsi","false","",""
"1937.5999999046326","","","","","5","html-slider-response","1132","","","","2",""
"143","body","tindashan,nyundu,jibini,kununa","tindashan","f","5","html-keyboard-response","1133","f","tindashan","true","",""
"874.8999999761581","","","","","5","html-slider-response","1134","","","","2",""
"315","bed","mapintas,kalipay,haraka,starehe","mapintas","f","5","html-keyboard-response","1135","f","mapintas","true","",""
"720.8999999761581","","","","","5","html-slider-response","1136","","","","2",""
"132","squirrel","hofu,mahugaw,ukweli,kichwa","hofu","f","5","html-keyboard-response","1137","f","hofu","true","",""
"2393","","","","","5","html-slider-response","1138","","","","2",""
"526","window","kweli,nanga,kujenga,umaga","kweli","f","5","html-keyboard-response","1139","j","kujenga","false","",""
"1235","","","","","5","html-slider-response","1140","","","","2",""
"178","bonfire","mwezi,mfuko,goti,kusanya","goti","j","5","html-keyboard-response","1141","j","goti","true","",""
"947.6000000238419","","","","","5","html-slider-response","1142","","","","2",""
"304","fish","buli,bala,baho,imani","buli","f","5","html-keyboard-response","1143","n","imani","false","",""
"828.1999999284744","","","","","5","html-slider-response","1144","","","","2",""
"233","cat","neyemba,paghukom,baki,akili","paghukom","v","5","html-keyboard-response","1145","f","neyemba","false","",""
"1012.8999999761581","","","","","5","html-slider-response","1146","","","","2",""
"211","spider","kamwe,bunyag,mkboa,atop","kamwe","f","5","html-keyboard-response","1147","f","kamwe","true","",""
"1252.8000000715256","","","","","5","html-slider-response","1148","","","","2",""
"208","eel","ishara,kunywa,msumari,kabuang","msumari","j","5","html-keyboard-response","1149","v","kunywa","false","",""
"1053.5","","","","","5","html-slider-response","1150","","","","2",""
"162","woman","bandari,pagtabon,bituin,kovuli","pagtabon","v","5","html-keyboard-response","1151","v","pagtabon","true","",""
"1373.7000000476837","","","","","5","html-slider-response","1152","","","","2",""
"3209","magazine","gundi,mchawi,kiti,bahandi","kiti","j","5","html-keyboard-response","1153","n","bahandi","false","",""
"1883.5","","","","","5","html-slider-response","1154","","","","2",""
"645","pudding","abug,aibu,mpishi,iring","aibu","v","5","html-keyboard-response","1155","f","abug","false","",""
"969.5","","","","","5","html-slider-response","1156","","","","2",""
"287","lamp","daub,bilaska,afya,mbolea","afya","j","5","html-keyboard-response","1157","v","bilaska","false","",""
"1046.7000000476837","","","","","5","html-slider-response","1158","","","","2",""
"275","cave","kesho,ganti,maisha,nyundo","kesho","f","5","html-keyboard-response","1159","f","kesho","true","",""
"922.8999999761581","","","","","5","html-slider-response","1160","","","","2",""
"218","shoulder","kelele,ndaniya,mkuu,guruwe","mkuu","j","5","html-keyboard-response","1161","n","guruwe","false","",""
"866.6000000238419","","","","","5","html-slider-response","1162","","","","2",""
"3348","stone","ulimwengu,mkasi,asili,wingi","wingi","n","5","html-keyboard-response","1163","n","wingi","true","",""
"1737.7999999523163","","","","","5","html-slider-response","1164","","","","2",""
"1085","column","pundok,dila,ufagio,pala","ufagio","j","5","html-keyboard-response","1165","v","dila","false","",""
"1424.6999999284744","","","","","5","html-slider-response","1166","","","","2",""
"884","page","wimbo,wakala,ishiri,skina","wimbo","f","5","html-keyboard-response","1167","f","wimbo","true","",""
"2849","","","","","5","html-slider-response","1168","","","","2",""
"657","shoe","nyeusi,hatua,uyoga,kama","uyoga","j","5","html-keyboard-response","1169","n","kama","false","",""
"2246.100000023842","","","","","5","html-slider-response","1170","","","","2",""
"554","clock","kartasi,abang,mbwa,osha","mbwa","j","5","html-keyboard-response","1171","f","kartasi","false","",""
"1207.8999999761581","","","","","5","html-slider-response","1172","","","","2",""
"153","towel","tembo,funzi,pito,pagpalit","pagpalit","n","5","html-keyboard-response","1173","f","tembo","false","",""
"1075.2000000476837","","","","","5","html-slider-response","1174","","","","2",""
"174","tomato","chupi,mvua,chupa,takatak","mvua","v","5","html-keyboard-response","1175","f","chupi","false","",""
"1208.1000000238419","","","","","5","html-slider-response","1176","","","","2",""
"150","bucket","kiatu,baga,ijayo,init","kiatu","f","5","html-keyboard-response","1177","f","kiatu","true","",""
"1070.1000000238419","","","","","5","html-slider-response","1178","","","","2",""
"232","finger","moyo,simu,sufuria,lima","moyo","f","5","html-keyboard-response","1179","v","simu","false","",""
"1150.5","","","","","5","html-slider-response","1180","","","","2",""
"132","mother","babaye,kahawa,mbuzi,jokofu","babaye","f","5","html-keyboard-response","1181","v","kahawa","false","",""
"822.3000000715256","","","","","5","html-slider-response","1182","","","","2",""
"119","human","bado,kikapu,punguza,tinapay","tinapay","n","5","html-keyboard-response","1183","v","kikapu","false","",""
"1166.2999999523163","","","","","5","html-slider-response","1184","","","","2",""
"30","sun","bendi,luha,uongo,basi","basi","n","5","html-keyboard-response","1185","v","luha","false","",""
"1431.6000000238419","","","","","5","html-slider-response","1186","","","","2",""
"29","fork","baboy,paghago,mgonjwa,gorisi","mgonjwa","j","5","html-keyboard-response","1187","v","paghago","false","",""
"1224.3999999761581","","","","","5","html-slider-response","1188","","","","2",""
"664","donkey","bloke,elfu,lalake,rombus","elfu","v","5","html-keyboard-response","1189","f","bloke","false","",""
"846.3999999761581","","","","","5","html-slider-response","1190","","","","2",""
"282","wolf","lugha,kaburi,ndizi,mchuzi","lugha","f","5","html-keyboard-response","1191","n","mchuzi","false","",""
"1203.8999999761581","","","","","5","html-slider-response","1192","","","","2",""
"1708","cigar","ndugu,kuta,adhabu,mlango","adhabu","j","5","html-keyboard-response","1193","v","kuta","false","",""
"963.1000000238419","","","","","5","html-slider-response","1194","","","","2",""
"2788","olive","bata,siagi,welder,jiwe","jiwe","n","5","html-keyboard-response","1195","n","jiwe","true","",""
"1299.1999999284744","","","","","5","html-slider-response","1196","","","","2",""
"1468","key","miaka,goma,ahos,chombo","chombo","n","5","html-keyboard-response","1197","j","ahos","false","",""
"1444.5999999046326","","","","","5","html-slider-response","1198","","","","2",""
"1987","door","tena,surali,soko,nyota","surali","v","5","html-keyboard-response","1199","v","surali","true","",""
"1005.2000000476837","","","","","5","html-slider-response","1200","","","","2",""
"1176","wheel","punda,tawo,baadaye,bafuni","bafuni","n","5","html-keyboard-response","1201","n","bafuni","true","",""
"1260.3999999761581","","","","","5","html-slider-response","1202","","","","2",""
"2417","basket","kumbuka,utepe,kumba,hasira","kumba","j","5","html-keyboard-response","1203","j","kumba","true","",""
"1719.8000000715256","","","","","5","html-slider-response","1204","","","","2",""
"2476","elephant","kito,petye,pagduol,suka","kito","f","5","html-keyboard-response","1205","f","kito","true","",""
"2060","","","","","5","html-slider-response","1206","","","","2",""
"2093","office","hazini,yatima,leso,kuna","leso","j","5","html-keyboard-response","1207","n","kuna","false","",""
"1180.0999999046326","","","","","5","html-slider-response","1208","","","","2",""
"1653","music","baiski,mraba,mageho,tumbo","baiski","f","5","html-keyboard-response","1209","v","mraba","false","",""
"1050.2000000476837","","","","","5","html-slider-response","1210","","","","2",""
"1275","tissue","ugomvi,lamigas,kisiwa,katika","ugomvi","f","5","html-keyboard-response","1211","f","ugomvi","true","",""
"1259.1999999284744","","","","","5","html-slider-response","1212","","","","2",""
"2507","curtain","mchanga,lisud,bulwawan,chubani","mchanga","f","5","html-keyboard-response","1213","j","bulwawan","false","",""
"1612.6000000238419","","","","","5","html-slider-response","1214","","","","2",""
"3344","flag","ndege,mkate,kawa,trekta","trekta","n","5","html-keyboard-response","1215","v","mkate","false","",""
"1238.5","","","","","5","html-slider-response","1216","","","","2",""
"3847","dog","lubi,washia,kalamu,bahari","bahari","n","5","html-keyboard-response","1217","f","lubi","false","",""
"1989.7999999523163","","","","","5","html-slider-response","1218","","","","2",""
"1752","cup","dagat,shimoni,jeraha,matumai","matumai","n","5","html-keyboard-response","1219","f","dagat","false","",""
"1570.6000000238419","","","","","5","html-slider-response","1220","","","","2",""
"1186","sheet","juuya,watu,bililhon,kamantis","bililhon","j","5","html-keyboard-response","1221","n","kamantis","false","",""
"1702.1999999284744","","","","","5","html-slider-response","1222","","","","2",""
"988","spoon","betri,nzuri,ngazi,pagsulod","pagsulod","n","5","html-keyboard-response","1223","v","nzuri","false","",""
"925.2000000476837","","","","","5","html-slider-response","1224","","","","2",""
"266","flower","tamasha,bega,lobo,usiku","bega","v","5","html-keyboard-response","1225","j","lobo","false","",""
"1235.6999999284744","","","","","5","html-slider-response","1226","","","","2",""
"190","picture","silya,chaki,asin,kubwa","kubwa","n","5","html-keyboard-response","1227","j","asin","false","",""
"1682.1999999284744","","","","","5","html-slider-response","1228","","","","2",""
"58","puppet","mazishi,napulo,lamok,godoro","mazishi","f","5","html-keyboard-response","1229","j","lamok","false","",""
"1112.5","","","","","5","html-slider-response","1230","","","","2",""
"251","banana","kasamok,kazi,hagdan,twai","kazi","v","5","html-keyboard-response","1231","j","hagdan","false","",""
"1648.6000000238419","","","","","5","html-slider-response","1232","","","","2",""
"1171","book","mali,kuhesa,picha,mara","mali","f","5","html-keyboard-response","1233","v","kuhesa","false","",""
"1038.3999999761581","","","","","5","html-slider-response","1234","","","","2",""
"242","triangle","kihozi,bentaha,liog,kasadpan","kasadpan","n","5","html-keyboard-response","1235","v","bentaha","false","",""
"987.9000000953674","","","","","5","html-slider-response","1236","","","","2",""
"143","poster","nchi,madungog,fedha,kasuko","madungog","v","5","html-keyboard-response","1237","v","madungog","true","",""
"932.6000000238419","","","","","5","html-slider-response","1238","","","","2",""
"129","box","kuacha,rafiki,adui,kitande","adui","j","5","html-keyboard-response","1239","f","kuacha","false","",""
"1244.5","","","","","5","html-slider-response","1240","","","","2",""
"224","mosquito","martilyo,isda,taras,gutom","martilyo","f","5","html-keyboard-response","1241","f","martilyo","true","",""
"1408.2999999523163","","","","","5","html-slider-response","1242","","","","2",""
"132","shelf","pamahaw,bungtod,kadaot,awit","pamahaw","f","5","html-keyboard-response","1243","f","pamahaw","true","",""
"1314.4000000953674","","","","","5","html-slider-response","1244","","","","2",""
"407","scissors","duga,tanuri,mtawa,suga","tanuri","v","5","html-keyboard-response","1245","f","duga","false","",""
"1829","","","","","5","html-slider-response","1246","","","","2",""
"263","hammer","napakyas,mekno,kitovu,layag","napakyas","f","5","html-keyboard-response","1247","n","layag","false","",""
"1223.7999999523163","","","","","5","html-slider-response","1248","","","","2",""
