"rt","en_word","options","swa_word","correct_answer","phase","trial_type","trial_index","input_answer","input_word","accuracy","certainty","amt_choices"
"8515","bonfire","mwezi,mfuko,kusanya,goti","goti","n","2","html-keyboard-response","106","n","goti","true","",""
"3420.099999964237","","","","","2","html-slider-response","107","","","","2",""
"6163","flower","tamasha,lobo,usiku,bega","bega","n","2","html-keyboard-response","108","j","usiku","false","",""
"3054.100000023842","","","","","2","html-slider-response","109","","","","2",""
"6538","column","pundok,ufagio,dila,pala","ufagio","v","2","html-keyboard-response","110","f","pundok","false","",""
"2853.100000023842","","","","","2","html-slider-response","111","","","","2",""
"7980","music","mraba,mageho,tumbo,baiski","baiski","n","2","html-keyboard-response","112","j","tumbo","false","",""
"4906.399999976158","","","","","2","html-slider-response","113","","","","3",""
"6859","spider","kamwe,bunyag,mkboa,atop","kamwe","f","2","html-keyboard-response","114","f","kamwe","true","",""
"7640.399999976158","","","","","2","html-slider-response","115","","","","3",""
"6772","fork","mgonjwa,baboy,paghago,gorisi","mgonjwa","f","2","html-keyboard-response","116","f","mgonjwa","true","",""
"2150.800000011921","","","","","2","html-slider-response","117","","","","4",""
"4593","mosquito","martilyo,isda,taras,gutom","martilyo","f","2","html-keyboard-response","118","f","martilyo","true","",""
"2624.400000035763","","","","","2","html-slider-response","119","","","","5",""
"4889","banana","kasamok,hagdan,twai,kazi","kazi","n","2","html-keyboard-response","120","n","kazi","true","",""
"2168.099999964237","","","","","2","html-slider-response","121","","","","4",""
"8206","cup","dagat,matumai,shimoni,jeraha","matumai","v","2","html-keyboard-response","122","f","dagat","false","",""
"3500.600000023842","","","","","2","html-slider-response","123","","","","2",""
"7170","shop","nopya,kerida,samaki,ndezu","samaki","j","2","html-keyboard-response","124","n","ndezu","false","",""
"3421","","","","","2","html-slider-response","125","","","","3",""
"5256","elephant","petye,kito,pagduol,suka","kito","v","2","html-keyboard-response","126","j","pagduol","false","",""
"2241.800000011921","","","","","2","html-slider-response","127","","","","2",""
"12902","bucket","kiatu,baga,ijayo,init","kiatu","f","2","html-keyboard-response","128","v","baga","false","",""
"2879.699999988079","","","","","2","html-slider-response","129","","","","3",""
"5329","book","mali,kuhesa,picha,mara","mali","f","2","html-keyboard-response","130","f","mali","true","",""
"2223.300000011921","","","","","2","html-slider-response","131","","","","4",""
"8196","mirror","rangi,kanding,sulagma,furaha","sulagma","j","2","html-keyboard-response","132","f","rangi","false","",""
"1920","","","","","2","html-slider-response","133","","","","2",""
"3710","office","hazini,yatima,kuna,leso","leso","n","2","html-keyboard-response","134","n","leso","true","",""
"2755.600000023842","","","","","2","html-slider-response","135","","","","3",""
"11159","body","nyundu,jibini,kununa,tindashan","tindashan","n","2","html-keyboard-response","136","v","jibini","false","",""
"2168.100000023842","","","","","2","html-slider-response","137","","","","2",""
"6754","perfume","bino,sungura,ndogo,katuyoan","katuyoan","n","2","html-keyboard-response","138","j","ndogo","false","",""
"2711.699999988079","","","","","2","html-slider-response","139","","","","2",""
"10391","olive","bata,siagi,jiwe,welder","jiwe","j","2","html-keyboard-response","140","v","siagi","false","",""
"2320.300000011921","","","","","2","html-slider-response","141","","","","2",""
"5843","magazine","gundi,mchawi,kiti,bahandi","kiti","j","2","html-keyboard-response","142","v","mchawi","false","",""
"2676.800000011921","","","","","2","html-slider-response","143","","","","3",""
"9421","bread","kaili,dari,dizeli,bugas","dari","v","2","html-keyboard-response","144","v","dari","true","",""
"4783.199999988079","","","","","2","html-slider-response","145","","","","4",""
"4127","cave","kesho,ganti,maisha,nyundo","kesho","f","2","html-keyboard-response","146","n","nyundo","false","",""
"3012.599999964237","","","","","2","html-slider-response","147","","","","3",""
"5447","ladder","mashua,pangalan,mwanga,kamba","pangalan","v","2","html-keyboard-response","148","v","pangalan","true","",""
"2942","","","","","2","html-slider-response","149","","","","3",""
"4993","human","bado,kikapu,tinapay,punguza","tinapay","j","2","html-keyboard-response","150","j","tinapay","true","",""
"2427.800000011921","","","","","2","html-slider-response","151","","","","2",""
"4227","clock","mbwa,kartasi,abang,osha","mbwa","f","2","html-keyboard-response","152","f","mbwa","true","",""
"2324.5","","","","","2","html-slider-response","153","","","","4",""
"9119","shelf","bungtod,kadaot,awit,pamahaw","pamahaw","n","2","html-keyboard-response","154","f","bungtod","false","",""
"3227","","","","","2","html-slider-response","155","","","","3",""
"4955","salmon","mzungu,sensilyo,seri,baharia","sensilyo","v","2","html-keyboard-response","156","v","sensilyo","true","",""
"2229.900000035763","","","","","2","html-slider-response","157","","","","4",""
"5072","coffin","barua,tubag,hulma,kioo","kioo","n","2","html-keyboard-response","158","f","barua","false","",""
"3437","","","","","2","html-slider-response","159","","","","3",""
"8966","notebook","kemia,msitu,kila,mdudu","kemia","f","2","html-keyboard-response","160","j","kila","false","",""
"3302.600000023842","","","","","2","html-slider-response","161","","","","3",""
"5867","shoulder","mkuu,kelele,ndaniya,guruwe","mkuu","f","2","html-keyboard-response","162","j","ndaniya","false","",""
"2618.800000011921","","","","","2","html-slider-response","163","","","","4",""
"12552","park","bunifu,tambok,pwani,ihalas","bunifu","f","2","html-keyboard-response","164","j","pwani","false","",""
"2328.300000011921","","","","","2","html-slider-response","165","","","","2",""
"4084","number","shule,kengele,choori,mundamo","mundamo","n","2","html-keyboard-response","166","n","mundamo","true","",""
"2536.5","","","","","2","html-slider-response","167","","","","3",""
"6487","apple","ukame,estante,kisu,edad","kisu","j","2","html-keyboard-response","168","f","ukame","false","",""
"2675.7000000476837","","","","","2","html-slider-response","169","","","","3",""
"4564","letter","kifua,filimbi,chuma,uhuru","kifua","f","2","html-keyboard-response","170","f","kifua","true","",""
"2441","","","","","2","html-slider-response","171","","","","4",""
"67780","eel","msumari,ishara,kunywa,kabuang","msumari","f","2","html-keyboard-response","172","f","msumari","true","",""
"2623.899999976158","","","","","2","html-slider-response","173","","","","3",""
"4554","cop","bustani,jikoni,mechezo,bakus","mechezo","j","2","html-keyboard-response","174","j","mechezo","true","",""
"3458.699999988079","","","","","2","html-slider-response","175","","","","3",""
"4173","wolf","kaburi,lugha,ndizi,mchuzi","lugha","v","2","html-keyboard-response","176","v","lugha","true","",""
"2040.5","","","","","2","html-slider-response","177","","","","5",""
"9537","squirrel","mahugaw,ukweli,hofu,kichwa","hofu","j","2","html-keyboard-response","178","j","hofu","true","",""
"2640","","","","","2","html-slider-response","179","","","","2",""
"7685","nose","gubat,kopa,sehemu,kidole","sehemu","j","2","html-keyboard-response","180","v","kopa","false","",""
"2511.5","","","","","2","html-slider-response","181","","","","2",""
"5493","sock","ndoora,kimysa,mamba,mtirka","mamba","j","2","html-keyboard-response","182","j","mamba","true","",""
"1989.699999988079","","","","","2","html-slider-response","183","","","","4",""
"16347","bank","silingan,kudhibi,tualya,ofisi","silingan","f","2","html-keyboard-response","184","n","ofisi","false","",""
"3022.5","","","","","2","html-slider-response","185","","","","3",""
"7823","donkey","bloke,elfu,lalake,rombus","elfu","v","2","html-keyboard-response","186","v","elfu","true","",""
"2105","","","","","2","html-slider-response","187","","","","4",""
"6078","poster","nchi,fedha,madungog,kasuko","madungog","j","2","html-keyboard-response","188","f","nchi","false","",""
"2587.7000000476837","","","","","2","html-slider-response","189","","","","2",""
"3655","puppet","napulo,mazishi,lamok,godoro","mazishi","v","2","html-keyboard-response","190","v","mazishi","true","",""
"2644.600000023842","","","","","2","html-slider-response","191","","","","5",""
"4563","hill","matumbo,kushoto,kukimba,sweta","matumbo","f","2","html-keyboard-response","192","f","matumbo","true","",""
"2232.100000023842","","","","","2","html-slider-response","193","","","","5",""
"7178","tooth","kabalaka,kijiko,uadui,pahiyum","kabalaka","f","2","html-keyboard-response","194","j","uadui","false","",""
"3544.100000023842","","","","","2","html-slider-response","195","","","","3",""
"4321","woman","pagtabon,bandari,bituin,kovuli","pagtabon","f","2","html-keyboard-response","196","v","bandari","false","",""
"2290.5","","","","","2","html-slider-response","197","","","","4",""
"7102","wheel","punda,tawo,bafuni,baadaye","bafuni","j","2","html-keyboard-response","198","j","bafuni","true","",""
"2614.5","","","","","2","html-slider-response","199","","","","3",""
"8783","mother","kahawa,babaye,mbuzi,jokofu","babaye","v","2","html-keyboard-response","200","v","babaye","true","",""
"1844.1000000238419","","","","","2","html-slider-response","201","","","","4",""
"9635","bed","kalipay,mapintas,haraka,starehe","mapintas","v","2","html-keyboard-response","202","v","mapintas","true","",""
"1881.1000000238419","","","","","2","html-slider-response","203","","","","4",""
"8349","key","miaka,goma,ahos,chombo","chombo","n","2","html-keyboard-response","204","f","miaka","false","",""
"2554.699999988079","","","","","2","html-slider-response","205","","","","2",""
"8964","page","wakala,wimbo,ishiri,skina","wimbo","v","2","html-keyboard-response","206","j","ishiri","false","",""
"2238","","","","","2","html-slider-response","207","","","","2",""
"3755","pants","haki,pintal,chuki,hari","haki","f","2","html-keyboard-response","208","n","hari","false","",""
"1899.5","","","","","2","html-slider-response","209","","","","4",""
"5136","sun","bendi,luha,basi,uongo","basi","j","2","html-keyboard-response","210","j","basi","true","",""
"2221.099999964237","","","","","2","html-slider-response","211","","","","5",""
"3941","finger","simu,sufuria,lima,moyo","moyo","n","2","html-keyboard-response","212","n","moyo","true","",""
"2381.800000011921","","","","","2","html-slider-response","213","","","","5",""
"5577","shoe","nyeusi,uyoga,hatua,kama","uyoga","v","2","html-keyboard-response","214","v","uyoga","true","",""
"2021.6000000238419","","","","","2","html-slider-response","215","","","","5",""
"7426","giraffe","daraja,jumatu,hangyo,mahitabo","mahitabo","n","2","html-keyboard-response","216","j","hangyo","false","",""
"2085.100000023842","","","","","2","html-slider-response","217","","","","4",""
"14283","dog","lubi,washia,kalamu,bahari","bahari","n","2","html-keyboard-response","218","j","kalamu","false","",""
"3523.800000011921","","","","","2","html-slider-response","219","","","","3",""
"5254","box","kuacha,rafiki,kitande,adui","adui","n","2","html-keyboard-response","220","n","adui","true","",""
"2166.600000023842","","","","","2","html-slider-response","221","","","","2",""
"4033","scissors","tanuri,duga,mtawa,suga","tanuri","f","2","html-keyboard-response","222","j","mtawa","false","",""
"3585.300000011921","","","","","2","html-slider-response","223","","","","3",""
"5876","cat","neyemba,paghukom,baki,akili","paghukom","v","2","html-keyboard-response","224","v","paghukom","true","",""
"2678.699999988079","","","","","2","html-slider-response","225","","","","3",""
"4481","basket","kumbuka,kumba,utepe,hasira","kumba","v","2","html-keyboard-response","226","v","kumba","true","",""
"1901.3999999761581","","","","","2","html-slider-response","227","","","","4",""
"4999","snake","pagtukod,jansa,karon,mvringo","pagtukod","f","2","html-keyboard-response","228","f","pagtukod","true","",""
"2141.199999988079","","","","","2","html-slider-response","229","","","","5",""
"4741","gift","baba,nyange,pagtawag,baso","pagtawag","j","2","html-keyboard-response","230","j","pagtawag","true","",""
"1922.800000011921","","","","","2","html-slider-response","231","","","","4",""
"4619","train","itik,dakika,sayari,mungu","sayari","j","2","html-keyboard-response","232","j","sayari","true","",""
"2950.900000035763","","","","","2","html-slider-response","233","","","","3",""
"5735","pudding","abug,mpishi,aibu,iring","aibu","j","2","html-keyboard-response","234","j","aibu","true","",""
"1975.8999999761581","","","","","2","html-slider-response","235","","","","5",""
"6832","tomato","chupi,chupa,mvua,takatak","mvua","j","2","html-keyboard-response","236","f","chupi","false","",""
"1815.0999999642372","","","","","2","html-slider-response","237","","","","4",""
"9013","stone","ulimwengu,mkasi,wingi,asili","wingi","j","2","html-keyboard-response","238","n","asili","false","",""
"1956.6000000238419","","","","","2","html-slider-response","239","","","","2",""
"21136","hammer","mekno,napakyas,kitovu,layag","napakyas","v","2","html-keyboard-response","240","n","layag","false","",""
"2637.699999988079","","","","","2","html-slider-response","241","","","","3",""
"4141","knee","duka,mvuke,kubale,bili","duka","f","2","html-keyboard-response","242","n","bili","false","",""
"2059.699999988079","","","","","2","html-slider-response","243","","","","4",""
"7358","ceiling","maua,kugita,kawaida,rayna","maua","f","2","html-keyboard-response","244","j","kawaida","false","",""
"2163.600000023842","","","","","2","html-slider-response","245","","","","2",""
"4175","spoon","betri,nzuri,ngazi,pagsulod","pagsulod","n","2","html-keyboard-response","246","n","pagsulod","true","",""
"1925.9000000357628","","","","","2","html-slider-response","247","","","","4",""
"7857","marker","mapafu,salita,atay,maji","maji","n","2","html-keyboard-response","248","f","mapafu","false","",""
"2802.900000035763","","","","","2","html-slider-response","249","","","","2",""
"6616","candle","gabi,farasi,geza,kupanda","geza","j","2","html-keyboard-response","250","v","farasi","false","",""
"2488.699999988079","","","","","2","html-slider-response","251","","","","3",""
"12468","tissue","ugomvi,lamigas,kisiwa,katika","ugomvi","f","2","html-keyboard-response","252","v","lamigas","false","",""
"2578.7999999523163","","","","","2","html-slider-response","253","","","","2",""
"21115","bridge","sahani,daima,ngono,panya","sahani","f","2","html-keyboard-response","254","v","daima","false","",""
"2304","","","","","2","html-slider-response","255","","","","4",""
"4376","berry","abogado,nogozi,kinywa,kofia","kofia","n","2","html-keyboard-response","256","n","kofia","true","",""
"2033.0999999642372","","","","","2","html-slider-response","257","","","","4",""
"5373","triangle","kihozi,kasadpan,bentaha,liog","kasadpan","v","2","html-keyboard-response","258","v","kasadpan","true","",""
"1873.800000011921","","","","","2","html-slider-response","259","","","","2",""
"7558","door","tena,soko,surali,nyota","surali","j","2","html-keyboard-response","260","n","nyota","false","",""
"2055.800000011921","","","","","2","html-slider-response","261","","","","4",""
"9813","fish","bala,baho,buli,imani","buli","j","2","html-keyboard-response","262","j","buli","true","",""
"2004.699999988079","","","","","2","html-slider-response","263","","","","4",""
"8357","curtain","mchanga,lisud,bulwawan,chubani","mchanga","f","2","html-keyboard-response","264","f","mchanga","true","",""
"2781.2000000476837","","","","","2","html-slider-response","265","","","","3",""
"3616","flag","ndege,mkate,trekta,kawa","trekta","j","2","html-keyboard-response","266","f","ndege","false","",""
"2338.100000023842","","","","","2","html-slider-response","267","","","","5",""
"4095","boat","hamsi,pombe,agalon,kitanda","agalon","j","2","html-keyboard-response","268","n","kitanda","false","",""
"3052.800000011921","","","","","2","html-slider-response","269","","","","3",""
"4400","rose","singizi,mwanake,paghalad,amani","paghalad","j","2","html-keyboard-response","270","f","singizi","false","",""
"2161.100000023842","","","","","2","html-slider-response","271","","","","4",""
"4258","lamp","daub,afya,bilaska,mbolea","afya","v","2","html-keyboard-response","272","v","afya","true","",""
"2349.300000011921","","","","","2","html-slider-response","273","","","","2",""
"4900","cigar","adhabu,ndugu,kuta,mlango","adhabu","f","2","html-keyboard-response","274","f","adhabu","true","",""
"2590.100000023842","","","","","2","html-slider-response","275","","","","3",""
"3864","list","wingu,alizeti,kuzama,kaso","wingu","f","2","html-keyboard-response","276","n","kaso","false","",""
"2049.7000000476837","","","","","2","html-slider-response","277","","","","4",""
"11591","sheet","juuya,watu,kamantis,bililhon","bililhon","n","2","html-keyboard-response","278","j","kamantis","false","",""
"2328.199999988079","","","","","2","html-slider-response","279","","","","3",""
"3722","picture","silya,chaki,kubwa,asin","kubwa","j","2","html-keyboard-response","280","f","silya","false","",""
"1912.6000000238419","","","","","2","html-slider-response","281","","","","4",""
"4427","towel","tembo,funzi,pito,pagpalit","pagpalit","n","2","html-keyboard-response","282","v","funzi","false","",""
"2424.5","","","","","2","html-slider-response","283","","","","3",""
"14734","window","kweli,nanga,kujenga,umaga","kweli","f","2","html-keyboard-response","284","j","kujenga","false","",""
"1925.8999999761581","","","","","2","html-slider-response","285","","","","2",""
"8002","box","adui,kuacha,rafiki,kitande","adui","f","3","html-keyboard-response","293","f","adui","true","","4"
"2588.699999988079","","","","","3","html-slider-response","294","","","","2",""
"3528","","","","","3","html-keyboard-response","295","","","","",""
"5568","pants","pintal,chuki,hari,haki","haki","n","3","html-keyboard-response","296","n","haki","true","","4"
"2008.5","","","","","3","html-slider-response","297","","","","2",""
"2275","","","","","3","html-keyboard-response","298","","","","",""
"4396","cup","dagat,shimoni,jeraha,matumai","matumai","n","3","html-keyboard-response","299","f","dagat","false","","4"
"2228.400000035763","","","","","3","html-slider-response","300","","","","2",""
"5660","","","","","3","html-keyboard-response","301","","","","",""
"6460","triangle","kihozi,bentaha,kasadpan,liog","kasadpan","j","3","html-keyboard-response","302","j","kasadpan","true","","4"
"2676.400000035763","","","","","3","html-slider-response","303","","","","2",""
"2004","","","","","3","html-keyboard-response","304","","","","",""
"5619","curtain","mchanga,lisud,bulwawan,chubani","mchanga","f","3","html-keyboard-response","305","f","mchanga","true","","4"
"2615","","","","","3","html-slider-response","306","","","","2",""
"1248","","","","","3","html-keyboard-response","307","","","","",""
"8115","clock","kartasi,abang,mbwa,osha","mbwa","j","3","html-keyboard-response","308","f","kartasi","false","","4"
"2262.5","","","","","3","html-slider-response","309","","","","2",""
"3682","","","","","3","html-keyboard-response","310","","","","",""
"4718","mirror","rangi,kanding,furaha,sulagma","sulagma","n","3","html-keyboard-response","311","n","sulagma","true","","4"
"2232.800000011921","","","","","3","html-slider-response","312","","","","2",""
"1425","","","","","3","html-keyboard-response","313","","","","",""
"8148","coffin","kioo,barua,tubag,hulma","kioo","f","3","html-keyboard-response","314","f","kioo","true","","1"
"3348.599999964237","","","","","3","html-slider-response","315","","","","5",""
"1183","","","","","3","html-keyboard-response","316","","","","",""
"17433","magazine","gundi,kiti,mchawi,bahandi","kiti","v","3","html-keyboard-response","317","n","bahandi","false","","4"
"4437.599999964237","","","","","3","html-slider-response","318","","","","2",""
"3234","","","","","3","html-keyboard-response","319","","","","",""
"1534","column","pundok,ufagio,dila,pala","ufagio","v","3","html-keyboard-response","320","v","ufagio","true","","1"
"2309.399999976158","","","","","3","html-slider-response","321","","","","5",""
"654","","","","","3","html-keyboard-response","322","","","","",""
"5348","number","mundamo,shule,kengele,choori","mundamo","f","3","html-keyboard-response","323","f","mundamo","true","","4"
"2173.800000011921","","","","","3","html-slider-response","324","","","","4",""
"1293","","","","","3","html-keyboard-response","325","","","","",""
"3599","rose","singizi,mwanake,paghalad,amani","paghalad","j","3","html-keyboard-response","326","f","singizi","false","","4"
"2654.5","","","","","3","html-slider-response","327","","","","5",""
"4453","","","","","3","html-keyboard-response","328","","","","",""
"14482","eel","ishara,kunywa,kabuang,msumari","msumari","n","3","html-keyboard-response","329","v","kunywa","false","","4"
"1971.5999999642372","","","","","3","html-slider-response","330","","","","2",""
"2690","","","","","3","html-keyboard-response","331","","","","",""
"12744","gift","pagtawag,baba,nyange,baso","pagtawag","f","3","html-keyboard-response","332","f","pagtawag","true","","4"
"2531.800000011921","","","","","3","html-slider-response","333","","","","5",""
"856","","","","","3","html-keyboard-response","334","","","","",""
"1379","apple","ukame,kisu,estante,edad","kisu","v","3","html-keyboard-response","335","v","kisu","true","","1"
"2454.100000023842","","","","","3","html-slider-response","336","","","","5",""
"576","","","","","3","html-keyboard-response","337","","","","",""
"1462","wheel","punda,tawo,baadaye,bafuni","bafuni","n","3","html-keyboard-response","338","n","bafuni","true","","1"
"1993.0999999642372","","","","","3","html-slider-response","339","","","","5",""
"474","","","","","3","html-keyboard-response","340","","","","",""
"12979","knee","mvuke,duka,kubale,bili","duka","v","3","html-keyboard-response","341","n","bili","false","","4"
"2482.2999999523163","","","","","3","html-slider-response","342","","","","4",""
"1345","","","","","3","html-keyboard-response","343","","","","",""
"2464","basket","kumbuka,utepe,kumba,hasira","kumba","j","3","html-keyboard-response","344","j","kumba","true","","1"
"2355.100000023842","","","","","3","html-slider-response","345","","","","5",""
"415","","","","","3","html-keyboard-response","346","","","","",""
"4737","park","tambok,pwani,ihalas,bunifu","bunifu","n","3","html-keyboard-response","347","v","pwani","false","","4"
"2040.9000000357628","","","","","3","html-slider-response","348","","","","2",""
"1438","","","","","3","html-keyboard-response","349","","","","",""
"1960","finger","moyo,simu,sufuria,lima","moyo","f","3","html-keyboard-response","350","f","moyo","true","","4"
"1873.199999988079","","","","","3","html-slider-response","351","","","","5",""
"966","","","","","3","html-keyboard-response","352","","","","",""
"4009","boat","hamsi,agalon,pombe,kitanda","agalon","v","3","html-keyboard-response","353","f","hamsi","false","","4"
"2740.800000011921","","","","","3","html-slider-response","354","","","","3",""
"1505","","","","","3","html-keyboard-response","355","","","","",""
"3932","hill","kushoto,kukimba,sweta,matumbo","matumbo","n","3","html-keyboard-response","356","n","matumbo","true","","4"
"2063.199999988079","","","","","3","html-slider-response","357","","","","5",""
"660","","","","","3","html-keyboard-response","358","","","","",""
"7343","train","itik,dakika,sayari,mungu","sayari","j","3","html-keyboard-response","359","v","dakika","false","","4"
"2655.900000035763","","","","","3","html-slider-response","360","","","","4",""
"1157","","","","","3","html-keyboard-response","361","","","","",""
"2411","wolf","kaburi,ndizi,mchuzi,lugha","lugha","n","3","html-keyboard-response","362","n","lugha","true","","4"
"1845.6000000238419","","","","","3","html-slider-response","363","","","","5",""
"416","","","","","3","html-keyboard-response","364","","","","",""
"4442","snake","pagtukod,jansa,karon,mvringo","pagtukod","f","3","html-keyboard-response","365","f","pagtukod","true","","4"
"2020.4000000357628","","","","","3","html-slider-response","366","","","","4",""
"721","","","","","3","html-keyboard-response","367","","","","",""
"3681","tooth","kijiko,uadui,pahiyum,kabalaka","kabalaka","n","3","html-keyboard-response","368","f","kijiko","false","","4"
"3200.199999988079","","","","","3","html-slider-response","369","","","","4",""
"1326","","","","","3","html-keyboard-response","370","","","","",""
"11317","notebook","msitu,kila,mdudu,kemia","kemia","n","3","html-keyboard-response","371","f","msitu","false","","4"
"2102","","","","","3","html-slider-response","372","","","","4",""
"1065","","","","","3","html-keyboard-response","373","","","","",""
"5129","flag","ndege,trekta,mkate,kawa","trekta","v","3","html-keyboard-response","374","v","trekta","true","","4"
"2015","","","","","3","html-slider-response","375","","","","5",""
"657","","","","","3","html-keyboard-response","376","","","","",""
"4804","squirrel","mahugaw,ukweli,hofu,kichwa","hofu","j","3","html-keyboard-response","377","f","mahugaw","false","","4"
"1876.5","","","","","3","html-slider-response","378","","","","4",""
"1477","","","","","3","html-keyboard-response","379","","","","",""
"4837","door","surali,tena,soko,nyota","surali","f","3","html-keyboard-response","380","n","nyota","false","","4"
"2106.5","","","","","3","html-slider-response","381","","","","2",""
"1189","","","","","3","html-keyboard-response","382","","","","",""
"6852","salmon","mzungu,seri,sensilyo,baharia","sensilyo","j","3","html-keyboard-response","383","j","sensilyo","true","","4"
"1818.1000000238419","","","","","3","html-slider-response","384","","","","5",""
"722","","","","","3","html-keyboard-response","385","","","","",""
"4734","shoulder","mkuu,kelele,ndaniya,guruwe","mkuu","f","3","html-keyboard-response","386","v","kelele","false","","4"
"2911.100000023842","","","","","3","html-slider-response","387","","","","3",""
"918","","","","","3","html-keyboard-response","388","","","","",""
"7230","lamp","afya,daub,bilaska,mbolea","afya","f","3","html-keyboard-response","389","f","afya","true","","4"
"2277.600000023842","","","","","3","html-slider-response","390","","","","2",""
"658","","","","","3","html-keyboard-response","391","","","","",""
"4998","shelf","pamahaw,bungtod,kadaot,awit","pamahaw","f","3","html-keyboard-response","392","f","pamahaw","true","","1"
"2051.199999988079","","","","","3","html-slider-response","393","","","","5",""
"702","","","","","3","html-keyboard-response","394","","","","",""
"4955","human","tinapay,bado,kikapu,punguza","tinapay","f","3","html-keyboard-response","395","v","bado","false","","4"
"1748.699999988079","","","","","3","html-slider-response","396","","","","2",""
"850","","","","","3","html-keyboard-response","397","","","","",""
"10942","towel","tembo,funzi,pito,pagpalit","pagpalit","n","3","html-keyboard-response","398","v","funzi","false","","4"
"1907.5999999642372","","","","","3","html-slider-response","399","","","","2",""
"1024","","","","","3","html-keyboard-response","400","","","","",""
"4293","cat","neyemba,baki,paghukom,akili","paghukom","j","3","html-keyboard-response","401","v","baki","false","","4"
"2065.300000011921","","","","","3","html-slider-response","402","","","","4",""
"1102","","","","","3","html-keyboard-response","403","","","","",""
"4615","spider","kamwe,bunyag,mkboa,atop","kamwe","f","3","html-keyboard-response","404","f","kamwe","true","","4"
"2399.100000023842","","","","","3","html-slider-response","405","","","","5",""
"748","","","","","3","html-keyboard-response","406","","","","",""
"5906","window","kweli,nanga,kujenga,umaga","kweli","f","3","html-keyboard-response","407","n","umaga","false","","4"
"2200.199999988079","","","","","3","html-slider-response","408","","","","2",""
"836","","","","","3","html-keyboard-response","409","","","","",""
"2929","woman","pagtabon,bandari,bituin,kovuli","pagtabon","f","3","html-keyboard-response","410","f","pagtabon","true","","1"
"2117.5","","","","","3","html-slider-response","411","","","","5",""
"491","","","","","3","html-keyboard-response","412","","","","",""
"6289","giraffe","daraja,mahitabo,jumatu,hangyo","mahitabo","v","3","html-keyboard-response","413","v","mahitabo","true","","4"
"2026.7999999523163","","","","","3","html-slider-response","414","","","","4",""
"938","","","","","3","html-keyboard-response","415","","","","",""
"2942","elephant","petye,pagduol,kito,suka","kito","j","3","html-keyboard-response","416","v","pagduol","false","","4"
"1879.9000000357628","","","","","3","html-slider-response","417","","","","4",""
"781","","","","","3","html-keyboard-response","418","","","","",""
"8434","cave","ganti,maisha,nyundo,kesho","kesho","n","3","html-keyboard-response","419","n","kesho","true","","4"
"2525.100000023842","","","","","3","html-slider-response","420","","","","4",""
"966","","","","","3","html-keyboard-response","421","","","","",""
"3899","bread","kaili,dizeli,dari,bugas","dari","j","3","html-keyboard-response","422","j","dari","true","","4"
"1951.4000000357628","","","","","3","html-slider-response","423","","","","5",""
"512","","","","","3","html-keyboard-response","424","","","","",""
"3697","stone","wingi,ulimwengu,mkasi,asili","wingi","f","3","html-keyboard-response","425","j","mkasi","false","","4"
"2160","","","","","3","html-slider-response","426","","","","5",""
"4447","","","","","3","html-keyboard-response","427","","","","",""
"5591","donkey","elfu,bloke,lalake,rombus","elfu","f","3","html-keyboard-response","428","f","elfu","true","","4"
"1790.4000000357628","","","","","3","html-slider-response","429","","","","5",""
"495","","","","","3","html-keyboard-response","430","","","","",""
"2385","bridge","daima,sahani,ngono,panya","sahani","v","3","html-keyboard-response","431","f","daima","false","","4"
"2278.5","","","","","3","html-slider-response","432","","","","4",""
"986","","","","","3","html-keyboard-response","433","","","","",""
"9374","bonfire","goti,mwezi,mfuko,kusanya","goti","f","3","html-keyboard-response","434","j","mfuko","false","","4"
"2083","","","","","3","html-slider-response","435","","","","4",""
"856","","","","","3","html-keyboard-response","436","","","","",""
"3924","book","kuhesa,picha,mali,mara","mali","j","3","html-keyboard-response","437","j","mali","true","","4"
"4125.199999988079","","","","","3","html-slider-response","438","","","","5",""
"715","","","","","3","html-keyboard-response","439","","","","",""
"3737","fish","bala,buli,baho,imani","buli","v","3","html-keyboard-response","440","v","buli","true","","4"
"1847.5","","","","","3","html-slider-response","441","","","","4",""
"688","","","","","3","html-keyboard-response","442","","","","",""
"3087","spoon","betri,nzuri,ngazi,pagsulod","pagsulod","n","3","html-keyboard-response","443","n","pagsulod","true","","4"
"1834.6000000238419","","","","","3","html-slider-response","444","","","","4",""
"567","","","","","3","html-keyboard-response","445","","","","",""
"3710","scissors","duga,tanuri,mtawa,suga","tanuri","v","3","html-keyboard-response","446","v","tanuri","true","","4"
"1755.5999999642372","","","","","3","html-slider-response","447","","","","4",""
"735","","","","","3","html-keyboard-response","448","","","","",""
"3990","page","wakala,wimbo,ishiri,skina","wimbo","v","3","html-keyboard-response","449","j","ishiri","false","","4"
"3090.699999988079","","","","","3","html-slider-response","450","","","","3",""
"804","","","","","3","html-keyboard-response","451","","","","",""
"1948","nose","sehemu,gubat,kopa,kidole","sehemu","f","3","html-keyboard-response","452","f","sehemu","true","","1"
"1930.7999999523163","","","","","3","html-slider-response","453","","","","5",""
"573","","","","","3","html-keyboard-response","454","","","","",""
"3826","ceiling","kugita,kawaida,maua,rayna","maua","j","3","html-keyboard-response","455","f","kugita","false","","4"
"1595.2000000476837","","","","","3","html-slider-response","456","","","","4",""
"1026","","","","","3","html-keyboard-response","457","","","","",""
"43654","bucket","baga,kiatu,ijayo,init","kiatu","v","3","html-keyboard-response","458","n","init","false","","4"
"2485.2999999523163","","","","","3","html-slider-response","459","","","","4",""
"769","","","","","3","html-keyboard-response","460","","","","",""
"1768","berry","abogado,kofia,nogozi,kinywa","kofia","v","3","html-keyboard-response","461","v","kofia","true","","1"
"1964","","","","","3","html-slider-response","462","","","","5",""
"703","","","","","3","html-keyboard-response","463","","","","",""
"1734","mother","kahawa,mbuzi,babaye,jokofu","babaye","j","3","html-keyboard-response","464","j","babaye","true","","1"
"2979.899999976158","","","","","3","html-slider-response","465","","","","5",""
"448","","","","","3","html-keyboard-response","466","","","","",""
"2098","mosquito","isda,taras,martilyo,gutom","martilyo","j","3","html-keyboard-response","467","j","martilyo","true","","4"
"1784.1000000238419","","","","","3","html-slider-response","468","","","","5",""
"463","","","","","3","html-keyboard-response","469","","","","",""
"4171","perfume","bino,sungura,katuyoan,ndogo","katuyoan","j","3","html-keyboard-response","470","v","sungura","false","","4"
"2445.199999988079","","","","","3","html-slider-response","471","","","","4",""
"1110","","","","","3","html-keyboard-response","472","","","","",""
"5228","sheet","juuya,watu,bililhon,kamantis","bililhon","j","3","html-keyboard-response","473","f","juuya","false","","4"
"1681.699999988079","","","","","3","html-slider-response","474","","","","4",""
"804","","","","","3","html-keyboard-response","475","","","","",""
"1466","puppet","napulo,lamok,mazishi,godoro","mazishi","j","3","html-keyboard-response","476","j","mazishi","true","","1"
"2655.199999988079","","","","","3","html-slider-response","477","","","","5",""
"365","","","","","3","html-keyboard-response","478","","","","",""
"4227","poster","nchi,madungog,fedha,kasuko","madungog","v","3","html-keyboard-response","479","n","kasuko","false","","4"
"2455.300000011921","","","","","3","html-slider-response","480","","","","3",""
"832","","","","","3","html-keyboard-response","481","","","","",""
"4250","music","baiski,mraba,mageho,tumbo","baiski","f","3","html-keyboard-response","482","n","tumbo","false","","4"
"2349.300000011921","","","","","3","html-slider-response","483","","","","3",""
"769","","","","","3","html-keyboard-response","484","","","","",""
"4834","key","miaka,goma,chombo,ahos","chombo","j","3","html-keyboard-response","485","j","chombo","true","","4"
"1667.800000011921","","","","","3","html-slider-response","486","","","","4",""
"608","","","","","3","html-keyboard-response","487","","","","",""
"4610","sock","ndoora,kimysa,mamba,mtirka","mamba","j","3","html-keyboard-response","488","v","kimysa","false","","4"
"2297","","","","","3","html-slider-response","489","","","","4",""
"762","","","","","3","html-keyboard-response","490","","","","",""
"7003","marker","maji,mapafu,salita,atay","maji","f","3","html-keyboard-response","491","v","mapafu","false","","4"
"2160.899999976158","","","","","3","html-slider-response","492","","","","4",""
"933","","","","","3","html-keyboard-response","493","","","","",""
"3323","office","hazini,yatima,leso,kuna","leso","j","3","html-keyboard-response","494","j","leso","true","","4"
"1889.5999999642372","","","","","3","html-slider-response","495","","","","5",""
"570","","","","","3","html-keyboard-response","496","","","","",""
"3428","shoe","nyeusi,hatua,kama,uyoga","uyoga","n","3","html-keyboard-response","497","n","uyoga","true","","4"
"2045.5","","","","","3","html-slider-response","498","","","","4",""
"467","","","","","3","html-keyboard-response","499","","","","",""
"2372","cop","mechezo,bustani,jikoni,bakus","mechezo","f","3","html-keyboard-response","500","f","mechezo","true","","4"
"2607.900000035763","","","","","3","html-slider-response","501","","","","5",""
"446","","","","","3","html-keyboard-response","502","","","","",""
"3728","bank","kudhibi,tualya,ofisi,silingan","silingan","n","3","html-keyboard-response","503","j","ofisi","false","","4"
"2866.899999976158","","","","","3","html-slider-response","504","","","","4",""
"751","","","","","3","html-keyboard-response","505","","","","",""
"1286","letter","filimbi,chuma,uhuru,kifua","kifua","n","3","html-keyboard-response","506","n","kifua","true","","1"
"2309.599999964237","","","","","3","html-slider-response","507","","","","5",""
"274","","","","","3","html-keyboard-response","508","","","","",""
"1563","dog","lubi,bahari,washia,kalamu","bahari","v","3","html-keyboard-response","509","v","bahari","true","","1"
"1872.6000000238419","","","","","3","html-slider-response","510","","","","5",""
"357","","","","","3","html-keyboard-response","511","","","","",""
"6446","shop","nopya,kerida,samaki,ndezu","samaki","j","3","html-keyboard-response","512","n","ndezu","false","","4"
"3430.800000011921","","","","","3","html-slider-response","513","","","","4",""
"829","","","","","3","html-keyboard-response","514","","","","",""
"5939","flower","tamasha,lobo,bega,usiku","bega","j","3","html-keyboard-response","515","v","lobo","false","","4"
"2333","","","","","3","html-slider-response","516","","","","4",""
"516","","","","","3","html-keyboard-response","517","","","","",""
"1811","cigar","adhabu,ndugu,kuta,mlango","adhabu","f","3","html-keyboard-response","518","f","adhabu","true","","1"
"2483.400000035763","","","","","3","html-slider-response","519","","","","5",""
"337","","","","","3","html-keyboard-response","520","","","","",""
"5292","hammer","mekno,kitovu,napakyas,layag","napakyas","j","3","html-keyboard-response","521","n","layag","false","","4"
"1782.699999988079","","","","","3","html-slider-response","522","","","","4",""
"600","","","","","3","html-keyboard-response","523","","","","",""
"8170","fork","mgonjwa,baboy,paghago,gorisi","mgonjwa","f","3","html-keyboard-response","524","j","paghago","false","","4"
"1955.5","","","","","3","html-slider-response","525","","","","4",""
"926","","","","","3","html-keyboard-response","526","","","","",""
"1644","sun","bendi,luha,uongo,basi","basi","n","3","html-keyboard-response","527","n","basi","true","","1"
"1878.699999988079","","","","","3","html-slider-response","528","","","","5",""
"356","","","","","3","html-keyboard-response","529","","","","",""
"4416","ladder","mashua,pangalan,mwanga,kamba","pangalan","v","3","html-keyboard-response","530","v","pangalan","true","","4"
"1783.5","","","","","3","html-slider-response","531","","","","4",""
"545","","","","","3","html-keyboard-response","532","","","","",""
"1190","banana","kasamok,kazi,hagdan,twai","kazi","v","3","html-keyboard-response","533","v","kazi","true","","1"
"1680.300000011921","","","","","3","html-slider-response","534","","","","5",""
"337","","","","","3","html-keyboard-response","535","","","","",""
"4089","pudding","aibu,abug,mpishi,iring","aibu","f","3","html-keyboard-response","536","f","aibu","true","","4"
"1876.800000011921","","","","","3","html-slider-response","537","","","","4",""
"572","","","","","3","html-keyboard-response","538","","","","",""
"4412","body","nyundu,jibini,kununa,tindashan","tindashan","n","3","html-keyboard-response","539","j","kununa","false","","4"
"1810.5","","","","","3","html-slider-response","540","","","","4",""
"929","","","","","3","html-keyboard-response","541","","","","",""
"26744","bed","mapintas,kalipay,haraka,starehe","mapintas","f","3","html-keyboard-response","542","f","mapintas","true","","4"
"2090.199999988079","","","","","3","html-slider-response","543","","","","4",""
"734","","","","","3","html-keyboard-response","544","","","","",""
"4646","tissue","lamigas,kisiwa,ugomvi,katika","ugomvi","j","3","html-keyboard-response","545","v","kisiwa","false","","4"
"1815","","","","","3","html-slider-response","546","","","","4",""
"968","","","","","3","html-keyboard-response","547","","","","",""
"4286","candle","geza,gabi,farasi,kupanda","geza","f","3","html-keyboard-response","548","v","gabi","false","","4"
"1788","","","","","3","html-slider-response","549","","","","4",""
"734","","","","","3","html-keyboard-response","550","","","","",""
"1522","tomato","mvua,chupi,chupa,takatak","mvua","f","3","html-keyboard-response","551","f","mvua","true","","1"
"1888.1000000238419","","","","","3","html-slider-response","552","","","","5",""
"462","","","","","3","html-keyboard-response","553","","","","",""
"3660","list","alizeti,wingu,kuzama,kaso","wingu","v","3","html-keyboard-response","554","n","kaso","false","","4"
"1769.800000011921","","","","","3","html-slider-response","555","","","","4",""
"744","","","","","3","html-keyboard-response","556","","","","",""
"5546","olive","bata,siagi,jiwe,welder","jiwe","j","3","html-keyboard-response","557","f","bata","false","","4"
"4004.899999976158","","","","","3","html-slider-response","558","","","","3",""
"648","","","","","3","html-keyboard-response","559","","","","",""
"1204","picture","silya,chaki,asin,kubwa","kubwa","n","3","html-keyboard-response","560","n","kubwa","true","","1"
"2060.5","","","","","3","html-slider-response","561","","","","5",""
"305","","","","","3","html-keyboard-response","562","","","","",""
"7681","page","wakala,ishiri,wimbo,skina","wimbo","j","4","html-keyboard-response","888","j","wimbo","true","",""
"2799.199999988079","","","","","4","html-slider-response","889","","","","2",""
"4748","sheet","juuya,bililhon,watu,kamantis","bililhon","v","4","html-keyboard-response","890","j","watu","false","",""
"2451.399999976158","","","","","4","html-slider-response","891","","","","4",""
"4379","ladder","mashua,pangalan,mwanga,kamba","pangalan","v","4","html-keyboard-response","892","f","mashua","false","",""
"1914.5999999642372","","","","","4","html-slider-response","893","","","","4",""
"3690","door","tena,surali,soko,nyota","surali","v","4","html-keyboard-response","894","v","surali","true","",""
"2224.100000023842","","","","","4","html-slider-response","895","","","","4",""
"8243","spider","bunyag,mkboa,kamwe,atop","kamwe","j","4","html-keyboard-response","896","v","mkboa","false","",""
"1931","","","","","4","html-slider-response","897","","","","4",""
"3561","picture","silya,chaki,kubwa,asin","kubwa","j","4","html-keyboard-response","898","f","silya","false","",""
"3038.100000023842","","","","","4","html-slider-response","899","","","","3",""
"41633","boat","hamsi,agalon,pombe,kitanda","agalon","v","4","html-keyboard-response","900","f","hamsi","false","",""
"1704.699999988079","","","","","4","html-slider-response","901","","","","4",""
"3373","donkey","bloke,lalake,elfu,rombus","elfu","j","4","html-keyboard-response","902","j","elfu","true","",""
"2245.699999988079","","","","","4","html-slider-response","903","","","","5",""
"3116","book","kuhesa,picha,mara,mali","mali","n","4","html-keyboard-response","904","n","mali","true","",""
"2108.599999964237","","","","","4","html-slider-response","905","","","","5",""
"3861","cup","matumai,dagat,shimoni,jeraha","matumai","f","4","html-keyboard-response","906","f","matumai","true","",""
"2183.800000011921","","","","","4","html-slider-response","907","","","","5",""
"5901","sun","basi,bendi,luha,uongo","basi","f","4","html-keyboard-response","908","f","basi","true","",""
"2977.699999988079","","","","","4","html-slider-response","909","","","","5",""
"6504","pudding","abug,aibu,mpishi,iring","aibu","v","4","html-keyboard-response","910","v","aibu","true","",""
"1871","","","","","4","html-slider-response","911","","","","4",""
"4797","human","bado,kikapu,tinapay,punguza","tinapay","j","4","html-keyboard-response","912","j","tinapay","true","",""
"1767.1000000238419","","","","","4","html-slider-response","913","","","","4",""
"5415","squirrel","hofu,mahugaw,ukweli,kichwa","hofu","f","4","html-keyboard-response","914","n","kichwa","false","",""
"1697.5999999642372","","","","","4","html-slider-response","915","","","","4",""
"4989","park","tambok,pwani,bunifu,ihalas","bunifu","j","4","html-keyboard-response","916","v","pwani","false","",""
"2804.600000023842","","","","","4","html-slider-response","917","","","","3",""
"3893","poster","nchi,madungog,fedha,kasuko","madungog","v","4","html-keyboard-response","918","v","madungog","true","",""
"1780.6000000238419","","","","","4","html-slider-response","919","","","","4",""
"2736","wolf","kaburi,ndizi,mchuzi,lugha","lugha","n","4","html-keyboard-response","920","n","lugha","true","",""
"1946.800000011921","","","","","4","html-slider-response","921","","","","5",""
"5328","cat","neyemba,paghukom,baki,akili","paghukom","v","4","html-keyboard-response","922","j","baki","false","",""
"1837.5999999642372","","","","","4","html-slider-response","923","","","","2",""
"20351","fish","buli,bala,baho,imani","buli","f","4","html-keyboard-response","924","f","buli","true","",""
"2304.100000023842","","","","","4","html-slider-response","925","","","","4",""
"6835","tooth","kabalaka,kijiko,uadui,pahiyum","kabalaka","f","4","html-keyboard-response","926","v","kijiko","false","",""
"3128","","","","","4","html-slider-response","927","","","","3",""
"14835","cave","ganti,maisha,kesho,nyundo","kesho","j","4","html-keyboard-response","928","f","ganti","false","",""
"1692","","","","","4","html-slider-response","929","","","","2",""
"8691","lamp","daub,bilaska,mbolea,afya","afya","n","4","html-keyboard-response","930","j","mbolea","false","",""
"2972.5","","","","","4","html-slider-response","931","","","","3",""
"3789","banana","kazi,kasamok,hagdan,twai","kazi","f","4","html-keyboard-response","932","j","hagdan","false","",""
"1766.199999988079","","","","","4","html-slider-response","933","","","","4",""
"2821","bonfire","mwezi,goti,mfuko,kusanya","goti","v","4","html-keyboard-response","934","v","goti","true","",""
"3129","","","","","4","html-slider-response","935","","","","5",""
"2403","cop","bustani,jikoni,bakus,mechezo","mechezo","n","4","html-keyboard-response","936","n","mechezo","true","",""
"1967.5","","","","","4","html-slider-response","937","","","","5",""
"5185","marker","mapafu,maji,salita,atay","maji","v","4","html-keyboard-response","938","v","maji","true","",""
"2497.199999988079","","","","","4","html-slider-response","939","","","","5",""
"3484","window","nanga,kujenga,umaga,kweli","kweli","n","4","html-keyboard-response","940","n","kweli","true","",""
"2041.4000000357628","","","","","4","html-slider-response","941","","","","4",""
"7678","body","nyundu,tindashan,jibini,kununa","tindashan","v","4","html-keyboard-response","942","v","tindashan","true","",""
"1750.199999988079","","","","","4","html-slider-response","943","","","","4",""
"9641","apple","kisu,ukame,estante,edad","kisu","f","4","html-keyboard-response","944","f","kisu","true","",""
"2198.5","","","","","4","html-slider-response","945","","","","4",""
"4165","salmon","mzungu,seri,sensilyo,baharia","sensilyo","j","4","html-keyboard-response","946","v","seri","false","",""
"1827.5","","","","","4","html-slider-response","947","","","","5",""
"3666","bed","kalipay,haraka,mapintas,starehe","mapintas","j","4","html-keyboard-response","948","j","mapintas","true","",""
"2383.899999976158","","","","","4","html-slider-response","949","","","","3",""
"2135","berry","abogado,nogozi,kofia,kinywa","kofia","j","4","html-keyboard-response","950","j","kofia","true","",""
"1924.1000000238419","","","","","4","html-slider-response","951","","","","5",""
"10694","mirror","rangi,sulagma,kanding,furaha","sulagma","v","4","html-keyboard-response","952","v","sulagma","true","",""
"1727.4000000357628","","","","","4","html-slider-response","953","","","","2",""
"4311","flag","ndege,mkate,kawa,trekta","trekta","n","4","html-keyboard-response","954","n","trekta","true","",""
"2465.399999976158","","","","","4","html-slider-response","955","","","","5",""
"6023","shoulder","mkuu,kelele,ndaniya,guruwe","mkuu","f","4","html-keyboard-response","956","j","ndaniya","false","",""
"1801.6000000238419","","","","","4","html-slider-response","957","","","","4",""
"4834","tissue","lamigas,kisiwa,katika,ugomvi","ugomvi","n","4","html-keyboard-response","958","f","lamigas","false","",""
"1741.2000000476837","","","","","4","html-slider-response","959","","","","4",""
"4408","notebook","msitu,kila,mdudu,kemia","kemia","n","4","html-keyboard-response","960","v","kila","false","",""
"2300.399999976158","","","","","4","html-slider-response","961","","","","3",""
"6133","snake","jansa,pagtukod,karon,mvringo","pagtukod","v","4","html-keyboard-response","962","v","pagtukod","true","",""
"2002","","","","","4","html-slider-response","963","","","","4",""
"1749","finger","moyo,simu,sufuria,lima","moyo","f","4","html-keyboard-response","964","f","moyo","true","",""
"1888.4000000357628","","","","","4","html-slider-response","965","","","","5",""
"3355","basket","kumbuka,utepe,kumba,hasira","kumba","j","4","html-keyboard-response","966","n","hasira","false","",""
"1690.699999988079","","","","","4","html-slider-response","967","","","","2",""
"6152","curtain","mchanga,lisud,bulwawan,chubani","mchanga","f","4","html-keyboard-response","968","f","mchanga","true","",""
"2778.800000011921","","","","","4","html-slider-response","969","","","","3",""
"3968","perfume","bino,sungura,katuyoan,ndogo","katuyoan","j","4","html-keyboard-response","970","v","sungura","false","",""
"2751.5","","","","","4","html-slider-response","971","","","","4",""
"3639","key","miaka,goma,chombo,ahos","chombo","j","4","html-keyboard-response","972","j","chombo","true","",""
"1764.5","","","","","4","html-slider-response","973","","","","4",""
"6144","olive","bata,siagi,welder,jiwe","jiwe","n","4","html-keyboard-response","974","n","jiwe","true","",""
"2028.300000011921","","","","","4","html-slider-response","975","","","","5",""
"10738","rose","singizi,paghalad,mwanake,amani","paghalad","v","4","html-keyboard-response","976","v","paghalad","true","",""
"1910","","","","","4","html-slider-response","977","","","","5",""
"3718","bridge","sahani,daima,ngono,panya","sahani","f","4","html-keyboard-response","978","v","daima","false","",""
"1645.5999999642372","","","","","4","html-slider-response","979","","","","4",""
"2239","hill","kushoto,kukimba,matumbo,sweta","matumbo","j","4","html-keyboard-response","980","j","matumbo","true","",""
"1868.300000011921","","","","","4","html-slider-response","981","","","","5",""
"4905","letter","kifua,filimbi,chuma,uhuru","kifua","f","4","html-keyboard-response","982","j","chuma","false","",""
"1826.9000000357628","","","","","4","html-slider-response","983","","","","4",""
"2406","sock","ndoora,kimysa,mamba,mtirka","mamba","j","4","html-keyboard-response","984","j","mamba","true","",""
"2075.199999988079","","","","","4","html-slider-response","985","","","","5",""
"8928","fork","mgonjwa,baboy,paghago,gorisi","mgonjwa","f","4","html-keyboard-response","986","f","mgonjwa","true","",""
"1949.800000011921","","","","","4","html-slider-response","987","","","","4",""
"4828","box","adui,kuacha,rafiki,kitande","adui","f","4","html-keyboard-response","988","v","kuacha","false","",""
"2366.800000011921","","","","","4","html-slider-response","989","","","","3",""
"2277","gift","baba,pagtawag,nyange,baso","pagtawag","v","4","html-keyboard-response","990","v","pagtawag","true","",""
"3387.300000011921","","","","","4","html-slider-response","991","","","","4",""
"5266","bucket","kiatu,baga,ijayo,init","kiatu","f","4","html-keyboard-response","992","f","kiatu","true","",""
"2147.899999976158","","","","","4","html-slider-response","993","","","","2",""
"4218","shop","samaki,nopya,kerida,ndezu","samaki","f","4","html-keyboard-response","994","f","samaki","true","",""
"2924.300000011921","","","","","4","html-slider-response","995","","","","3",""
"2428","puppet","mazishi,napulo,lamok,godoro","mazishi","f","4","html-keyboard-response","996","f","mazishi","true","",""
"2258.900000035763","","","","","4","html-slider-response","997","","","","5",""
"3581","nose","gubat,kopa,kidole,sehemu","sehemu","n","4","html-keyboard-response","998","v","kopa","false","",""
"2000.699999988079","","","","","4","html-slider-response","999","","","","2",""
"4872","music","baiski,mraba,mageho,tumbo","baiski","f","4","html-keyboard-response","1000","j","mageho","false","",""
"2102.800000011921","","","","","4","html-slider-response","1001","","","","4",""
"4816","dog","lubi,bahari,washia,kalamu","bahari","v","4","html-keyboard-response","1002","j","washia","false","",""
"2023.5999999642372","","","","","4","html-slider-response","1003","","","","4",""
"3567","eel","msumari,ishara,kunywa,kabuang","msumari","f","4","html-keyboard-response","1004","n","kabuang","false","",""
"1844.6000000238419","","","","","4","html-slider-response","1005","","","","2",""
"3579","number","shule,kengele,choori,mundamo","mundamo","n","4","html-keyboard-response","1006","n","mundamo","true","",""
"2444.100000023842","","","","","4","html-slider-response","1007","","","","3",""
"6771","tomato","chupi,chupa,mvua,takatak","mvua","j","4","html-keyboard-response","1008","v","chupa","false","",""
"2023.0999999642372","","","","","4","html-slider-response","1009","","","","2",""
"4522","coffin","barua,tubag,hulma,kioo","kioo","n","4","html-keyboard-response","1010","v","tubag","false","",""
"1744","","","","","4","html-slider-response","1011","","","","4",""
"8280","knee","mvuke,duka,kubale,bili","duka","v","4","html-keyboard-response","1012","v","duka","true","",""
"2643.199999988079","","","","","4","html-slider-response","1013","","","","3",""
"5221","woman","bandari,bituin,kovuli,pagtabon","pagtabon","n","4","html-keyboard-response","1014","n","pagtabon","true","",""
"1674.5","","","","","4","html-slider-response","1015","","","","4",""
"3036","stone","ulimwengu,mkasi,wingi,asili","wingi","j","4","html-keyboard-response","1016","j","wingi","true","",""
"1755.699999988079","","","","","4","html-slider-response","1017","","","","4",""
"3219","bread","kaili,dizeli,dari,bugas","dari","j","4","html-keyboard-response","1018","j","dari","true","",""
"1701","","","","","4","html-slider-response","1019","","","","5",""
"7383","triangle","kihozi,bentaha,liog,kasadpan","kasadpan","n","4","html-keyboard-response","1020","n","kasadpan","true","",""
"1629.800000011921","","","","","4","html-slider-response","1021","","","","4",""
"4669","scissors","duga,mtawa,suga,tanuri","tanuri","n","4","html-keyboard-response","1022","n","tanuri","true","",""
"2335.7999999523163","","","","","4","html-slider-response","1023","","","","3",""
"4414","giraffe","mahitabo,daraja,jumatu,hangyo","mahitabo","f","4","html-keyboard-response","1024","f","mahitabo","true","",""
"2829.7999999523163","","","","","4","html-slider-response","1025","","","","3",""
"4717","flower","bega,tamasha,lobo,usiku","bega","f","4","html-keyboard-response","1026","v","tamasha","false","",""
"1642.8999999761581","","","","","4","html-slider-response","1027","","","","4",""
"3475","candle","geza,gabi,farasi,kupanda","geza","f","4","html-keyboard-response","1028","v","gabi","false","",""
"1673.199999988079","","","","","4","html-slider-response","1029","","","","2",""
"4045","mother","kahawa,mbuzi,babaye,jokofu","babaye","j","4","html-keyboard-response","1030","j","babaye","true","",""
"2165.800000011921","","","","","4","html-slider-response","1031","","","","3",""
"4295","towel","pagpalit,tembo,funzi,pito","pagpalit","f","4","html-keyboard-response","1032","j","funzi","false","",""
"2822.199999988079","","","","","4","html-slider-response","1033","","","","3",""
"4287","elephant","petye,pagduol,suka,kito","kito","n","4","html-keyboard-response","1034","v","pagduol","false","",""
"1864","","","","","4","html-slider-response","1035","","","","4",""
"3698","shelf","pamahaw,bungtod,kadaot,awit","pamahaw","f","4","html-keyboard-response","1036","f","pamahaw","true","",""
"1841.300000011921","","","","","4","html-slider-response","1037","","","","5",""
"1935","mosquito","martilyo,isda,taras,gutom","martilyo","f","4","html-keyboard-response","1038","f","martilyo","true","",""
"1753.9000000357628","","","","","4","html-slider-response","1039","","","","5",""
"4141","column","pundok,ufagio,dila,pala","ufagio","v","4","html-keyboard-response","1040","f","pundok","false","",""
"1741.800000011921","","","","","4","html-slider-response","1041","","","","4",""
"20091","pants","pintal,haki,chuki,hari","haki","v","4","html-keyboard-response","1042","n","hari","false","",""
"2920.899999976158","","","","","4","html-slider-response","1043","","","","2",""
"5964","list","alizeti,kuzama,kaso,wingu","wingu","n","4","html-keyboard-response","1044","n","wingu","true","",""
"1715.5","","","","","4","html-slider-response","1045","","","","4",""
"4118","bank","kudhibi,silingan,tualya,ofisi","silingan","v","4","html-keyboard-response","1046","v","silingan","true","",""
"2510.199999988079","","","","","4","html-slider-response","1047","","","","4",""
"3882","clock","mbwa,kartasi,abang,osha","mbwa","f","4","html-keyboard-response","1048","j","abang","false","",""
"2034.800000011921","","","","","4","html-slider-response","1049","","","","4",""
"5883","ceiling","kugita,kawaida,maua,rayna","maua","j","4","html-keyboard-response","1050","j","maua","true","",""
"1708.6000000238419","","","","","4","html-slider-response","1051","","","","2",""
"11055","train","sayari,itik,dakika,mungu","sayari","f","4","html-keyboard-response","1052","f","sayari","true","",""
"2295.099999964237","","","","","4","html-slider-response","1053","","","","4",""
"4833","magazine","gundi,mchawi,kiti,bahandi","kiti","j","4","html-keyboard-response","1054","f","gundi","false","",""
"2496.099999964237","","","","","4","html-slider-response","1055","","","","3",""
"4581","office","hazini,yatima,kuna,leso","leso","n","4","html-keyboard-response","1056","n","leso","true","",""
"2230.199999988079","","","","","4","html-slider-response","1057","","","","5",""
"5952","wheel","punda,bafuni,tawo,baadaye","bafuni","v","4","html-keyboard-response","1058","j","tawo","false","",""
"1784.1000000238419","","","","","4","html-slider-response","1059","","","","4",""
"3099","spoon","pagsulod,betri,nzuri,ngazi","pagsulod","f","4","html-keyboard-response","1060","f","pagsulod","true","",""
"1755.3999999761581","","","","","4","html-slider-response","1061","","","","5",""
"2724","hammer","mekno,napakyas,kitovu,layag","napakyas","v","4","html-keyboard-response","1062","n","layag","false","",""
"1624.5","","","","","4","html-slider-response","1063","","","","4",""
"3931","cigar","ndugu,adhabu,kuta,mlango","adhabu","v","4","html-keyboard-response","1064","n","mlango","false","",""
"1739.5999999642372","","","","","4","html-slider-response","1065","","","","2",""
"3273","shoe","nyeusi,hatua,kama,uyoga","uyoga","n","4","html-keyboard-response","1066","n","uyoga","true","",""
"2428.800000011921","","","","","4","html-slider-response","1067","","","","5",""
"6194","list","alizeti,kuzama,kaso,wingu","wingu","n","5","html-keyboard-response","1069","n","wingu","true","",""
"1628","","","","","5","html-slider-response","1070","","","","4",""
"14347","number","shule,mundamo,kengele,choori","mundamo","v","5","html-keyboard-response","1071","v","mundamo","true","",""
"1952.9000000357628","","","","","5","html-slider-response","1072","","","","4",""
"3942","apple","ukame,estante,kisu,edad","kisu","j","5","html-keyboard-response","1073","j","kisu","true","",""
"3103.599999964237","","","","","5","html-slider-response","1074","","","","3",""
"7685","knee","mvuke,kubale,bili,duka","duka","n","5","html-keyboard-response","1075","n","duka","true","",""
"1565.8999999761581","","","","","5","html-slider-response","1076","","","","2",""
"3939","tooth","kabalaka,kijiko,uadui,pahiyum","kabalaka","f","5","html-keyboard-response","1077","v","kijiko","false","",""
"1624.9000000357628","","","","","5","html-slider-response","1078","","","","4",""
"2286","berry","kofia,abogado,nogozi,kinywa","kofia","f","5","html-keyboard-response","1079","f","kofia","true","",""
"2021.4000000357628","","","","","5","html-slider-response","1080","","","","5",""
"1579","bridge","daima,sahani,ngono,panya","sahani","v","5","html-keyboard-response","1081","f","daima","false","",""
"2177.300000011921","","","","","5","html-slider-response","1082","","","","5",""
"2170","perfume","katuyoan,bino,sungura,ndogo","katuyoan","f","5","html-keyboard-response","1083","j","sungura","false","",""
"1811.199999988079","","","","","5","html-slider-response","1084","","","","4",""
"4387","ladder","mashua,pangalan,mwanga,kamba","pangalan","v","5","html-keyboard-response","1085","v","pangalan","true","",""
"2055","","","","","5","html-slider-response","1086","","","","2",""
"3176","pants","pintal,chuki,hari,haki","haki","n","5","html-keyboard-response","1087","n","haki","true","",""
"1651.300000011921","","","","","5","html-slider-response","1088","","","","4",""
"7369","salmon","mzungu,seri,baharia,sensilyo","sensilyo","n","5","html-keyboard-response","1089","n","sensilyo","true","",""
"1612.800000011921","","","","","5","html-slider-response","1090","","","","4",""
"2474","coffin","barua,tubag,hulma,kioo","kioo","n","5","html-keyboard-response","1091","v","tubag","false","",""
"1713.800000011921","","","","","5","html-slider-response","1092","","","","5",""
"4080","park","tambok,pwani,ihalas,bunifu","bunifu","n","5","html-keyboard-response","1093","f","tambok","false","",""
"1959.5999999642372","","","","","5","html-slider-response","1094","","","","4",""
"10544","giraffe","daraja,jumatu,mahitabo,hangyo","mahitabo","j","5","html-keyboard-response","1095","f","daraja","false","",""
"1682","","","","","5","html-slider-response","1096","","","","4",""
"4528","mirror","sulagma,rangi,kanding,furaha","sulagma","f","5","html-keyboard-response","1097","n","furaha","false","",""
"2419.099999964237","","","","","5","html-slider-response","1098","","","","2",""
"4647","ceiling","kugita,kawaida,maua,rayna","maua","j","5","html-keyboard-response","1099","j","maua","true","",""
"4060.800000011921","","","","","5","html-slider-response","1100","","","","3",""
"3416","marker","maji,mapafu,salita,atay","maji","f","5","html-keyboard-response","1101","f","maji","true","",""
"1854.8999999761581","","","","","5","html-slider-response","1102","","","","5",""
"2008","sock","mamba,ndoora,kimysa,mtirka","mamba","f","5","html-keyboard-response","1103","f","mamba","true","",""
"1750.2999999523163","","","","","5","html-slider-response","1104","","","","5",""
"1998","cop","bustani,jikoni,bakus,mechezo","mechezo","n","5","html-keyboard-response","1105","n","mechezo","true","",""
"1671.9000000357628","","","","","5","html-slider-response","1106","","","","5",""
"2665","gift","baba,nyange,baso,pagtawag","pagtawag","n","5","html-keyboard-response","1107","n","pagtawag","true","",""
"1808.0999999642372","","","","","5","html-slider-response","1108","","","","4",""
"3088","notebook","msitu,kila,mdudu,kemia","kemia","n","5","html-keyboard-response","1109","v","kila","false","",""
"2917.300000011921","","","","","5","html-slider-response","1110","","","","3",""
"12026","bank","silingan,kudhibi,tualya,ofisi","silingan","f","5","html-keyboard-response","1111","f","silingan","true","",""
"1542.800000011921","","","","","5","html-slider-response","1112","","","","4",""
"7230","letter","kifua,filimbi,chuma,uhuru","kifua","f","5","html-keyboard-response","1113","j","chuma","false","",""
"2955.5","","","","","5","html-slider-response","1114","","","","2",""
"3705","candle","gabi,farasi,geza,kupanda","geza","j","5","html-keyboard-response","1115","j","geza","true","",""
"2511.199999988079","","","","","5","html-slider-response","1116","","","","4",""
"2628","bread","kaili,dizeli,dari,bugas","dari","j","5","html-keyboard-response","1117","j","dari","true","",""
"1605.5","","","","","5","html-slider-response","1118","","","","5",""
"3990","snake","jansa,pagtukod,karon,mvringo","pagtukod","v","5","html-keyboard-response","1119","v","pagtukod","true","",""
"1612.5999999642372","","","","","5","html-slider-response","1120","","","","4",""
"4007","rose","singizi,mwanake,amani,paghalad","paghalad","n","5","html-keyboard-response","1121","n","paghalad","true","",""
"1727.8999999761581","","","","","5","html-slider-response","1122","","","","4",""
"2320","hill","kushoto,kukimba,sweta,matumbo","matumbo","n","5","html-keyboard-response","1123","n","matumbo","true","",""
"2280.600000023842","","","","","5","html-slider-response","1124","","","","5",""
"2270","train","itik,dakika,mungu,sayari","sayari","n","5","html-keyboard-response","1125","n","sayari","true","",""
"1617.2999999523163","","","","","5","html-slider-response","1126","","","","4",""
"5716","shop","nopya,samaki,kerida,ndezu","samaki","v","5","html-keyboard-response","1127","f","nopya","false","",""
"2851.199999988079","","","","","5","html-slider-response","1128","","","","3",""
"5023","nose","gubat,kopa,kidole,sehemu","sehemu","n","5","html-keyboard-response","1129","f","gubat","false","",""
"1573.800000011921","","","","","5","html-slider-response","1130","","","","2",""
"7171","boat","hamsi,pombe,kitanda,agalon","agalon","n","5","html-keyboard-response","1131","f","hamsi","false","",""
"1608.5","","","","","5","html-slider-response","1132","","","","4",""
"5126","body","tindashan,nyundu,jibini,kununa","tindashan","f","5","html-keyboard-response","1133","f","tindashan","true","",""
"1985.0999999642372","","","","","5","html-slider-response","1134","","","","4",""
"2858","bed","kalipay,haraka,starehe,mapintas","mapintas","n","5","html-keyboard-response","1135","n","mapintas","true","",""
"1623.2999999523163","","","","","5","html-slider-response","1136","","","","5",""
"5271","squirrel","mahugaw,ukweli,kichwa,hofu","hofu","n","5","html-keyboard-response","1137","j","kichwa","false","",""
"2163.800000011921","","","","","5","html-slider-response","1138","","","","4",""
"2962","window","nanga,kujenga,umaga,kweli","kweli","n","5","html-keyboard-response","1139","n","kweli","true","",""
"2238.599999964237","","","","","5","html-slider-response","1140","","","","3",""
"1953","bonfire","mwezi,mfuko,goti,kusanya","goti","j","5","html-keyboard-response","1141","j","goti","true","",""
"2029","","","","","5","html-slider-response","1142","","","","5",""
"1950","fish","buli,bala,baho,imani","buli","f","5","html-keyboard-response","1143","f","buli","true","",""
"1767.6000000238419","","","","","5","html-slider-response","1144","","","","5",""
"3808","cat","neyemba,baki,akili,paghukom","paghukom","n","5","html-keyboard-response","1145","n","paghukom","true","",""
"1494.3999999761581","","","","","5","html-slider-response","1146","","","","4",""
"4956","spider","bunyag,mkboa,kamwe,atop","kamwe","j","5","html-keyboard-response","1147","f","bunyag","false","",""
"1643.3999999761581","","","","","5","html-slider-response","1148","","","","2",""
"3975","eel","ishara,msumari,kunywa,kabuang","msumari","v","5","html-keyboard-response","1149","v","msumari","true","",""
"1740.699999988079","","","","","5","html-slider-response","1150","","","","5",""
"3666","woman","pagtabon,bandari,bituin,kovuli","pagtabon","f","5","html-keyboard-response","1151","f","pagtabon","true","",""
"2142.600000023842","","","","","5","html-slider-response","1152","","","","4",""
"4048","magazine","gundi,kiti,mchawi,bahandi","kiti","v","5","html-keyboard-response","1153","v","kiti","true","",""
"1737.1000000238419","","","","","5","html-slider-response","1154","","","","4",""
"11800","pudding","abug,aibu,mpishi,iring","aibu","v","5","html-keyboard-response","1155","v","aibu","true","",""
"1902.2999999523163","","","","","5","html-slider-response","1156","","","","5",""
"4997","lamp","daub,bilaska,mbolea,afya","afya","n","5","html-keyboard-response","1157","j","mbolea","false","",""
"2018.9000000357628","","","","","5","html-slider-response","1158","","","","4",""
"4079","cave","kesho,ganti,maisha,nyundo","kesho","f","5","html-keyboard-response","1159","j","maisha","false","",""
"1764.300000011921","","","","","5","html-slider-response","1160","","","","4",""
"5516","shoulder","kelele,ndaniya,guruwe,mkuu","mkuu","n","5","html-keyboard-response","1161","n","mkuu","true","",""
"3188.699999988079","","","","","5","html-slider-response","1162","","","","1",""
"6352","stone","ulimwengu,wingi,mkasi,asili","wingi","v","5","html-keyboard-response","1163","v","wingi","true","",""
"2087.599999964237","","","","","5","html-slider-response","1164","","","","4",""
"3392","column","pundok,ufagio,dila,pala","ufagio","v","5","html-keyboard-response","1165","f","pundok","false","",""
"1742.199999988079","","","","","5","html-slider-response","1166","","","","5",""
"5411","page","wakala,ishiri,wimbo,skina","wimbo","j","5","html-keyboard-response","1167","j","wimbo","true","",""
"1865.699999988079","","","","","5","html-slider-response","1168","","","","4",""
"3241","shoe","nyeusi,hatua,uyoga,kama","uyoga","j","5","html-keyboard-response","1169","j","uyoga","true","",""
"2030.7999999523163","","","","","5","html-slider-response","1170","","","","5",""
"4698","clock","kartasi,abang,mbwa,osha","mbwa","j","5","html-keyboard-response","1171","j","mbwa","true","",""
"1744.1000000238419","","","","","5","html-slider-response","1172","","","","4",""
"3336","towel","pagpalit,tembo,funzi,pito","pagpalit","f","5","html-keyboard-response","1173","j","funzi","false","",""
"2623.800000011921","","","","","5","html-slider-response","1174","","","","3",""
"8837","tomato","chupi,chupa,takatak,mvua","mvua","n","5","html-keyboard-response","1175","v","chupa","false","",""
"4144.800000011921","","","","","5","html-slider-response","1176","","","","3",""
"5560","bucket","kiatu,baga,ijayo,init","kiatu","f","5","html-keyboard-response","1177","j","ijayo","false","",""
"1907.199999988079","","","","","5","html-slider-response","1178","","","","4",""
"1900","finger","simu,sufuria,moyo,lima","moyo","j","5","html-keyboard-response","1179","j","moyo","true","",""
"1771.8999999761581","","","","","5","html-slider-response","1180","","","","5",""
"2843","mother","babaye,kahawa,mbuzi,jokofu","babaye","f","5","html-keyboard-response","1181","f","babaye","true","",""
"1696.7000000476837","","","","","5","html-slider-response","1182","","","","4",""
"3380","human","tinapay,bado,kikapu,punguza","tinapay","f","5","html-keyboard-response","1183","f","tinapay","true","",""
"1915.6000000238419","","","","","5","html-slider-response","1184","","","","5",""
"1857","sun","bendi,luha,uongo,basi","basi","n","5","html-keyboard-response","1185","n","basi","true","",""
"1746.9000000357628","","","","","5","html-slider-response","1186","","","","5",""
"5379","fork","mgonjwa,baboy,paghago,gorisi","mgonjwa","f","5","html-keyboard-response","1187","f","mgonjwa","true","",""
"1685.800000011921","","","","","5","html-slider-response","1188","","","","4",""
"1840","donkey","bloke,lalake,rombus,elfu","elfu","n","5","html-keyboard-response","1189","n","elfu","true","",""
"1776.199999988079","","","","","5","html-slider-response","1190","","","","5",""
"2011","wolf","kaburi,lugha,ndizi,mchuzi","lugha","v","5","html-keyboard-response","1191","v","lugha","true","",""
"1795.199999988079","","","","","5","html-slider-response","1192","","","","5",""
"2733","cigar","ndugu,kuta,mlango,adhabu","adhabu","n","5","html-keyboard-response","1193","v","kuta","false","",""
"1587.2000000476837","","","","","5","html-slider-response","1194","","","","2",""
"3437","olive","bata,jiwe,siagi,welder","jiwe","v","5","html-keyboard-response","1195","v","jiwe","true","",""
"2153.600000023842","","","","","5","html-slider-response","1196","","","","3",""
"16644","key","chombo,miaka,goma,ahos","chombo","f","5","html-keyboard-response","1197","j","goma","false","",""
"1541.300000011921","","","","","5","html-slider-response","1198","","","","2",""
"2957","door","tena,soko,surali,nyota","surali","j","5","html-keyboard-response","1199","j","surali","true","",""
"1492.5","","","","","5","html-slider-response","1200","","","","4",""
"2751","wheel","punda,tawo,baadaye,bafuni","bafuni","n","5","html-keyboard-response","1201","v","tawo","false","",""
"1931.3999999761581","","","","","5","html-slider-response","1202","","","","4",""
"4589","basket","kumba,kumbuka,utepe,hasira","kumba","f","5","html-keyboard-response","1203","n","hasira","false","",""
"1881.0999999642372","","","","","5","html-slider-response","1204","","","","4",""
"3492","elephant","kito,petye,pagduol,suka","kito","f","5","html-keyboard-response","1205","j","pagduol","false","",""
"1571","","","","","5","html-slider-response","1206","","","","2",""
"1726","office","leso,hazini,yatima,kuna","leso","f","5","html-keyboard-response","1207","f","leso","true","",""
"2070.2000000476837","","","","","5","html-slider-response","1208","","","","5",""
"2802","music","mraba,mageho,baiski,tumbo","baiski","j","5","html-keyboard-response","1209","n","tumbo","false","",""
"1606.300000011921","","","","","5","html-slider-response","1210","","","","4",""
"3724","tissue","ugomvi,lamigas,kisiwa,katika","ugomvi","f","5","html-keyboard-response","1211","v","lamigas","false","",""
"1836.6000000238419","","","","","5","html-slider-response","1212","","","","4",""
"4050","curtain","mchanga,lisud,bulwawan,chubani","mchanga","f","5","html-keyboard-response","1213","f","mchanga","true","",""
"1908.300000011921","","","","","5","html-slider-response","1214","","","","4",""
"1862","flag","ndege,mkate,trekta,kawa","trekta","j","5","html-keyboard-response","1215","j","trekta","true","",""
"1793.3999999761581","","","","","5","html-slider-response","1216","","","","5",""
"3833","dog","lubi,washia,kalamu,bahari","bahari","n","5","html-keyboard-response","1217","v","washia","false","",""
"2490.699999988079","","","","","5","html-slider-response","1218","","","","4",""
"5435","cup","dagat,matumai,shimoni,jeraha","matumai","v","5","html-keyboard-response","1219","v","matumai","true","",""
"2346.699999988079","","","","","5","html-slider-response","1220","","","","3",""
"4752","sheet","juuya,watu,bililhon,kamantis","bililhon","j","5","html-keyboard-response","1221","f","juuya","false","",""
"2352.699999988079","","","","","5","html-slider-response","1222","","","","4",""
"3268","spoon","pagsulod,betri,nzuri,ngazi","pagsulod","f","5","html-keyboard-response","1223","f","pagsulod","true","",""
"2582.199999988079","","","","","5","html-slider-response","1224","","","","5",""
"4213","flower","tamasha,lobo,bega,usiku","bega","j","5","html-keyboard-response","1225","f","tamasha","false","",""
"1575.1000000238419","","","","","5","html-slider-response","1226","","","","4",""
"3404","picture","silya,kubwa,chaki,asin","kubwa","v","5","html-keyboard-response","1227","f","silya","false","",""
"2026.2999999523163","","","","","5","html-slider-response","1228","","","","4",""
"2027","puppet","mazishi,napulo,lamok,godoro","mazishi","f","5","html-keyboard-response","1229","f","mazishi","true","",""
"1782.0999999642372","","","","","5","html-slider-response","1230","","","","5",""
"4146","banana","kasamok,hagdan,kazi,twai","kazi","j","5","html-keyboard-response","1231","v","hagdan","false","",""
"1664","","","","","5","html-slider-response","1232","","","","4",""
"3596","book","kuhesa,mali,picha,mara","mali","v","5","html-keyboard-response","1233","v","mali","true","",""
"1805.5","","","","","5","html-slider-response","1234","","","","5",""
"4014","triangle","kihozi,kasadpan,bentaha,liog","kasadpan","v","5","html-keyboard-response","1235","v","kasadpan","true","",""
"2201.300000011921","","","","","5","html-slider-response","1236","","","","4",""
"4113","poster","madungog,nchi,fedha,kasuko","madungog","f","5","html-keyboard-response","1237","f","madungog","true","",""
"2336.199999988079","","","","","5","html-slider-response","1238","","","","4",""
"10549","box","kuacha,rafiki,kitande,adui","adui","n","5","html-keyboard-response","1239","n","adui","true","",""
"1855.1000000238419","","","","","5","html-slider-response","1240","","","","2",""
"1891","mosquito","isda,martilyo,taras,gutom","martilyo","v","5","html-keyboard-response","1241","v","martilyo","true","",""
"2154.5","","","","","5","html-slider-response","1242","","","","5",""
"3934","shelf","bungtod,pamahaw,kadaot,awit","pamahaw","v","5","html-keyboard-response","1243","v","pamahaw","true","",""
"1700.5","","","","","5","html-slider-response","1244","","","","4",""
"5016","scissors","duga,mtawa,suga,tanuri","tanuri","n","5","html-keyboard-response","1245","f","duga","false","",""
"1709.5999999642372","","","","","5","html-slider-response","1246","","","","4",""
"3819","hammer","mekno,napakyas,kitovu,layag","napakyas","v","5","html-keyboard-response","1247","n","layag","false","",""
"2537.100000023842","","","","","5","html-slider-response","1248","","","","3",""
