"rt","en_word","options","swa_word","correct_answer","phase","trial_type","trial_index","input_answer","input_word","accuracy","certainty","amt_choices"
"4970","bonfire","mwezi,mfuko,kusanya,goti","goti","n","2","html-keyboard-response","106","j","kusanya","false","",""
"6329.4000000059605","","","","","2","html-slider-response","107","","","","4",""
"2924","flower","tamasha,bega,lobo,usiku","bega","v","2","html-keyboard-response","108","v","bega","true","",""
"2587.7999999970198","","","","","2","html-slider-response","109","","","","4",""
"1751","column","pundok,dila,pala,ufagio","ufagio","n","2","html-keyboard-response","110","f","pundok","false","",""
"2356.5999999940395","","","","","2","html-slider-response","111","","","","2",""
"2514","music","mraba,mageho,tumbo,baiski","baiski","n","2","html-keyboard-response","112","j","tumbo","false","",""
"3964.4000000059605","","","","","2","html-slider-response","113","","","","3",""
"4291","spider","bunyag,mkboa,atop,kamwe","kamwe","n","2","html-keyboard-response","114","n","kamwe","true","",""
"2502.7999999970198","","","","","2","html-slider-response","115","","","","4",""
"4287","fork","mgonjwa,baboy,paghago,gorisi","mgonjwa","f","2","html-keyboard-response","116","n","gorisi","false","",""
"2283.0999999940395","","","","","2","html-slider-response","117","","","","2",""
"3712","mosquito","martilyo,isda,taras,gutom","martilyo","f","2","html-keyboard-response","118","f","martilyo","true","",""
"2051.4000000059605","","","","","2","html-slider-response","119","","","","5",""
"4031","banana","kasamok,kazi,hagdan,twai","kazi","v","2","html-keyboard-response","120","j","hagdan","false","",""
"2197.7999999970198","","","","","2","html-slider-response","121","","","","2",""
"2246","cup","dagat,matumai,shimoni,jeraha","matumai","v","2","html-keyboard-response","122","f","dagat","false","",""
"2348.2000000029802","","","","","2","html-slider-response","123","","","","4",""
"2682","shop","samaki,nopya,kerida,ndezu","samaki","f","2","html-keyboard-response","124","j","kerida","false","",""
"2862","","","","","2","html-slider-response","125","","","","4",""
"2957","elephant","kito,petye,pagduol,suka","kito","f","2","html-keyboard-response","126","j","pagduol","false","",""
"2749.0999999940395","","","","","2","html-slider-response","127","","","","4",""
"3026","bucket","baga,kiatu,ijayo,init","kiatu","v","2","html-keyboard-response","128","v","kiatu","true","",""
"2387.5999999940395","","","","","2","html-slider-response","129","","","","1",""
"2938","book","kuhesa,picha,mara,mali","mali","n","2","html-keyboard-response","130","v","picha","false","",""
"2019.7000000029802","","","","","2","html-slider-response","131","","","","4",""
"2060","mirror","rangi,kanding,furaha,sulagma","sulagma","n","2","html-keyboard-response","132","j","furaha","false","",""
"2727.3999999910593","","","","","2","html-slider-response","133","","","","4",""
"2448","office","leso,hazini,yatima,kuna","leso","f","2","html-keyboard-response","134","n","kuna","false","",""
"3232.4000000059605","","","","","2","html-slider-response","135","","","","4",""
"3057","body","tindashan,nyundu,jibini,kununa","tindashan","f","2","html-keyboard-response","136","j","jibini","false","",""
"2967.0999999940395","","","","","2","html-slider-response","137","","","","2",""
"2030","perfume","bino,sungura,katuyoan,ndogo","katuyoan","j","2","html-keyboard-response","138","v","sungura","false","",""
"2239.7000000029802","","","","","2","html-slider-response","139","","","","2",""
"3580","olive","jiwe,bata,siagi,welder","jiwe","f","2","html-keyboard-response","140","v","bata","false","",""
"3443.8999999910593","","","","","2","html-slider-response","141","","","","3",""
"2592","magazine","kiti,gundi,mchawi,bahandi","kiti","f","2","html-keyboard-response","142","j","mchawi","false","",""
"2267.2000000029802","","","","","2","html-slider-response","143","","","","4",""
"3824","bread","kaili,dizeli,dari,bugas","dari","j","2","html-keyboard-response","144","j","dari","true","",""
"2167.7000000029802","","","","","2","html-slider-response","145","","","","4",""
"2558","cave","ganti,kesho,maisha,nyundo","kesho","v","2","html-keyboard-response","146","v","kesho","true","",""
"2309.2999999970198","","","","","2","html-slider-response","147","","","","2",""
"2611","ladder","mashua,mwanga,kamba,pangalan","pangalan","n","2","html-keyboard-response","148","j","kamba","false","",""
"2212.7999999970198","","","","","2","html-slider-response","149","","","","4",""
"3156","human","bado,tinapay,kikapu,punguza","tinapay","v","2","html-keyboard-response","150","f","bado","false","",""
"3267.9000000059605","","","","","2","html-slider-response","151","","","","1",""
"4159","clock","mbwa,kartasi,abang,osha","mbwa","f","2","html-keyboard-response","152","f","mbwa","true","",""
"2433.2000000029802","","","","","2","html-slider-response","153","","","","4",""
"3865","shelf","bungtod,kadaot,awit,pamahaw","pamahaw","n","2","html-keyboard-response","154","j","awit","false","",""
"2051.0999999940395","","","","","2","html-slider-response","155","","","","4",""
"3151","salmon","mzungu,seri,baharia,sensilyo","sensilyo","n","2","html-keyboard-response","156","v","seri","false","",""
"2152.3999999910593","","","","","2","html-slider-response","157","","","","2",""
"3533","coffin","barua,kioo,tubag,hulma","kioo","v","2","html-keyboard-response","158","v","kioo","true","",""
"2062","","","","","2","html-slider-response","159","","","","2",""
"2146","notebook","kemia,msitu,kila,mdudu","kemia","f","2","html-keyboard-response","160","n","mdudu","false","",""
"4084.2000000029802","","","","","2","html-slider-response","161","","","","3",""
"4824","shoulder","kelele,mkuu,ndaniya,guruwe","mkuu","v","2","html-keyboard-response","162","v","mkuu","true","",""
"2941.4000000059605","","","","","2","html-slider-response","163","","","","4",""
"2422","park","bunifu,tambok,pwani,ihalas","bunifu","f","2","html-keyboard-response","164","j","pwani","false","",""
"2421.7999999970198","","","","","2","html-slider-response","165","","","","4",""
"2548","number","shule,mundamo,kengele,choori","mundamo","v","2","html-keyboard-response","166","v","mundamo","true","",""
"2091.2000000029802","","","","","2","html-slider-response","167","","","","2",""
"2180","apple","ukame,estante,edad,kisu","kisu","n","2","html-keyboard-response","168","j","edad","false","",""
"2079.2999999970198","","","","","2","html-slider-response","169","","","","4",""
"3342","letter","filimbi,chuma,kifua,uhuru","kifua","j","2","html-keyboard-response","170","v","chuma","false","",""
"1765.6000000089407","","","","","2","html-slider-response","171","","","","4",""
"2298","eel","ishara,kunywa,kabuang,msumari","msumari","n","2","html-keyboard-response","172","f","ishara","false","",""
"2131.7999999970198","","","","","2","html-slider-response","173","","","","2",""
"1861","cop","bustani,jikoni,mechezo,bakus","mechezo","j","2","html-keyboard-response","174","v","jikoni","false","",""
"2175.1000000089407","","","","","2","html-slider-response","175","","","","4",""
"2389","wolf","kaburi,ndizi,lugha,mchuzi","lugha","j","2","html-keyboard-response","176","n","mchuzi","false","",""
"2725.2000000029802","","","","","2","html-slider-response","177","","","","4",""
"3890","squirrel","hofu,mahugaw,ukweli,kichwa","hofu","f","2","html-keyboard-response","178","v","mahugaw","false","",""
"3614","","","","","2","html-slider-response","179","","","","2",""
"3053","nose","sehemu,gubat,kopa,kidole","sehemu","f","2","html-keyboard-response","180","j","kopa","false","",""
"2318.0999999940395","","","","","2","html-slider-response","181","","","","4",""
"2439","sock","mamba,ndoora,kimysa,mtirka","mamba","f","2","html-keyboard-response","182","n","mtirka","false","",""
"2264.7000000029802","","","","","2","html-slider-response","183","","","","2",""
"4493","bank","kudhibi,tualya,ofisi,silingan","silingan","n","2","html-keyboard-response","184","f","kudhibi","false","",""
"2063.199999988079","","","","","2","html-slider-response","185","","","","4",""
"3491","donkey","bloke,lalake,rombus,elfu","elfu","n","2","html-keyboard-response","186","v","lalake","false","",""
"2780.5999999940395","","","","","2","html-slider-response","187","","","","4",""
"2928","poster","madungog,nchi,fedha,kasuko","madungog","f","2","html-keyboard-response","188","n","kasuko","false","",""
"2508.8999999910593","","","","","2","html-slider-response","189","","","","4",""
"2396","puppet","napulo,lamok,godoro,mazishi","mazishi","n","2","html-keyboard-response","190","v","lamok","false","",""
"2106.2000000029802","","","","","2","html-slider-response","191","","","","4",""
"2382","hill","matumbo,kushoto,kukimba,sweta","matumbo","f","2","html-keyboard-response","192","n","sweta","false","",""
"2078","","","","","2","html-slider-response","193","","","","4",""
"1931","tooth","kijiko,kabalaka,uadui,pahiyum","kabalaka","v","2","html-keyboard-response","194","j","uadui","false","",""
"4376.20000000298","","","","","2","html-slider-response","195","","","","4",""
"6362","woman","pagtabon,bandari,bituin,kovuli","pagtabon","f","2","html-keyboard-response","196","n","kovuli","false","",""
"2288","","","","","2","html-slider-response","197","","","","4",""
"2045","wheel","bafuni,punda,tawo,baadaye","bafuni","f","2","html-keyboard-response","198","j","tawo","false","",""
"2062.2999999970198","","","","","2","html-slider-response","199","","","","4",""
"2064","mother","kahawa,mbuzi,babaye,jokofu","babaye","j","2","html-keyboard-response","200","j","babaye","true","",""
"2312.2999999970198","","","","","2","html-slider-response","201","","","","5",""
"1956","bed","kalipay,haraka,starehe,mapintas","mapintas","n","2","html-keyboard-response","202","f","kalipay","false","",""
"3584.5","","","","","2","html-slider-response","203","","","","2",""
"2805","key","miaka,goma,ahos,chombo","chombo","n","2","html-keyboard-response","204","f","miaka","false","",""
"2099.2999999970198","","","","","2","html-slider-response","205","","","","4",""
"1683","page","wakala,ishiri,skina,wimbo","wimbo","n","2","html-keyboard-response","206","n","wimbo","true","",""
"2238.2000000029802","","","","","2","html-slider-response","207","","","","2",""
"2424","pants","pintal,chuki,hari,haki","haki","n","2","html-keyboard-response","208","n","haki","true","",""
"2280","","","","","2","html-slider-response","209","","","","5",""
"2225","sun","bendi,basi,luha,uongo","basi","v","2","html-keyboard-response","210","j","luha","false","",""
"2090.6000000089407","","","","","2","html-slider-response","211","","","","4",""
"4700","finger","simu,moyo,sufuria,lima","moyo","v","2","html-keyboard-response","212","v","moyo","true","",""
"2269.4000000059605","","","","","2","html-slider-response","213","","","","4",""
"2114","shoe","nyeusi,hatua,kama,uyoga","uyoga","n","2","html-keyboard-response","214","j","kama","false","",""
"2317.0999999940395","","","","","2","html-slider-response","215","","","","2",""
"1934","giraffe","mahitabo,daraja,jumatu,hangyo","mahitabo","f","2","html-keyboard-response","216","v","daraja","false","",""
"2186.0999999940395","","","","","2","html-slider-response","217","","","","2",""
"2140","dog","lubi,washia,bahari,kalamu","bahari","j","2","html-keyboard-response","218","j","bahari","true","",""
"1814.0999999940395","","","","","2","html-slider-response","219","","","","4",""
"2325","box","kuacha,rafiki,kitande,adui","adui","n","2","html-keyboard-response","220","v","rafiki","false","",""
"2135.5","","","","","2","html-slider-response","221","","","","4",""
"4026","scissors","tanuri,duga,mtawa,suga","tanuri","f","2","html-keyboard-response","222","j","mtawa","false","",""
"2294.6000000089407","","","","","2","html-slider-response","223","","","","4",""
"1870","cat","neyemba,baki,akili,paghukom","paghukom","n","2","html-keyboard-response","224","v","baki","false","",""
"2558.2000000029802","","","","","2","html-slider-response","225","","","","2",""
"1669","basket","kumbuka,utepe,hasira,kumba","kumba","n","2","html-keyboard-response","226","f","kumbuka","false","",""
"2116.5999999940395","","","","","2","html-slider-response","227","","","","2",""
"2674","snake","jansa,karon,pagtukod,mvringo","pagtukod","j","2","html-keyboard-response","228","j","pagtukod","true","",""
"2252.300000011921","","","","","2","html-slider-response","229","","","","4",""
"3388","gift","baba,nyange,pagtawag,baso","pagtawag","j","2","html-keyboard-response","230","n","baso","false","",""
"2203.7999999970198","","","","","2","html-slider-response","231","","","","4",""
"3608","train","itik,dakika,sayari,mungu","sayari","j","2","html-keyboard-response","232","j","sayari","true","",""
"2251.2999999970198","","","","","2","html-slider-response","233","","","","4",""
"1263","pudding","abug,mpishi,aibu,iring","aibu","j","2","html-keyboard-response","234","f","abug","false","",""
"2348","","","","","2","html-slider-response","235","","","","2",""
"1291","tomato","chupi,chupa,mvua,takatak","mvua","j","2","html-keyboard-response","236","f","chupi","false","",""
"2055.5","","","","","2","html-slider-response","237","","","","2",""
"2296","stone","wingi,ulimwengu,mkasi,asili","wingi","f","2","html-keyboard-response","238","n","asili","false","",""
"3875.0999999940395","","","","","2","html-slider-response","239","","","","1",""
"2763","hammer","mekno,kitovu,layag,napakyas","napakyas","n","2","html-keyboard-response","240","v","kitovu","false","",""
"1926.2000000029802","","","","","2","html-slider-response","241","","","","4",""
"2871","knee","mvuke,kubale,bili,duka","duka","n","2","html-keyboard-response","242","n","duka","true","",""
"1926.0999999940395","","","","","2","html-slider-response","243","","","","4",""
"2440","ceiling","kugita,kawaida,maua,rayna","maua","j","2","html-keyboard-response","244","j","maua","true","",""
"2820.7000000029802","","","","","2","html-slider-response","245","","","","2",""
"2986","spoon","betri,nzuri,ngazi,pagsulod","pagsulod","n","2","html-keyboard-response","246","j","ngazi","false","",""
"2840.7999999970198","","","","","2","html-slider-response","247","","","","4",""
"4195","marker","mapafu,salita,atay,maji","maji","n","2","html-keyboard-response","248","n","maji","true","",""
"2435.5","","","","","2","html-slider-response","249","","","","4",""
"2643","candle","gabi,geza,farasi,kupanda","geza","v","2","html-keyboard-response","250","f","gabi","false","",""
"2910.9000000059605","","","","","2","html-slider-response","251","","","","4",""
"2699","tissue","ugomvi,lamigas,kisiwa,katika","ugomvi","f","2","html-keyboard-response","252","n","katika","false","",""
"2340.2999999970198","","","","","2","html-slider-response","253","","","","2",""
"2325","bridge","sahani,daima,ngono,panya","sahani","f","2","html-keyboard-response","254","f","sahani","true","",""
"2535.2000000029802","","","","","2","html-slider-response","255","","","","2",""
"3195","berry","abogado,nogozi,kofia,kinywa","kofia","j","2","html-keyboard-response","256","v","nogozi","false","",""
"1934","","","","","2","html-slider-response","257","","","","4",""
"1628","triangle","kihozi,bentaha,kasadpan,liog","kasadpan","j","2","html-keyboard-response","258","f","kihozi","false","",""
"1775.9000000059605","","","","","2","html-slider-response","259","","","","2",""
"6367","door","tena,soko,surali,nyota","surali","j","2","html-keyboard-response","260","j","surali","true","",""
"2178.5","","","","","2","html-slider-response","261","","","","4",""
"3818","fish","bala,buli,baho,imani","buli","v","2","html-keyboard-response","262","j","baho","false","",""
"2587.5","","","","","2","html-slider-response","263","","","","4",""
"1295","curtain","lisud,bulwawan,mchanga,chubani","mchanga","j","2","html-keyboard-response","264","f","lisud","false","",""
"2835.8999999910593","","","","","2","html-slider-response","265","","","","4",""
"2789","flag","trekta,ndege,mkate,kawa","trekta","f","2","html-keyboard-response","266","n","kawa","false","",""
"2472.7000000029802","","","","","2","html-slider-response","267","","","","2",""
"2256","boat","hamsi,pombe,agalon,kitanda","agalon","j","2","html-keyboard-response","268","j","agalon","true","",""
"2100.2000000029802","","","","","2","html-slider-response","269","","","","4",""
"1971","rose","singizi,mwanake,paghalad,amani","paghalad","j","2","html-keyboard-response","270","n","amani","false","",""
"1985.2999999970198","","","","","2","html-slider-response","271","","","","4",""
"4123","lamp","daub,bilaska,mbolea,afya","afya","n","2","html-keyboard-response","272","j","mbolea","false","",""
"2541.8999999910593","","","","","2","html-slider-response","273","","","","2",""
"2433","cigar","ndugu,kuta,adhabu,mlango","adhabu","j","2","html-keyboard-response","274","j","adhabu","true","",""
"1876.7000000029802","","","","","2","html-slider-response","275","","","","4",""
"1160","list","wingu,alizeti,kuzama,kaso","wingu","f","2","html-keyboard-response","276","v","alizeti","false","",""
"2371.5999999940395","","","","","2","html-slider-response","277","","","","2",""
"5232","sheet","juuya,bililhon,watu,kamantis","bililhon","v","2","html-keyboard-response","278","v","bililhon","true","",""
"2128","","","","","2","html-slider-response","279","","","","4",""
"2116","picture","silya,chaki,kubwa,asin","kubwa","j","2","html-keyboard-response","280","n","asin","false","",""
"2092.9000000059605","","","","","2","html-slider-response","281","","","","4",""
"2186","towel","pagpalit,tembo,funzi,pito","pagpalit","f","2","html-keyboard-response","282","n","pito","false","",""
"2233.7000000029802","","","","","2","html-slider-response","283","","","","2",""
"1747","window","nanga,kujenga,kweli,umaga","kweli","j","2","html-keyboard-response","284","f","nanga","false","",""
"2217.2999999970198","","","","","2","html-slider-response","285","","","","4",""
"2149","box","kuacha,rafiki,adui,kitande","adui","j","3","html-keyboard-response","293","f","kuacha","false","","4"
"3270.2000000029802","","","","","3","html-slider-response","294","","","","2",""
"5082","","","","","3","html-keyboard-response","295","","","","",""
"7525","pants","pintal,chuki,hari,haki","haki","n","3","html-keyboard-response","296","n","haki","true","","4"
"2270.5","","","","","3","html-slider-response","297","","","","5",""
"2368","","","","","3","html-keyboard-response","298","","","","",""
"2296","cup","dagat,shimoni,jeraha,matumai","matumai","n","3","html-keyboard-response","299","f","dagat","false","","4"
"2285.2999999970198","","","","","3","html-slider-response","300","","","","2",""
"2327","","","","","3","html-keyboard-response","301","","","","",""
"3421","triangle","kihozi,bentaha,liog,kasadpan","kasadpan","n","3","html-keyboard-response","302","v","bentaha","false","","4"
"2160.5","","","","","3","html-slider-response","303","","","","4",""
"1974","","","","","3","html-keyboard-response","304","","","","",""
"2786","curtain","mchanga,lisud,bulwawan,chubani","mchanga","f","3","html-keyboard-response","305","n","chubani","false","","4"
"2025","","","","","3","html-slider-response","306","","","","4",""
"1679","","","","","3","html-keyboard-response","307","","","","",""
"3438","clock","kartasi,abang,osha,mbwa","mbwa","n","3","html-keyboard-response","308","j","osha","false","","4"
"2482.0999999940395","","","","","3","html-slider-response","309","","","","2",""
"1250","","","","","3","html-keyboard-response","310","","","","",""
"4749","mirror","rangi,sulagma,kanding,furaha","sulagma","v","3","html-keyboard-response","311","f","rangi","false","","4"
"2336.5","","","","","3","html-slider-response","312","","","","2",""
"1376","","","","","3","html-keyboard-response","313","","","","",""
"2958","coffin","barua,tubag,kioo,hulma","kioo","j","3","html-keyboard-response","314","j","kioo","true","","1"
"2401.7000000029802","","","","","3","html-slider-response","315","","","","4",""
"1309","","","","","3","html-keyboard-response","316","","","","",""
"3255","magazine","gundi,mchawi,kiti,bahandi","kiti","j","3","html-keyboard-response","317","n","bahandi","false","","4"
"3019.2999999970198","","","","","3","html-slider-response","318","","","","2",""
"1001","","","","","3","html-keyboard-response","319","","","","",""
"1728","column","ufagio,pundok,dila,pala","ufagio","f","3","html-keyboard-response","320","f","ufagio","true","","1"
"1983","","","","","3","html-slider-response","321","","","","4",""
"66904","","","","","3","html-keyboard-response","322","","","","",""
"2180","number","shule,mundamo,kengele,choori","mundamo","v","3","html-keyboard-response","323","j","kengele","false","","4"
"3613.4000000059605","","","","","3","html-slider-response","324","","","","2",""
"1214","","","","","3","html-keyboard-response","325","","","","",""
"1611","rose","paghalad,singizi,mwanake,amani","paghalad","f","3","html-keyboard-response","326","j","mwanake","false","","4"
"2306.4000000059605","","","","","3","html-slider-response","327","","","","2",""
"1163","","","","","3","html-keyboard-response","328","","","","",""
"2536","eel","ishara,msumari,kunywa,kabuang","msumari","v","3","html-keyboard-response","329","j","kunywa","false","","4"
"2094.7999999970198","","","","","3","html-slider-response","330","","","","2",""
"814","","","","","3","html-keyboard-response","331","","","","",""
"2058","gift","pagtawag,baba,nyange,baso","pagtawag","f","3","html-keyboard-response","332","n","baso","false","","4"
"3022.7999999970198","","","","","3","html-slider-response","333","","","","2",""
"866","","","","","3","html-keyboard-response","334","","","","",""
"1232","apple","ukame,estante,edad,kisu","kisu","n","3","html-keyboard-response","335","n","kisu","true","","1"
"2128.2999999970198","","","","","3","html-slider-response","336","","","","5",""
"1270","","","","","3","html-keyboard-response","337","","","","",""
"1317","wheel","punda,bafuni,tawo,baadaye","bafuni","v","3","html-keyboard-response","338","v","bafuni","true","","1"
"2297","","","","","3","html-slider-response","339","","","","4",""
"847","","","","","3","html-keyboard-response","340","","","","",""
"1686","knee","mvuke,duka,kubale,bili","duka","v","3","html-keyboard-response","341","f","mvuke","false","","4"
"5195.79999999702","","","","","3","html-slider-response","342","","","","2",""
"1143","","","","","3","html-keyboard-response","343","","","","",""
"1193","basket","kumbuka,kumba,utepe,hasira","kumba","v","3","html-keyboard-response","344","v","kumba","true","","1"
"3013.199999988079","","","","","3","html-slider-response","345","","","","4",""
"730","","","","","3","html-keyboard-response","346","","","","",""
"1556","park","tambok,pwani,ihalas,bunifu","bunifu","n","3","html-keyboard-response","347","j","ihalas","false","","4"
"2206.4000000059605","","","","","3","html-slider-response","348","","","","4",""
"779","","","","","3","html-keyboard-response","349","","","","",""
"2174","finger","simu,moyo,sufuria,lima","moyo","v","3","html-keyboard-response","350","j","sufuria","false","","4"
"2370.5","","","","","3","html-slider-response","351","","","","4",""
"1432","","","","","3","html-keyboard-response","352","","","","",""
"1915","boat","hamsi,pombe,kitanda,agalon","agalon","n","3","html-keyboard-response","353","f","hamsi","false","","4"
"1752.5999999940395","","","","","3","html-slider-response","354","","","","2",""
"969","","","","","3","html-keyboard-response","355","","","","",""
"2251","hill","kushoto,kukimba,sweta,matumbo","matumbo","n","3","html-keyboard-response","356","v","kukimba","false","","4"
"2762.5999999940395","","","","","3","html-slider-response","357","","","","4",""
"716","","","","","3","html-keyboard-response","358","","","","",""
"3803","train","itik,dakika,sayari,mungu","sayari","j","3","html-keyboard-response","359","v","dakika","false","","4"
"1943.5","","","","","3","html-slider-response","360","","","","4",""
"937","","","","","3","html-keyboard-response","361","","","","",""
"3332","wolf","kaburi,ndizi,mchuzi,lugha","lugha","n","3","html-keyboard-response","362","j","mchuzi","false","","4"
"2340.7000000029802","","","","","3","html-slider-response","363","","","","2",""
"718","","","","","3","html-keyboard-response","364","","","","",""
"1608","snake","jansa,karon,mvringo,pagtukod","pagtukod","n","3","html-keyboard-response","365","f","jansa","false","","4"
"4926","","","","","3","html-slider-response","366","","","","2",""
"1001","","","","","3","html-keyboard-response","367","","","","",""
"1632","tooth","kijiko,uadui,kabalaka,pahiyum","kabalaka","j","3","html-keyboard-response","368","v","uadui","false","","4"
"2179.8999999910593","","","","","3","html-slider-response","369","","","","4",""
"638","","","","","3","html-keyboard-response","370","","","","",""
"1288","notebook","msitu,kemia,kila,mdudu","kemia","v","3","html-keyboard-response","371","f","msitu","false","","4"
"1648.7000000029802","","","","","3","html-slider-response","372","","","","2",""
"846","","","","","3","html-keyboard-response","373","","","","",""
"2741","flag","ndege,mkate,kawa,trekta","trekta","n","3","html-keyboard-response","374","j","kawa","false","","4"
"2429.4000000059605","","","","","3","html-slider-response","375","","","","4",""
"13929","","","","","3","html-keyboard-response","376","","","","",""
"1524","squirrel","mahugaw,ukweli,kichwa,hofu","hofu","n","3","html-keyboard-response","377","n","hofu","true","","4"
"3842","","","","","3","html-slider-response","378","","","","1",""
"1375","","","","","3","html-keyboard-response","379","","","","",""
"1678","door","surali,tena,soko,nyota","surali","f","3","html-keyboard-response","380","j","soko","false","","4"
"2642.4000000059605","","","","","3","html-slider-response","381","","","","2",""
"655","","","","","3","html-keyboard-response","382","","","","",""
"2009","salmon","mzungu,seri,sensilyo,baharia","sensilyo","j","3","html-keyboard-response","383","n","baharia","false","","4"
"1888.7000000029802","","","","","3","html-slider-response","384","","","","4",""
"586","","","","","3","html-keyboard-response","385","","","","",""
"1722","shoulder","kelele,ndaniya,mkuu,guruwe","mkuu","j","3","html-keyboard-response","386","f","kelele","false","","4"
"2879.5","","","","","3","html-slider-response","387","","","","2",""
"680","","","","","3","html-keyboard-response","388","","","","",""
"1926","lamp","daub,bilaska,afya,mbolea","afya","j","3","html-keyboard-response","389","f","daub","false","","4"
"2402.2000000029802","","","","","3","html-slider-response","390","","","","2",""
"1063","","","","","3","html-keyboard-response","391","","","","",""
"1221","shelf","pamahaw,bungtod,kadaot,awit","pamahaw","f","3","html-keyboard-response","392","f","pamahaw","true","","1"
"2805.300000011921","","","","","3","html-slider-response","393","","","","5",""
"707","","","","","3","html-keyboard-response","394","","","","",""
"3246","human","tinapay,bado,kikapu,punguza","tinapay","f","3","html-keyboard-response","395","j","kikapu","false","","4"
"2393.7000000029802","","","","","3","html-slider-response","396","","","","4",""
"635","","","","","3","html-keyboard-response","397","","","","",""
"1325","towel","tembo,pagpalit,funzi,pito","pagpalit","v","3","html-keyboard-response","398","f","tembo","false","","4"
"2481.0999999940395","","","","","3","html-slider-response","399","","","","2",""
"601","","","","","3","html-keyboard-response","400","","","","",""
"3111","cat","neyemba,baki,akili,paghukom","paghukom","n","3","html-keyboard-response","401","f","neyemba","false","","4"
"2238.5999999940395","","","","","3","html-slider-response","402","","","","2",""
"762","","","","","3","html-keyboard-response","403","","","","",""
"2377","spider","bunyag,mkboa,kamwe,atop","kamwe","j","3","html-keyboard-response","404","j","kamwe","true","","4"
"2620.2000000029802","","","","","3","html-slider-response","405","","","","4",""
"7070","","","","","3","html-keyboard-response","406","","","","",""
"1947","window","nanga,kujenga,umaga,kweli","kweli","n","3","html-keyboard-response","407","f","nanga","false","","4"
"2735.7000000029802","","","","","3","html-slider-response","408","","","","2",""
"2727","","","","","3","html-keyboard-response","409","","","","",""
"2710","woman","bandari,pagtabon,bituin,kovuli","pagtabon","v","3","html-keyboard-response","410","v","pagtabon","true","","1"
"2399.7999999970198","","","","","3","html-slider-response","411","","","","4",""
"29760","","","","","3","html-keyboard-response","412","","","","",""
"2599","giraffe","daraja,jumatu,mahitabo,hangyo","mahitabo","j","3","html-keyboard-response","413","f","daraja","false","","4"
"2423.1000000089407","","","","","3","html-slider-response","414","","","","4",""
"856","","","","","3","html-keyboard-response","415","","","","",""
"1418","elephant","petye,pagduol,kito,suka","kito","j","3","html-keyboard-response","416","f","petye","false","","4"
"2494.2999999970198","","","","","3","html-slider-response","417","","","","2",""
"594","","","","","3","html-keyboard-response","418","","","","",""
"2070","cave","ganti,kesho,maisha,nyundo","kesho","v","3","html-keyboard-response","419","n","nyundo","false","","4"
"2121.9000000059605","","","","","3","html-slider-response","420","","","","4",""
"587","","","","","3","html-keyboard-response","421","","","","",""
"2647","bread","kaili,dari,dizeli,bugas","dari","v","3","html-keyboard-response","422","v","dari","true","","4"
"1954.800000011921","","","","","3","html-slider-response","423","","","","4",""
"897","","","","","3","html-keyboard-response","424","","","","",""
"2691","stone","ulimwengu,mkasi,wingi,asili","wingi","j","3","html-keyboard-response","425","v","mkasi","false","","4"
"2944.8999999910593","","","","","3","html-slider-response","426","","","","4",""
"1109","","","","","3","html-keyboard-response","427","","","","",""
"1857","donkey","bloke,elfu,lalake,rombus","elfu","v","3","html-keyboard-response","428","f","bloke","false","","4"
"2199.5","","","","","3","html-slider-response","429","","","","4",""
"831","","","","","3","html-keyboard-response","430","","","","",""
"1835","bridge","daima,sahani,ngono,panya","sahani","v","3","html-keyboard-response","431","f","daima","false","","4"
"1886.0999999940395","","","","","3","html-slider-response","432","","","","2",""
"912","","","","","3","html-keyboard-response","433","","","","",""
"2509","bonfire","mwezi,mfuko,kusanya,goti","goti","n","3","html-keyboard-response","434","v","mfuko","false","","4"
"2329.5999999940395","","","","","3","html-slider-response","435","","","","4",""
"601","","","","","3","html-keyboard-response","436","","","","",""
"1718","book","kuhesa,picha,mali,mara","mali","j","3","html-keyboard-response","437","j","mali","true","","4"
"2295.800000011921","","","","","3","html-slider-response","438","","","","2",""
"696","","","","","3","html-keyboard-response","439","","","","",""
"2692","fish","buli,bala,baho,imani","buli","f","3","html-keyboard-response","440","j","baho","false","","4"
"3102.199999988079","","","","","3","html-slider-response","441","","","","2",""
"736","","","","","3","html-keyboard-response","442","","","","",""
"2068","spoon","betri,nzuri,pagsulod,ngazi","pagsulod","j","3","html-keyboard-response","443","v","nzuri","false","","4"
"2345.0999999940395","","","","","3","html-slider-response","444","","","","4",""
"861","","","","","3","html-keyboard-response","445","","","","",""
"3997","scissors","duga,tanuri,mtawa,suga","tanuri","v","3","html-keyboard-response","446","f","duga","false","","4"
"2857.1000000089407","","","","","3","html-slider-response","447","","","","2",""
"1031","","","","","3","html-keyboard-response","448","","","","",""
"2504","page","wakala,ishiri,wimbo,skina","wimbo","j","3","html-keyboard-response","449","n","skina","false","","4"
"2375.5999999940395","","","","","3","html-slider-response","450","","","","4",""
"518","","","","","3","html-keyboard-response","451","","","","",""
"1482","nose","sehemu,gubat,kopa,kidole","sehemu","f","3","html-keyboard-response","452","f","sehemu","true","","1"
"2033.2999999970198","","","","","3","html-slider-response","453","","","","5",""
"690","","","","","3","html-keyboard-response","454","","","","",""
"1680","ceiling","kugita,kawaida,rayna,maua","maua","n","3","html-keyboard-response","455","f","kugita","false","","4"
"2992.2999999970198","","","","","3","html-slider-response","456","","","","4",""
"1352","","","","","3","html-keyboard-response","457","","","","",""
"3426","bucket","kiatu,baga,ijayo,init","kiatu","f","3","html-keyboard-response","458","f","kiatu","true","","4"
"2019.9000000059605","","","","","3","html-slider-response","459","","","","2",""
"685","","","","","3","html-keyboard-response","460","","","","",""
"1714","berry","abogado,nogozi,kinywa,kofia","kofia","n","3","html-keyboard-response","461","n","kofia","true","","1"
"2432.2000000029802","","","","","3","html-slider-response","462","","","","5",""
"559","","","","","3","html-keyboard-response","463","","","","",""
"1179","mother","kahawa,mbuzi,jokofu,babaye","babaye","n","3","html-keyboard-response","464","n","babaye","true","","1"
"2524","","","","","3","html-slider-response","465","","","","5",""
"633","","","","","3","html-keyboard-response","466","","","","",""
"1543","mosquito","isda,taras,martilyo,gutom","martilyo","j","3","html-keyboard-response","467","j","martilyo","true","","4"
"2261.5999999940395","","","","","3","html-slider-response","468","","","","4",""
"948","","","","","3","html-keyboard-response","469","","","","",""
"1634","perfume","katuyoan,bino,sungura,ndogo","katuyoan","f","3","html-keyboard-response","470","v","bino","false","","4"
"2919.5999999940395","","","","","3","html-slider-response","471","","","","4",""
"795","","","","","3","html-keyboard-response","472","","","","",""
"2188","sheet","bililhon,juuya,watu,kamantis","bililhon","f","3","html-keyboard-response","473","f","bililhon","true","","4"
"1964.2999999970198","","","","","3","html-slider-response","474","","","","2",""
"999","","","","","3","html-keyboard-response","475","","","","",""
"1244","puppet","napulo,lamok,godoro,mazishi","mazishi","n","3","html-keyboard-response","476","n","mazishi","true","","1"
"2294.1000000089407","","","","","3","html-slider-response","477","","","","5",""
"887","","","","","3","html-keyboard-response","478","","","","",""
"5100","poster","nchi,fedha,madungog,kasuko","madungog","j","3","html-keyboard-response","479","n","kasuko","false","","4"
"2770.2000000029802","","","","","3","html-slider-response","480","","","","4",""
"778","","","","","3","html-keyboard-response","481","","","","",""
"1387","music","mraba,baiski,mageho,tumbo","baiski","v","3","html-keyboard-response","482","f","mraba","false","","4"
"2043.0999999940395","","","","","3","html-slider-response","483","","","","4",""
"790","","","","","3","html-keyboard-response","484","","","","",""
"1207","key","miaka,goma,ahos,chombo","chombo","n","3","html-keyboard-response","485","f","miaka","false","","4"
"1985.5999999940395","","","","","3","html-slider-response","486","","","","2",""
"598","","","","","3","html-keyboard-response","487","","","","",""
"1351","sock","mamba,ndoora,kimysa,mtirka","mamba","f","3","html-keyboard-response","488","j","kimysa","false","","4"
"2203.5999999940395","","","","","3","html-slider-response","489","","","","4",""
"699","","","","","3","html-keyboard-response","490","","","","",""
"1279","marker","mapafu,salita,maji,atay","maji","j","3","html-keyboard-response","491","n","atay","false","","4"
"1963.0999999940395","","","","","3","html-slider-response","492","","","","4",""
"519","","","","","3","html-keyboard-response","493","","","","",""
"1436","office","hazini,leso,yatima,kuna","leso","v","3","html-keyboard-response","494","f","hazini","false","","4"
"2325.6000000089407","","","","","3","html-slider-response","495","","","","1",""
"567","","","","","3","html-keyboard-response","496","","","","",""
"1912","shoe","nyeusi,hatua,kama,uyoga","uyoga","n","3","html-keyboard-response","497","n","uyoga","true","","4"
"2106.4000000059605","","","","","3","html-slider-response","498","","","","2",""
"856","","","","","3","html-keyboard-response","499","","","","",""
"1075","cop","mechezo,bustani,jikoni,bakus","mechezo","f","3","html-keyboard-response","500","j","jikoni","false","","4"
"2584.2999999970198","","","","","3","html-slider-response","501","","","","2",""
"575","","","","","3","html-keyboard-response","502","","","","",""
"2140","bank","kudhibi,silingan,tualya,ofisi","silingan","v","3","html-keyboard-response","503","n","ofisi","false","","4"
"2529.9000000059605","","","","","3","html-slider-response","504","","","","4",""
"528","","","","","3","html-keyboard-response","505","","","","",""
"1275","letter","filimbi,kifua,chuma,uhuru","kifua","v","3","html-keyboard-response","506","v","kifua","true","","1"
"2118.6000000089407","","","","","3","html-slider-response","507","","","","5",""
"631","","","","","3","html-keyboard-response","508","","","","",""
"1066","dog","bahari,lubi,washia,kalamu","bahari","f","3","html-keyboard-response","509","f","bahari","true","","1"
"2225.5","","","","","3","html-slider-response","510","","","","5",""
"598","","","","","3","html-keyboard-response","511","","","","",""
"1659","shop","nopya,samaki,kerida,ndezu","samaki","v","3","html-keyboard-response","512","f","nopya","false","","4"
"2375.1000000089407","","","","","3","html-slider-response","513","","","","2",""
"755","","","","","3","html-keyboard-response","514","","","","",""
"944","flower","tamasha,bega,lobo,usiku","bega","v","3","html-keyboard-response","515","f","tamasha","false","","4"
"1656.5","","","","","3","html-slider-response","516","","","","4",""
"879","","","","","3","html-keyboard-response","517","","","","",""
"1289","cigar","ndugu,adhabu,kuta,mlango","adhabu","v","3","html-keyboard-response","518","v","adhabu","true","","1"
"1879.4000000059605","","","","","3","html-slider-response","519","","","","5",""
"642","","","","","3","html-keyboard-response","520","","","","",""
"2229","hammer","mekno,napakyas,kitovu,layag","napakyas","v","3","html-keyboard-response","521","f","mekno","false","","4"
"2724.5999999940395","","","","","3","html-slider-response","522","","","","4",""
"608","","","","","3","html-keyboard-response","523","","","","",""
"1639","fork","mgonjwa,baboy,paghago,gorisi","mgonjwa","f","3","html-keyboard-response","524","f","mgonjwa","true","","4"
"2026.7000000029802","","","","","3","html-slider-response","525","","","","2",""
"863","","","","","3","html-keyboard-response","526","","","","",""
"1023","sun","basi,bendi,luha,uongo","basi","f","3","html-keyboard-response","527","f","basi","true","","1"
"5378.199999988079","","","","","3","html-slider-response","528","","","","5",""
"11126","","","","","3","html-keyboard-response","529","","","","",""
"3037","ladder","mashua,pangalan,mwanga,kamba","pangalan","v","3","html-keyboard-response","530","v","pangalan","true","","4"
"2285.2999999970198","","","","","3","html-slider-response","531","","","","4",""
"982","","","","","3","html-keyboard-response","532","","","","",""
"1123","banana","kazi,kasamok,hagdan,twai","kazi","f","3","html-keyboard-response","533","f","kazi","true","","1"
"1791.699999988079","","","","","3","html-slider-response","534","","","","4",""
"952","","","","","3","html-keyboard-response","535","","","","",""
"1568","pudding","abug,mpishi,iring,aibu","aibu","n","3","html-keyboard-response","536","j","iring","false","","4"
"2316.9000000059605","","","","","3","html-slider-response","537","","","","4",""
"744","","","","","3","html-keyboard-response","538","","","","",""
"1455","body","nyundu,jibini,kununa,tindashan","tindashan","n","3","html-keyboard-response","539","j","kununa","false","","4"
"2233","","","","","3","html-slider-response","540","","","","4",""
"918","","","","","3","html-keyboard-response","541","","","","",""
"1186","bed","kalipay,haraka,mapintas,starehe","mapintas","j","3","html-keyboard-response","542","f","kalipay","false","","4"
"2343.5999999940395","","","","","3","html-slider-response","543","","","","2",""
"748","","","","","3","html-keyboard-response","544","","","","",""
"1155","tissue","lamigas,kisiwa,ugomvi,katika","ugomvi","j","3","html-keyboard-response","545","n","katika","false","","4"
"2927.5","","","","","3","html-slider-response","546","","","","4",""
"638","","","","","3","html-keyboard-response","547","","","","",""
"1476","candle","geza,gabi,farasi,kupanda","geza","f","3","html-keyboard-response","548","v","gabi","false","","4"
"2405.7999999970198","","","","","3","html-slider-response","549","","","","2",""
"618","","","","","3","html-keyboard-response","550","","","","",""
"1121","tomato","chupi,mvua,chupa,takatak","mvua","v","3","html-keyboard-response","551","v","mvua","true","","1"
"2139.3999999910593","","","","","3","html-slider-response","552","","","","4",""
"677","","","","","3","html-keyboard-response","553","","","","",""
"4969","list","alizeti,kuzama,wingu,kaso","wingu","j","3","html-keyboard-response","554","f","alizeti","false","","4"
"2340.4000000059605","","","","","3","html-slider-response","555","","","","4",""
"730","","","","","3","html-keyboard-response","556","","","","",""
"1427","olive","bata,siagi,welder,jiwe","jiwe","n","3","html-keyboard-response","557","f","bata","false","","4"
"2921.2999999970198","","","","","3","html-slider-response","558","","","","2",""
"751","","","","","3","html-keyboard-response","559","","","","",""
"1450","picture","silya,kubwa,chaki,asin","kubwa","v","3","html-keyboard-response","560","v","kubwa","true","","1"
"1872.2000000029802","","","","","3","html-slider-response","561","","","","5",""
"655","","","","","3","html-keyboard-response","562","","","","",""
"2006","page","wakala,ishiri,skina,wimbo","wimbo","n","4","html-keyboard-response","888","f","wakala","false","",""
"3483.2000000029802","","","","","4","html-slider-response","889","","","","4",""
"1807","sheet","juuya,watu,kamantis,bililhon","bililhon","n","4","html-keyboard-response","890","v","watu","false","",""
"2088.0999999940395","","","","","4","html-slider-response","891","","","","2",""
"4509","ladder","pangalan,mashua,mwanga,kamba","pangalan","f","4","html-keyboard-response","892","v","mashua","false","",""
"1995.7000000029802","","","","","4","html-slider-response","893","","","","2",""
"1561","door","tena,soko,nyota,surali","surali","n","4","html-keyboard-response","894","j","nyota","false","",""
"1810.6000000089407","","","","","4","html-slider-response","895","","","","4",""
"4880","spider","bunyag,kamwe,mkboa,atop","kamwe","v","4","html-keyboard-response","896","f","bunyag","false","",""
"1778.2000000029802","","","","","4","html-slider-response","897","","","","2",""
"3429","picture","kubwa,silya,chaki,asin","kubwa","f","4","html-keyboard-response","898","f","kubwa","true","",""
"2128.5","","","","","4","html-slider-response","899","","","","2",""
"1969","boat","hamsi,pombe,agalon,kitanda","agalon","j","4","html-keyboard-response","900","n","kitanda","false","",""
"2187.5999999940395","","","","","4","html-slider-response","901","","","","4",""
"4909","donkey","bloke,lalake,rombus,elfu","elfu","n","4","html-keyboard-response","902","j","rombus","false","",""
"2868.5","","","","","4","html-slider-response","903","","","","2",""
"3425","book","kuhesa,picha,mara,mali","mali","n","4","html-keyboard-response","904","j","mara","false","",""
"2197.7000000029802","","","","","4","html-slider-response","905","","","","4",""
"1418","cup","dagat,shimoni,matumai,jeraha","matumai","j","4","html-keyboard-response","906","v","shimoni","false","",""
"2613.2999999970198","","","","","4","html-slider-response","907","","","","2",""
"1892","sun","basi,bendi,luha,uongo","basi","f","4","html-keyboard-response","908","n","uongo","false","",""
"2240.2000000029802","","","","","4","html-slider-response","909","","","","4",""
"4066","pudding","aibu,abug,mpishi,iring","aibu","f","4","html-keyboard-response","910","f","aibu","true","",""
"2649.9000000059605","","","","","4","html-slider-response","911","","","","2",""
"1894","human","bado,tinapay,kikapu,punguza","tinapay","v","4","html-keyboard-response","912","j","kikapu","false","",""
"2732.9000000059605","","","","","4","html-slider-response","913","","","","4",""
"2679","squirrel","mahugaw,ukweli,hofu,kichwa","hofu","j","4","html-keyboard-response","914","f","mahugaw","false","",""
"1836.7000000029802","","","","","4","html-slider-response","915","","","","2",""
"1419","park","tambok,pwani,ihalas,bunifu","bunifu","n","4","html-keyboard-response","916","f","tambok","false","",""
"2035.5","","","","","4","html-slider-response","917","","","","1",""
"2974","poster","nchi,madungog,fedha,kasuko","madungog","v","4","html-keyboard-response","918","v","madungog","true","",""
"2363.2999999970198","","","","","4","html-slider-response","919","","","","4",""
"2375","wolf","kaburi,ndizi,mchuzi,lugha","lugha","n","4","html-keyboard-response","920","n","lugha","true","",""
"2337.2000000029802","","","","","4","html-slider-response","921","","","","4",""
"2940","cat","neyemba,baki,paghukom,akili","paghukom","j","4","html-keyboard-response","922","n","akili","false","",""
"2656.5","","","","","4","html-slider-response","923","","","","2",""
"4552","fish","bala,baho,buli,imani","buli","j","4","html-keyboard-response","924","j","buli","true","",""
"2177","","","","","4","html-slider-response","925","","","","5",""
"2633","tooth","kijiko,uadui,kabalaka,pahiyum","kabalaka","j","4","html-keyboard-response","926","j","kabalaka","true","",""
"2632","","","","","4","html-slider-response","927","","","","4",""
"982","cave","ganti,kesho,maisha,nyundo","kesho","v","4","html-keyboard-response","928","f","ganti","false","",""
"1981.2000000029802","","","","","4","html-slider-response","929","","","","2",""
"825","lamp","daub,bilaska,mbolea,afya","afya","n","4","html-keyboard-response","930","v","bilaska","false","",""
"1958.6000000089407","","","","","4","html-slider-response","931","","","","4",""
"2883","banana","kasamok,hagdan,twai,kazi","kazi","n","4","html-keyboard-response","932","j","twai","false","",""
"2131.5999999940395","","","","","4","html-slider-response","933","","","","2",""
"6840","bonfire","mwezi,mfuko,kusanya,goti","goti","n","4","html-keyboard-response","934","n","goti","true","",""
"2426.2000000029802","","","","","4","html-slider-response","935","","","","5",""
"1650","cop","mechezo,bustani,jikoni,bakus","mechezo","f","4","html-keyboard-response","936","v","bustani","false","",""
"2516.8999999910593","","","","","4","html-slider-response","937","","","","4",""
"1756","marker","mapafu,salita,maji,atay","maji","j","4","html-keyboard-response","938","v","salita","false","",""
"2654.7000000029802","","","","","4","html-slider-response","939","","","","4",""
"1684","window","kweli,nanga,kujenga,umaga","kweli","f","4","html-keyboard-response","940","f","kweli","true","",""
"2232.2999999970198","","","","","4","html-slider-response","941","","","","2",""
"1143","body","nyundu,jibini,kununa,tindashan","tindashan","n","4","html-keyboard-response","942","n","tindashan","true","",""
"2192.800000011921","","","","","4","html-slider-response","943","","","","4",""
"4039","apple","ukame,kisu,estante,edad","kisu","v","4","html-keyboard-response","944","f","ukame","false","",""
"2834.3999999910593","","","","","4","html-slider-response","945","","","","2",""
"1746","salmon","mzungu,sensilyo,seri,baharia","sensilyo","v","4","html-keyboard-response","946","v","sensilyo","true","",""
"1774.5999999940395","","","","","4","html-slider-response","947","","","","4",""
"851","bed","kalipay,haraka,mapintas,starehe","mapintas","j","4","html-keyboard-response","948","v","haraka","false","",""
"1672.9000000059605","","","","","4","html-slider-response","949","","","","4",""
"1122","berry","abogado,nogozi,kinywa,kofia","kofia","n","4","html-keyboard-response","950","f","abogado","false","",""
"1994.9000000059605","","","","","4","html-slider-response","951","","","","2",""
"1630","mirror","rangi,kanding,sulagma,furaha","sulagma","j","4","html-keyboard-response","952","n","furaha","false","",""
"2453.6000000089407","","","","","4","html-slider-response","953","","","","4",""
"1665","flag","trekta,ndege,mkate,kawa","trekta","f","4","html-keyboard-response","954","f","trekta","true","",""
"1985.2999999970198","","","","","4","html-slider-response","955","","","","2",""
"4696","shoulder","kelele,ndaniya,guruwe,mkuu","mkuu","n","4","html-keyboard-response","956","n","mkuu","true","",""
"2027","","","","","4","html-slider-response","957","","","","4",""
"4089","tissue","ugomvi,lamigas,kisiwa,katika","ugomvi","f","4","html-keyboard-response","958","n","katika","false","",""
"2734.6000000089407","","","","","4","html-slider-response","959","","","","2",""
"8167","notebook","msitu,kemia,kila,mdudu","kemia","v","4","html-keyboard-response","960","v","kemia","true","",""
"2361.3999999910593","","","","","4","html-slider-response","961","","","","4",""
"4006","snake","jansa,karon,pagtukod,mvringo","pagtukod","j","4","html-keyboard-response","962","v","karon","false","",""
"2859.5","","","","","4","html-slider-response","963","","","","2",""
"6535","finger","moyo,simu,sufuria,lima","moyo","f","4","html-keyboard-response","964","f","moyo","true","",""
"2232.7000000029802","","","","","4","html-slider-response","965","","","","5",""
"2400","basket","kumbuka,utepe,kumba,hasira","kumba","j","4","html-keyboard-response","966","j","kumba","true","",""
"2115.3999999910593","","","","","4","html-slider-response","967","","","","4",""
"1369","curtain","lisud,bulwawan,chubani,mchanga","mchanga","n","4","html-keyboard-response","968","f","lisud","false","",""
"2344.6000000089407","","","","","4","html-slider-response","969","","","","2",""
"1403","perfume","bino,sungura,ndogo,katuyoan","katuyoan","n","4","html-keyboard-response","970","v","sungura","false","",""
"2713.5","","","","","4","html-slider-response","971","","","","4",""
"3656","key","miaka,chombo,goma,ahos","chombo","v","4","html-keyboard-response","972","f","miaka","false","",""
"1762.5","","","","","4","html-slider-response","973","","","","2",""
"1624","olive","bata,jiwe,siagi,welder","jiwe","v","4","html-keyboard-response","974","v","jiwe","true","",""
"2067.4000000059605","","","","","4","html-slider-response","975","","","","4",""
"810","rose","singizi,mwanake,amani,paghalad","paghalad","n","4","html-keyboard-response","976","v","mwanake","false","",""
"1735.7999999970198","","","","","4","html-slider-response","977","","","","1",""
"2902","bridge","daima,sahani,ngono,panya","sahani","v","4","html-keyboard-response","978","j","ngono","false","",""
"2498","","","","","4","html-slider-response","979","","","","4",""
"1587","hill","kushoto,matumbo,kukimba,sweta","matumbo","v","4","html-keyboard-response","980","f","kushoto","false","",""
"2785.5","","","","","4","html-slider-response","981","","","","2",""
"3290","letter","kifua,filimbi,chuma,uhuru","kifua","f","4","html-keyboard-response","982","n","uhuru","false","",""
"1921.5","","","","","4","html-slider-response","983","","","","4",""
"2445","sock","ndoora,kimysa,mtirka,mamba","mamba","n","4","html-keyboard-response","984","j","mtirka","false","",""
"2460.2000000029802","","","","","4","html-slider-response","985","","","","2",""
"6431","fork","mgonjwa,baboy,paghago,gorisi","mgonjwa","f","4","html-keyboard-response","986","n","gorisi","false","",""
"2370.2999999970198","","","","","4","html-slider-response","987","","","","4",""
"3173","box","kuacha,rafiki,kitande,adui","adui","n","4","html-keyboard-response","988","f","kuacha","false","",""
"1954.800000011921","","","","","4","html-slider-response","989","","","","2",""
"1465","gift","baba,pagtawag,nyange,baso","pagtawag","v","4","html-keyboard-response","990","v","pagtawag","true","",""
"3811.0999999940395","","","","","4","html-slider-response","991","","","","5",""
"842","bucket","kiatu,baga,ijayo,init","kiatu","f","4","html-keyboard-response","992","v","baga","false","",""
"1819.7999999970198","","","","","4","html-slider-response","993","","","","2",""
"1805","shop","nopya,kerida,samaki,ndezu","samaki","j","4","html-keyboard-response","994","n","ndezu","false","",""
"2592.2999999970198","","","","","4","html-slider-response","995","","","","4",""
"1567","puppet","napulo,mazishi,lamok,godoro","mazishi","v","4","html-keyboard-response","996","f","napulo","false","",""
"2038.199999988079","","","","","4","html-slider-response","997","","","","2",""
"3599","nose","gubat,kopa,sehemu,kidole","sehemu","j","4","html-keyboard-response","998","v","kopa","false","",""
"2125.7999999970198","","","","","4","html-slider-response","999","","","","4",""
"1422","music","mraba,mageho,baiski,tumbo","baiski","j","4","html-keyboard-response","1000","f","mraba","false","",""
"7487.300000011921","","","","","4","html-slider-response","1001","","","","2",""
"1173","dog","bahari,lubi,washia,kalamu","bahari","f","4","html-keyboard-response","1002","v","lubi","false","",""
"1830.0999999940395","","","","","4","html-slider-response","1003","","","","4",""
"2944","eel","ishara,kunywa,msumari,kabuang","msumari","j","4","html-keyboard-response","1004","f","ishara","false","",""
"2411.0999999940395","","","","","4","html-slider-response","1005","","","","2",""
"4046","number","shule,kengele,choori,mundamo","mundamo","n","4","html-keyboard-response","1006","v","kengele","false","",""
"2124.699999988079","","","","","4","html-slider-response","1007","","","","4",""
"1578","tomato","chupi,mvua,chupa,takatak","mvua","v","4","html-keyboard-response","1008","n","takatak","false","",""
"2225.2000000029802","","","","","4","html-slider-response","1009","","","","4",""
"1444","coffin","kioo,barua,tubag,hulma","kioo","f","4","html-keyboard-response","1010","j","tubag","false","",""
"2259.9000000059605","","","","","4","html-slider-response","1011","","","","4",""
"1132","knee","duka,mvuke,kubale,bili","duka","f","4","html-keyboard-response","1012","f","duka","true","",""
"1677","","","","","4","html-slider-response","1013","","","","2",""
"3076","woman","bandari,pagtabon,bituin,kovuli","pagtabon","v","4","html-keyboard-response","1014","f","bandari","false","",""
"1864.5","","","","","4","html-slider-response","1015","","","","2",""
"2824","stone","ulimwengu,mkasi,asili,wingi","wingi","n","4","html-keyboard-response","1016","v","mkasi","false","",""
"1838","","","","","4","html-slider-response","1017","","","","4",""
"2888","bread","dari,kaili,dizeli,bugas","dari","f","4","html-keyboard-response","1018","f","dari","true","",""
"2052.0999999940395","","","","","4","html-slider-response","1019","","","","2",""
"3329","triangle","kihozi,kasadpan,bentaha,liog","kasadpan","v","4","html-keyboard-response","1020","n","liog","false","",""
"2145.9000000059605","","","","","4","html-slider-response","1021","","","","4",""
"3397","scissors","tanuri,duga,mtawa,suga","tanuri","f","4","html-keyboard-response","1022","v","duga","false","",""
"2290.1000000089407","","","","","4","html-slider-response","1023","","","","2",""
"1701","giraffe","daraja,mahitabo,jumatu,hangyo","mahitabo","v","4","html-keyboard-response","1024","f","daraja","false","",""
"2003.9000000059605","","","","","4","html-slider-response","1025","","","","4",""
"2337","flower","tamasha,lobo,bega,usiku","bega","j","4","html-keyboard-response","1026","n","usiku","false","",""
"2205.1000000089407","","","","","4","html-slider-response","1027","","","","2",""
"1929","candle","gabi,farasi,kupanda,geza","geza","n","4","html-keyboard-response","1028","f","gabi","false","",""
"2179.6000000089407","","","","","4","html-slider-response","1029","","","","2",""
"4363","mother","babaye,kahawa,mbuzi,jokofu","babaye","f","4","html-keyboard-response","1030","v","kahawa","false","",""
"2582.0999999940395","","","","","4","html-slider-response","1031","","","","4",""
"1198","towel","pagpalit,tembo,funzi,pito","pagpalit","f","4","html-keyboard-response","1032","v","tembo","false","",""
"1973.7000000029802","","","","","4","html-slider-response","1033","","","","2",""
"1688","elephant","kito,petye,pagduol,suka","kito","f","4","html-keyboard-response","1034","j","pagduol","false","",""
"1842.5","","","","","4","html-slider-response","1035","","","","4",""
"2278","shelf","bungtod,kadaot,awit,pamahaw","pamahaw","n","4","html-keyboard-response","1036","v","kadaot","false","",""
"2027.7000000029802","","","","","4","html-slider-response","1037","","","","2",""
"2978","mosquito","isda,taras,martilyo,gutom","martilyo","j","4","html-keyboard-response","1038","j","martilyo","true","",""
"2394.5999999940395","","","","","4","html-slider-response","1039","","","","4",""
"1714","column","pundok,dila,ufagio,pala","ufagio","j","4","html-keyboard-response","1040","f","pundok","false","",""
"1979.300000011921","","","","","4","html-slider-response","1041","","","","2",""
"8469","pants","pintal,chuki,hari,haki","haki","n","4","html-keyboard-response","1042","n","haki","true","",""
"2573.0999999940395","","","","","4","html-slider-response","1043","","","","5",""
"2029","list","alizeti,wingu,kuzama,kaso","wingu","v","4","html-keyboard-response","1044","v","wingu","true","",""
"1945.9000000059605","","","","","4","html-slider-response","1045","","","","2",""
"2413","bank","kudhibi,tualya,ofisi,silingan","silingan","n","4","html-keyboard-response","1046","n","silingan","true","",""
"2119","","","","","4","html-slider-response","1047","","","","4",""
"1825","clock","mbwa,kartasi,abang,osha","mbwa","f","4","html-keyboard-response","1048","v","kartasi","false","",""
"1724.9000000059605","","","","","4","html-slider-response","1049","","","","2",""
"1161","ceiling","kugita,kawaida,maua,rayna","maua","j","4","html-keyboard-response","1050","f","kugita","false","",""
"1804.5","","","","","4","html-slider-response","1051","","","","1",""
"1607","train","itik,dakika,mungu,sayari","sayari","n","4","html-keyboard-response","1052","j","mungu","false","",""
"2193.2000000029802","","","","","4","html-slider-response","1053","","","","4",""
"1410","magazine","gundi,mchawi,bahandi,kiti","kiti","n","4","html-keyboard-response","1054","v","mchawi","false","",""
"2577.2000000029802","","","","","4","html-slider-response","1055","","","","2",""
"1361","office","hazini,leso,yatima,kuna","leso","v","4","html-keyboard-response","1056","f","hazini","false","",""
"1922.5","","","","","4","html-slider-response","1057","","","","1",""
"1443","wheel","bafuni,punda,tawo,baadaye","bafuni","f","4","html-keyboard-response","1058","n","baadaye","false","",""
"2274.6000000089407","","","","","4","html-slider-response","1059","","","","4",""
"3165","spoon","betri,pagsulod,nzuri,ngazi","pagsulod","v","4","html-keyboard-response","1060","j","nzuri","false","",""
"2174.5","","","","","4","html-slider-response","1061","","","","2",""
"1765","hammer","mekno,napakyas,kitovu,layag","napakyas","v","4","html-keyboard-response","1062","v","napakyas","true","",""
"2135.2999999970198","","","","","4","html-slider-response","1063","","","","4",""
"1826","cigar","ndugu,kuta,mlango,adhabu","adhabu","n","4","html-keyboard-response","1064","v","kuta","false","",""
"1890.9000000059605","","","","","4","html-slider-response","1065","","","","2",""
"4696","shoe","nyeusi,uyoga,hatua,kama","uyoga","v","4","html-keyboard-response","1066","n","kama","false","",""
"2279.2000000029802","","","","","4","html-slider-response","1067","","","","4",""
"1838","list","wingu,alizeti,kuzama,kaso","wingu","f","5","html-keyboard-response","1069","v","alizeti","false","",""
"4060","","","","","5","html-slider-response","1070","","","","2",""
"1381","number","shule,kengele,mundamo,choori","mundamo","j","5","html-keyboard-response","1071","n","choori","false","",""
"1959.6000000089407","","","","","5","html-slider-response","1072","","","","4",""
"2453","apple","ukame,kisu,estante,edad","kisu","v","5","html-keyboard-response","1073","n","edad","false","",""
"2294.199999988079","","","","","5","html-slider-response","1074","","","","2",""
"1712","knee","mvuke,kubale,bili,duka","duka","n","5","html-keyboard-response","1075","f","mvuke","false","",""
"1914.699999988079","","","","","5","html-slider-response","1076","","","","2",""
"3492","tooth","kijiko,kabalaka,uadui,pahiyum","kabalaka","v","5","html-keyboard-response","1077","v","kabalaka","true","",""
"2678.7000000029802","","","","","5","html-slider-response","1078","","","","5",""
"2031","berry","kofia,abogado,nogozi,kinywa","kofia","f","5","html-keyboard-response","1079","v","abogado","false","",""
"2347.9000000059605","","","","","5","html-slider-response","1080","","","","4",""
"1194","bridge","daima,sahani,ngono,panya","sahani","v","5","html-keyboard-response","1081","v","sahani","true","",""
"2715","","","","","5","html-slider-response","1082","","","","4",""
"1444","perfume","bino,sungura,ndogo,katuyoan","katuyoan","n","5","html-keyboard-response","1083","f","bino","false","",""
"1924.5999999940395","","","","","5","html-slider-response","1084","","","","2",""
"1513","ladder","mashua,mwanga,kamba,pangalan","pangalan","n","5","html-keyboard-response","1085","f","mashua","false","",""
"2207.5999999940395","","","","","5","html-slider-response","1086","","","","4",""
"1316","pants","pintal,chuki,hari,haki","haki","n","5","html-keyboard-response","1087","f","pintal","false","",""
"4681.399999991059","","","","","5","html-slider-response","1088","","","","1",""
"1764","salmon","mzungu,sensilyo,seri,baharia","sensilyo","v","5","html-keyboard-response","1089","n","baharia","false","",""
"2498.2999999970198","","","","","5","html-slider-response","1090","","","","2",""
"1532","coffin","barua,tubag,hulma,kioo","kioo","n","5","html-keyboard-response","1091","v","tubag","false","",""
"1769.9000000059605","","","","","5","html-slider-response","1092","","","","4",""
"1548","park","tambok,bunifu,pwani,ihalas","bunifu","v","5","html-keyboard-response","1093","j","pwani","false","",""
"2264.6000000089407","","","","","5","html-slider-response","1094","","","","4",""
"3326","giraffe","daraja,mahitabo,jumatu,hangyo","mahitabo","v","5","html-keyboard-response","1095","v","mahitabo","true","",""
"2599.699999988079","","","","","5","html-slider-response","1096","","","","4",""
"2724","mirror","rangi,sulagma,kanding,furaha","sulagma","v","5","html-keyboard-response","1097","j","kanding","false","",""
"2326.1000000089407","","","","","5","html-slider-response","1098","","","","2",""
"1236","ceiling","kugita,maua,kawaida,rayna","maua","v","5","html-keyboard-response","1099","v","maua","true","",""
"1881.7000000029802","","","","","5","html-slider-response","1100","","","","2",""
"2513","marker","maji,mapafu,salita,atay","maji","f","5","html-keyboard-response","1101","j","salita","false","",""
"2251.7000000029802","","","","","5","html-slider-response","1102","","","","4",""
"2141","sock","ndoora,kimysa,mtirka,mamba","mamba","n","5","html-keyboard-response","1103","n","mamba","true","",""
"2524.5999999940395","","","","","5","html-slider-response","1104","","","","1",""
"2361","cop","mechezo,bustani,jikoni,bakus","mechezo","f","5","html-keyboard-response","1105","v","bustani","false","",""
"3041.7000000029802","","","","","5","html-slider-response","1106","","","","2",""
"4526","gift","baba,nyange,baso,pagtawag","pagtawag","n","5","html-keyboard-response","1107","f","baba","false","",""
"2519.5","","","","","5","html-slider-response","1108","","","","2",""
"1078","notebook","msitu,kila,kemia,mdudu","kemia","j","5","html-keyboard-response","1109","f","msitu","false","",""
"1781.800000011921","","","","","5","html-slider-response","1110","","","","2",""
"5103","bank","kudhibi,tualya,silingan,ofisi","silingan","j","5","html-keyboard-response","1111","n","ofisi","false","",""
"2669.699999988079","","","","","5","html-slider-response","1112","","","","4",""
"3173","letter","kifua,filimbi,chuma,uhuru","kifua","f","5","html-keyboard-response","1113","v","filimbi","false","",""
"1874.8999999910593","","","","","5","html-slider-response","1114","","","","2",""
"1209","candle","gabi,farasi,geza,kupanda","geza","j","5","html-keyboard-response","1115","f","gabi","false","",""
"3339.2999999970198","","","","","5","html-slider-response","1116","","","","2",""
"3727","bread","kaili,dizeli,dari,bugas","dari","j","5","html-keyboard-response","1117","j","dari","true","",""
"2183.2999999970198","","","","","5","html-slider-response","1118","","","","4",""
"2706","snake","jansa,pagtukod,karon,mvringo","pagtukod","v","5","html-keyboard-response","1119","v","pagtukod","true","",""
"4713.899999991059","","","","","5","html-slider-response","1120","","","","4",""
"1077","rose","singizi,paghalad,mwanake,amani","paghalad","v","5","html-keyboard-response","1121","f","singizi","false","",""
"2182.1000000089407","","","","","5","html-slider-response","1122","","","","4",""
"1256","hill","kushoto,kukimba,matumbo,sweta","matumbo","j","5","html-keyboard-response","1123","v","kukimba","false","",""
"2089.9000000059605","","","","","5","html-slider-response","1124","","","","2",""
"1485","train","itik,dakika,mungu,sayari","sayari","n","5","html-keyboard-response","1125","n","sayari","true","",""
"3076.699999988079","","","","","5","html-slider-response","1126","","","","1",""
"1144","shop","nopya,kerida,samaki,ndezu","samaki","j","5","html-keyboard-response","1127","v","kerida","false","",""
"2455.7000000029802","","","","","5","html-slider-response","1128","","","","1",""
"1188","nose","gubat,kopa,sehemu,kidole","sehemu","j","5","html-keyboard-response","1129","f","gubat","false","",""
"1759.2000000029802","","","","","5","html-slider-response","1130","","","","2",""
"2611","boat","agalon,hamsi,pombe,kitanda","agalon","f","5","html-keyboard-response","1131","v","hamsi","false","",""
"1818","","","","","5","html-slider-response","1132","","","","4",""
"2572","body","nyundu,jibini,kununa,tindashan","tindashan","n","5","html-keyboard-response","1133","v","jibini","false","",""
"1990.0999999940395","","","","","5","html-slider-response","1134","","","","4",""
"1946","bed","mapintas,kalipay,haraka,starehe","mapintas","f","5","html-keyboard-response","1135","j","haraka","false","",""
"2682.300000011921","","","","","5","html-slider-response","1136","","","","4",""
"3297","squirrel","mahugaw,ukweli,hofu,kichwa","hofu","j","5","html-keyboard-response","1137","n","kichwa","false","",""
"2504.6000000089407","","","","","5","html-slider-response","1138","","","","4",""
"1752","window","nanga,kujenga,kweli,umaga","kweli","j","5","html-keyboard-response","1139","f","nanga","false","",""
"2818.5","","","","","5","html-slider-response","1140","","","","2",""
"7465","bonfire","goti,mwezi,mfuko,kusanya","goti","f","5","html-keyboard-response","1141","f","goti","true","",""
"2249.2999999970198","","","","","5","html-slider-response","1142","","","","5",""
"1130","fish","bala,baho,buli,imani","buli","j","5","html-keyboard-response","1143","f","bala","false","",""
"1753.4000000059605","","","","","5","html-slider-response","1144","","","","4",""
"1588","cat","neyemba,paghukom,baki,akili","paghukom","v","5","html-keyboard-response","1145","j","baki","false","",""
"2265.2999999970198","","","","","5","html-slider-response","1146","","","","2",""
"1923","spider","kamwe,bunyag,mkboa,atop","kamwe","f","5","html-keyboard-response","1147","f","kamwe","true","",""
"1749.2999999970198","","","","","5","html-slider-response","1148","","","","2",""
"1173","eel","ishara,msumari,kunywa,kabuang","msumari","v","5","html-keyboard-response","1149","v","msumari","true","",""
"1928.5","","","","","5","html-slider-response","1150","","","","2",""
"2670","woman","pagtabon,bandari,bituin,kovuli","pagtabon","f","5","html-keyboard-response","1151","j","bituin","false","",""
"2497.7999999970198","","","","","5","html-slider-response","1152","","","","4",""
"1382","magazine","gundi,mchawi,kiti,bahandi","kiti","j","5","html-keyboard-response","1153","f","gundi","false","",""
"1850.6000000089407","","","","","5","html-slider-response","1154","","","","2",""
"1627","pudding","aibu,abug,mpishi,iring","aibu","f","5","html-keyboard-response","1155","f","aibu","true","",""
"1876.5","","","","","5","html-slider-response","1156","","","","2",""
"1525","lamp","daub,bilaska,mbolea,afya","afya","n","5","html-keyboard-response","1157","n","afya","true","",""
"2045.9000000059605","","","","","5","html-slider-response","1158","","","","2",""
"6824","cave","kesho,ganti,maisha,nyundo","kesho","f","5","html-keyboard-response","1159","f","kesho","true","",""
"2059","","","","","5","html-slider-response","1160","","","","2",""
"1527","shoulder","kelele,ndaniya,mkuu,guruwe","mkuu","j","5","html-keyboard-response","1161","f","kelele","false","",""
"2857.2000000029802","","","","","5","html-slider-response","1162","","","","4",""
"1288","stone","ulimwengu,wingi,mkasi,asili","wingi","v","5","html-keyboard-response","1163","f","ulimwengu","false","",""
"2330.0999999940395","","","","","5","html-slider-response","1164","","","","2",""
"2042","column","pundok,ufagio,dila,pala","ufagio","v","5","html-keyboard-response","1165","n","pala","false","",""
"2481.5999999940395","","","","","5","html-slider-response","1166","","","","4",""
"2876","page","wimbo,wakala,ishiri,skina","wimbo","f","5","html-keyboard-response","1167","f","wimbo","true","",""
"2239.2000000029802","","","","","5","html-slider-response","1168","","","","2",""
"5147","shoe","uyoga,nyeusi,hatua,kama","uyoga","f","5","html-keyboard-response","1169","v","nyeusi","false","",""
"2227.1000000089407","","","","","5","html-slider-response","1170","","","","4",""
"1478","clock","kartasi,abang,mbwa,osha","mbwa","j","5","html-keyboard-response","1171","n","osha","false","",""
"3183.5","","","","","5","html-slider-response","1172","","","","2",""
"1486","towel","pagpalit,tembo,funzi,pito","pagpalit","f","5","html-keyboard-response","1173","f","pagpalit","true","",""
"2980.1000000089407","","","","","5","html-slider-response","1174","","","","2",""
"1104","tomato","chupi,mvua,chupa,takatak","mvua","v","5","html-keyboard-response","1175","v","mvua","true","",""
"2415.7999999970198","","","","","5","html-slider-response","1176","","","","4",""
"1370","bucket","baga,kiatu,ijayo,init","kiatu","v","5","html-keyboard-response","1177","n","init","false","",""
"2801.2000000029802","","","","","5","html-slider-response","1178","","","","2",""
"2546","finger","moyo,simu,sufuria,lima","moyo","f","5","html-keyboard-response","1179","f","moyo","true","",""
"2136.2999999970198","","","","","5","html-slider-response","1180","","","","5",""
"1051","mother","kahawa,babaye,mbuzi,jokofu","babaye","v","5","html-keyboard-response","1181","f","kahawa","false","",""
"2268","","","","","5","html-slider-response","1182","","","","4",""
"1666","human","tinapay,bado,kikapu,punguza","tinapay","f","5","html-keyboard-response","1183","f","tinapay","true","",""
"4365.20000000298","","","","","5","html-slider-response","1184","","","","2",""
"1556","sun","basi,bendi,luha,uongo","basi","f","5","html-keyboard-response","1185","f","basi","true","",""
"2531.2000000029802","","","","","5","html-slider-response","1186","","","","4",""
"776","fork","mgonjwa,baboy,paghago,gorisi","mgonjwa","f","5","html-keyboard-response","1187","n","gorisi","false","",""
"1994.2999999970198","","","","","5","html-slider-response","1188","","","","4",""
"1247","donkey","bloke,lalake,rombus,elfu","elfu","n","5","html-keyboard-response","1189","v","lalake","false","",""
"2079.9000000059605","","","","","5","html-slider-response","1190","","","","4",""
"804","wolf","kaburi,ndizi,lugha,mchuzi","lugha","j","5","html-keyboard-response","1191","f","kaburi","false","",""
"1665","","","","","5","html-slider-response","1192","","","","2",""
"877","cigar","ndugu,kuta,adhabu,mlango","adhabu","j","5","html-keyboard-response","1193","v","kuta","false","",""
"2062.199999988079","","","","","5","html-slider-response","1194","","","","1",""
"1599","olive","bata,siagi,jiwe,welder","jiwe","j","5","html-keyboard-response","1195","f","bata","false","",""
"2087.7999999970198","","","","","5","html-slider-response","1196","","","","4",""
"5682","key","miaka,goma,chombo,ahos","chombo","j","5","html-keyboard-response","1197","f","miaka","false","",""
"2158","","","","","5","html-slider-response","1198","","","","4",""
"872","door","tena,soko,surali,nyota","surali","j","5","html-keyboard-response","1199","f","tena","false","",""
"2202.2999999970198","","","","","5","html-slider-response","1200","","","","2",""
"2147","wheel","punda,tawo,baadaye,bafuni","bafuni","n","5","html-keyboard-response","1201","v","tawo","false","",""
"2570.9000000059605","","","","","5","html-slider-response","1202","","","","4",""
"2283","basket","kumba,kumbuka,utepe,hasira","kumba","f","5","html-keyboard-response","1203","j","utepe","false","",""
"2531.800000011921","","","","","5","html-slider-response","1204","","","","4",""
"1267","elephant","petye,kito,pagduol,suka","kito","v","5","html-keyboard-response","1205","v","kito","true","",""
"2272.800000011921","","","","","5","html-slider-response","1206","","","","2",""
"1435","office","leso,hazini,yatima,kuna","leso","f","5","html-keyboard-response","1207","f","leso","true","",""
"3304.6000000089407","","","","","5","html-slider-response","1208","","","","4",""
"2107","music","baiski,mraba,mageho,tumbo","baiski","f","5","html-keyboard-response","1209","n","tumbo","false","",""
"2920.3999999910593","","","","","5","html-slider-response","1210","","","","4",""
"1266","tissue","ugomvi,lamigas,kisiwa,katika","ugomvi","f","5","html-keyboard-response","1211","f","ugomvi","true","",""
"1949.4000000059605","","","","","5","html-slider-response","1212","","","","2",""
"1448","curtain","lisud,mchanga,bulwawan,chubani","mchanga","v","5","html-keyboard-response","1213","v","mchanga","true","",""
"2209.2999999970198","","","","","5","html-slider-response","1214","","","","1",""
"2409","flag","ndege,trekta,mkate,kawa","trekta","v","5","html-keyboard-response","1215","n","kawa","false","",""
"2589.7999999970198","","","","","5","html-slider-response","1216","","","","4",""
"1188","dog","lubi,bahari,washia,kalamu","bahari","v","5","html-keyboard-response","1217","f","lubi","false","",""
"1521","","","","","5","html-slider-response","1218","","","","2",""
"1096","cup","dagat,matumai,shimoni,jeraha","matumai","v","5","html-keyboard-response","1219","f","dagat","false","",""
"1957.5","","","","","5","html-slider-response","1220","","","","4",""
"2888","sheet","juuya,watu,bililhon,kamantis","bililhon","j","5","html-keyboard-response","1221","f","juuya","false","",""
"1987","","","","","5","html-slider-response","1222","","","","4",""
"1455","spoon","betri,nzuri,pagsulod,ngazi","pagsulod","j","5","html-keyboard-response","1223","n","ngazi","false","",""
"2526.4000000059605","","","","","5","html-slider-response","1224","","","","2",""
"1301","flower","bega,tamasha,lobo,usiku","bega","f","5","html-keyboard-response","1225","f","bega","true","",""
"2304","","","","","5","html-slider-response","1226","","","","2",""
"1814","picture","silya,chaki,asin,kubwa","kubwa","n","5","html-keyboard-response","1227","j","asin","false","",""
"2329.0999999940395","","","","","5","html-slider-response","1228","","","","4",""
"828","puppet","napulo,mazishi,lamok,godoro","mazishi","v","5","html-keyboard-response","1229","f","napulo","false","",""
"2091.3999999910593","","","","","5","html-slider-response","1230","","","","2",""
"1552","banana","kasamok,kazi,hagdan,twai","kazi","v","5","html-keyboard-response","1231","n","twai","false","",""
"2138.7000000029802","","","","","5","html-slider-response","1232","","","","4",""
"1041","book","mali,kuhesa,picha,mara","mali","f","5","html-keyboard-response","1233","f","mali","true","",""
"1954.1000000089407","","","","","5","html-slider-response","1234","","","","1",""
"1224","triangle","kihozi,kasadpan,bentaha,liog","kasadpan","v","5","html-keyboard-response","1235","f","kihozi","false","",""
"2020.2999999970198","","","","","5","html-slider-response","1236","","","","4",""
"1409","poster","nchi,fedha,kasuko,madungog","madungog","n","5","html-keyboard-response","1237","v","fedha","false","",""
"2192.2999999970198","","","","","5","html-slider-response","1238","","","","2",""
"1342","box","adui,kuacha,rafiki,kitande","adui","f","5","html-keyboard-response","1239","n","kitande","false","",""
"2438.2000000029802","","","","","5","html-slider-response","1240","","","","4",""
"986","mosquito","martilyo,isda,taras,gutom","martilyo","f","5","html-keyboard-response","1241","v","isda","false","",""
"3824.0999999940395","","","","","5","html-slider-response","1242","","","","1",""
"1298","shelf","bungtod,pamahaw,kadaot,awit","pamahaw","v","5","html-keyboard-response","1243","n","awit","false","",""
"1861","","","","","5","html-slider-response","1244","","","","4",""
"1107","scissors","tanuri,duga,mtawa,suga","tanuri","f","5","html-keyboard-response","1245","j","mtawa","false","",""
"2344.5","","","","","5","html-slider-response","1246","","","","4",""
"1328","hammer","mekno,napakyas,kitovu,layag","napakyas","v","5","html-keyboard-response","1247","f","mekno","false","",""
"2032.5999999940395","","","","","5","html-slider-response","1248","","","","2",""
