"rt","en_word","options","swa_word","correct_answer","phase","trial_type","trial_index","input_answer","input_word","accuracy","certainty","amt_choices"
"6406","bonfire","mwezi,mfuko,goti,kusanya","goti","j","2","html-keyboard-response","106","j","goti","true","",""
"3258","","","","","2","html-slider-response","107","","","","2",""
"3853","flower","bega,tamasha,lobo,usiku","bega","f","2","html-keyboard-response","108","f","bega","true","",""
"3526","","","","","2","html-slider-response","109","","","","4",""
"5962","column","pundok,dila,pala,ufagio","ufagio","n","2","html-keyboard-response","110","j","pala","false","",""
"1342","","","","","2","html-slider-response","111","","","","2",""
"9753","music","mraba,baiski,mageho,tumbo","baiski","v","2","html-keyboard-response","112","v","baiski","true","",""
"3208","","","","","2","html-slider-response","113","","","","1",""
"6181","spider","bunyag,kamwe,mkboa,atop","kamwe","v","2","html-keyboard-response","114","v","kamwe","true","",""
"2563","","","","","2","html-slider-response","115","","","","1",""
"4794","fork","baboy,paghago,gorisi,mgonjwa","mgonjwa","n","2","html-keyboard-response","116","n","mgonjwa","true","",""
"2558","","","","","2","html-slider-response","117","","","","5",""
"3398","mosquito","isda,taras,martilyo,gutom","martilyo","j","2","html-keyboard-response","118","j","martilyo","true","",""
"1695","","","","","2","html-slider-response","119","","","","5",""
"9266","banana","kasamok,kazi,hagdan,twai","kazi","v","2","html-keyboard-response","120","n","twai","false","",""
"1458","","","","","2","html-slider-response","121","","","","2",""
"5466","cup","dagat,shimoni,matumai,jeraha","matumai","j","2","html-keyboard-response","122","j","matumai","true","",""
"1842","","","","","2","html-slider-response","123","","","","2",""
"6586","shop","nopya,kerida,samaki,ndezu","samaki","j","2","html-keyboard-response","124","v","kerida","false","",""
"2160","","","","","2","html-slider-response","125","","","","1",""
"2248","elephant","kito,petye,pagduol,suka","kito","f","2","html-keyboard-response","126","f","kito","true","",""
"2727","","","","","2","html-slider-response","127","","","","5",""
"8240","bucket","baga,kiatu,ijayo,init","kiatu","v","2","html-keyboard-response","128","v","kiatu","true","",""
"1710","","","","","2","html-slider-response","129","","","","2",""
"5799","book","kuhesa,picha,mali,mara","mali","j","2","html-keyboard-response","130","f","kuhesa","false","",""
"1440","","","","","2","html-slider-response","131","","","","1",""
"11319","mirror","sulagma,rangi,kanding,furaha","sulagma","f","2","html-keyboard-response","132","j","kanding","false","",""
"1665","","","","","2","html-slider-response","133","","","","1",""
"3355","office","hazini,yatima,leso,kuna","leso","j","2","html-keyboard-response","134","j","leso","true","",""
"1781","","","","","2","html-slider-response","135","","","","4",""
"47121","body","nyundu,tindashan,jibini,kununa","tindashan","v","2","html-keyboard-response","136","j","jibini","false","",""
"1298","","","","","2","html-slider-response","137","","","","2",""
"3426","perfume","katuyoan,bino,sungura,ndogo","katuyoan","f","2","html-keyboard-response","138","v","bino","false","",""
"1201","","","","","2","html-slider-response","139","","","","1",""
"3180","olive","bata,jiwe,siagi,welder","jiwe","v","2","html-keyboard-response","140","f","bata","false","",""
"4801","","","","","2","html-slider-response","141","","","","2",""
"3444","magazine","gundi,mchawi,kiti,bahandi","kiti","j","2","html-keyboard-response","142","j","kiti","true","",""
"1678","","","","","2","html-slider-response","143","","","","4",""
"13625","bread","kaili,dari,dizeli,bugas","dari","v","2","html-keyboard-response","144","f","kaili","false","",""
"1581","","","","","2","html-slider-response","145","","","","1",""
"4581","cave","ganti,kesho,maisha,nyundo","kesho","v","2","html-keyboard-response","146","j","maisha","false","",""
"1900","","","","","2","html-slider-response","147","","","","1",""
"21489","ladder","mashua,mwanga,kamba,pangalan","pangalan","n","2","html-keyboard-response","148","f","mashua","false","",""
"2595","","","","","2","html-slider-response","149","","","","2",""
"3764","human","bado,tinapay,kikapu,punguza","tinapay","v","2","html-keyboard-response","150","v","tinapay","true","",""
"1284","","","","","2","html-slider-response","151","","","","5",""
"5489","clock","kartasi,abang,mbwa,osha","mbwa","j","2","html-keyboard-response","152","j","mbwa","true","",""
"2210","","","","","2","html-slider-response","153","","","","5",""
"3750","shelf","bungtod,kadaot,pamahaw,awit","pamahaw","j","2","html-keyboard-response","154","j","pamahaw","true","",""
"1994","","","","","2","html-slider-response","155","","","","5",""
"11111","salmon","mzungu,sensilyo,seri,baharia","sensilyo","v","2","html-keyboard-response","156","v","sensilyo","true","",""
"1732","","","","","2","html-slider-response","157","","","","2",""
"5424","coffin","kioo,barua,tubag,hulma","kioo","f","2","html-keyboard-response","158","j","tubag","false","",""
"1482","","","","","2","html-slider-response","159","","","","1",""
"33914","notebook","msitu,kila,mdudu,kemia","kemia","n","2","html-keyboard-response","160","j","mdudu","false","",""
"1741","","","","","2","html-slider-response","161","","","","1",""
"5600","shoulder","kelele,ndaniya,mkuu,guruwe","mkuu","j","2","html-keyboard-response","162","n","guruwe","false","",""
"1366","","","","","2","html-slider-response","163","","","","1",""
"11856","park","tambok,bunifu,pwani,ihalas","bunifu","v","2","html-keyboard-response","164","n","ihalas","false","",""
"1586","","","","","2","html-slider-response","165","","","","1",""
"4472","number","shule,kengele,mundamo,choori","mundamo","j","2","html-keyboard-response","166","f","shule","false","",""
"1516","","","","","2","html-slider-response","167","","","","1",""
"8690","apple","ukame,estante,kisu,edad","kisu","j","2","html-keyboard-response","168","j","kisu","true","",""
"3899","","","","","2","html-slider-response","169","","","","1",""
"13781","letter","filimbi,chuma,kifua,uhuru","kifua","j","2","html-keyboard-response","170","n","uhuru","false","",""
"2834","","","","","2","html-slider-response","171","","","","1",""
"5524","eel","msumari,ishara,kunywa,kabuang","msumari","f","2","html-keyboard-response","172","j","kunywa","false","",""
"1834","","","","","2","html-slider-response","173","","","","2",""
"9282","cop","bustani,mechezo,jikoni,bakus","mechezo","v","2","html-keyboard-response","174","n","bakus","false","",""
"1440","","","","","2","html-slider-response","175","","","","1",""
"5134","wolf","lugha,kaburi,ndizi,mchuzi","lugha","f","2","html-keyboard-response","176","f","lugha","true","",""
"2077","","","","","2","html-slider-response","177","","","","5",""
"3493","squirrel","hofu,mahugaw,ukweli,kichwa","hofu","f","2","html-keyboard-response","178","n","kichwa","false","",""
"2635","","","","","2","html-slider-response","179","","","","1",""
"8505","nose","gubat,kopa,sehemu,kidole","sehemu","j","2","html-keyboard-response","180","v","kopa","false","",""
"1940","","","","","2","html-slider-response","181","","","","2",""
"4374","sock","ndoora,mamba,kimysa,mtirka","mamba","v","2","html-keyboard-response","182","v","mamba","true","",""
"1712","","","","","2","html-slider-response","183","","","","5",""
"9078","bank","kudhibi,tualya,silingan,ofisi","silingan","j","2","html-keyboard-response","184","j","silingan","true","",""
"1397","","","","","2","html-slider-response","185","","","","4",""
"6858","donkey","elfu,bloke,lalake,rombus","elfu","f","2","html-keyboard-response","186","f","elfu","true","",""
"3729","","","","","2","html-slider-response","187","","","","2",""
"40960","poster","madungog,nchi,fedha,kasuko","madungog","f","2","html-keyboard-response","188","n","kasuko","false","",""
"1624","","","","","2","html-slider-response","189","","","","1",""
"4200","puppet","napulo,lamok,godoro,mazishi","mazishi","n","2","html-keyboard-response","190","n","mazishi","true","",""
"1738","","","","","2","html-slider-response","191","","","","2",""
"4252","hill","kushoto,kukimba,matumbo,sweta","matumbo","j","2","html-keyboard-response","192","v","kukimba","false","",""
"3360","","","","","2","html-slider-response","193","","","","1",""
"3641","tooth","kabalaka,kijiko,uadui,pahiyum","kabalaka","f","2","html-keyboard-response","194","n","pahiyum","false","",""
"2492","","","","","2","html-slider-response","195","","","","1",""
"33399","woman","pagtabon,bandari,bituin,kovuli","pagtabon","f","2","html-keyboard-response","196","f","pagtabon","true","",""
"1845","","","","","2","html-slider-response","197","","","","2",""
"3198","wheel","punda,tawo,baadaye,bafuni","bafuni","n","2","html-keyboard-response","198","v","tawo","false","",""
"1486","","","","","2","html-slider-response","199","","","","1",""
"2787","mother","babaye,kahawa,mbuzi,jokofu","babaye","f","2","html-keyboard-response","200","f","babaye","true","",""
"1704","","","","","2","html-slider-response","201","","","","2",""
"5026","bed","kalipay,haraka,starehe,mapintas","mapintas","n","2","html-keyboard-response","202","f","kalipay","false","",""
"1371","","","","","2","html-slider-response","203","","","","1",""
"4006","key","miaka,chombo,goma,ahos","chombo","v","2","html-keyboard-response","204","v","chombo","true","",""
"1443","","","","","2","html-slider-response","205","","","","5",""
"2953","page","wakala,wimbo,ishiri,skina","wimbo","v","2","html-keyboard-response","206","v","wimbo","true","",""
"1934","","","","","2","html-slider-response","207","","","","5",""
"13100","pants","pintal,haki,chuki,hari","haki","v","2","html-keyboard-response","208","f","pintal","false","",""
"2779","","","","","2","html-slider-response","209","","","","2",""
"1729","sun","basi,bendi,luha,uongo","basi","f","2","html-keyboard-response","210","f","basi","true","",""
"1199","","","","","2","html-slider-response","211","","","","5",""
"2369","finger","moyo,simu,sufuria,lima","moyo","f","2","html-keyboard-response","212","f","moyo","true","",""
"2277","","","","","2","html-slider-response","213","","","","5",""
"3615","shoe","nyeusi,uyoga,hatua,kama","uyoga","v","2","html-keyboard-response","214","n","kama","false","",""
"2155","","","","","2","html-slider-response","215","","","","1",""
"13888","giraffe","daraja,jumatu,mahitabo,hangyo","mahitabo","j","2","html-keyboard-response","216","f","daraja","false","",""
"2064","","","","","2","html-slider-response","217","","","","1",""
"4717","dog","lubi,washia,kalamu,bahari","bahari","n","2","html-keyboard-response","218","f","lubi","false","",""
"1739","","","","","2","html-slider-response","219","","","","2",""
"4589","box","adui,kuacha,rafiki,kitande","adui","f","2","html-keyboard-response","220","j","rafiki","false","",""
"6469","","","","","2","html-slider-response","221","","","","2",""
"3525","scissors","duga,mtawa,suga,tanuri","tanuri","n","2","html-keyboard-response","222","n","tanuri","true","",""
"3319","","","","","2","html-slider-response","223","","","","1",""
"4672","cat","neyemba,paghukom,baki,akili","paghukom","v","2","html-keyboard-response","224","j","baki","false","",""
"1952","","","","","2","html-slider-response","225","","","","1",""
"3677","basket","kumbuka,utepe,hasira,kumba","kumba","n","2","html-keyboard-response","226","n","kumba","true","",""
"1470","","","","","2","html-slider-response","227","","","","4",""
"11938","snake","jansa,karon,pagtukod,mvringo","pagtukod","j","2","html-keyboard-response","228","v","karon","false","",""
"2062","","","","","2","html-slider-response","229","","","","1",""
"5629","gift","pagtawag,baba,nyange,baso","pagtawag","f","2","html-keyboard-response","230","v","baba","false","",""
"1354","","","","","2","html-slider-response","231","","","","4",""
"3704","train","sayari,itik,dakika,mungu","sayari","f","2","html-keyboard-response","232","n","mungu","false","",""
"1609","","","","","2","html-slider-response","233","","","","1",""
"7391","pudding","abug,mpishi,iring,aibu","aibu","n","2","html-keyboard-response","234","n","aibu","true","",""
"2807","","","","","2","html-slider-response","235","","","","2",""
"4898","tomato","chupi,chupa,mvua,takatak","mvua","j","2","html-keyboard-response","236","v","chupa","false","",""
"1209","","","","","2","html-slider-response","237","","","","1",""
"3482","stone","wingi,ulimwengu,mkasi,asili","wingi","f","2","html-keyboard-response","238","n","asili","false","",""
"4088","","","","","2","html-slider-response","239","","","","2",""
"48419","hammer","mekno,kitovu,napakyas,layag","napakyas","j","2","html-keyboard-response","240","n","layag","false","",""
"2532","","","","","2","html-slider-response","241","","","","1",""
"7715","knee","mvuke,duka,kubale,bili","duka","v","2","html-keyboard-response","242","v","duka","true","",""
"1716","","","","","2","html-slider-response","243","","","","2",""
"2676","ceiling","kugita,maua,kawaida,rayna","maua","v","2","html-keyboard-response","244","n","rayna","false","",""
"1325","","","","","2","html-slider-response","245","","","","1",""
"5660","spoon","betri,nzuri,pagsulod,ngazi","pagsulod","j","2","html-keyboard-response","246","j","pagsulod","true","",""
"2544","","","","","2","html-slider-response","247","","","","2",""
"6889","marker","maji,mapafu,salita,atay","maji","f","2","html-keyboard-response","248","j","salita","false","",""
"1210","","","","","2","html-slider-response","249","","","","1",""
"4071","candle","gabi,geza,farasi,kupanda","geza","v","2","html-keyboard-response","250","j","farasi","false","",""
"2232","","","","","2","html-slider-response","251","","","","1",""
"14515","tissue","lamigas,kisiwa,ugomvi,katika","ugomvi","j","2","html-keyboard-response","252","j","ugomvi","true","",""
"1605","","","","","2","html-slider-response","253","","","","1",""
"2448","bridge","daima,ngono,sahani,panya","sahani","j","2","html-keyboard-response","254","n","panya","false","",""
"1603","","","","","2","html-slider-response","255","","","","1",""
"3089","berry","abogado,nogozi,kofia,kinywa","kofia","j","2","html-keyboard-response","256","j","kofia","true","",""
"2374","","","","","2","html-slider-response","257","","","","2",""
"6896","triangle","kihozi,bentaha,kasadpan,liog","kasadpan","j","2","html-keyboard-response","258","n","liog","false","",""
"1328","","","","","2","html-slider-response","259","","","","1",""
"3344","door","tena,soko,surali,nyota","surali","j","2","html-keyboard-response","260","n","nyota","false","",""
"1470","","","","","2","html-slider-response","261","","","","1",""
"3548","fish","bala,baho,imani,buli","buli","n","2","html-keyboard-response","262","v","baho","false","",""
"1642","","","","","2","html-slider-response","263","","","","1",""
"35052","curtain","mchanga,lisud,bulwawan,chubani","mchanga","f","2","html-keyboard-response","264","n","chubani","false","",""
"1795","","","","","2","html-slider-response","265","","","","1",""
"3887","flag","ndege,mkate,kawa,trekta","trekta","n","2","html-keyboard-response","266","j","kawa","false","",""
"1279","","","","","2","html-slider-response","267","","","","1",""
"3213","boat","hamsi,pombe,kitanda,agalon","agalon","n","2","html-keyboard-response","268","n","agalon","true","",""
"1487","","","","","2","html-slider-response","269","","","","1",""
"3504","rose","singizi,mwanake,paghalad,amani","paghalad","j","2","html-keyboard-response","270","v","mwanake","false","",""
"1259","","","","","2","html-slider-response","271","","","","1",""
"11813","lamp","afya,daub,bilaska,mbolea","afya","f","2","html-keyboard-response","272","n","mbolea","false","",""
"1285","","","","","2","html-slider-response","273","","","","1",""
"11385","cigar","ndugu,kuta,adhabu,mlango","adhabu","j","2","html-keyboard-response","274","v","kuta","false","",""
"3607","","","","","2","html-slider-response","275","","","","2",""
"3905","list","alizeti,kuzama,wingu,kaso","wingu","j","2","html-keyboard-response","276","n","kaso","false","",""
"1533","","","","","2","html-slider-response","277","","","","2",""
"4521","sheet","juuya,bililhon,watu,kamantis","bililhon","v","2","html-keyboard-response","278","n","kamantis","false","",""
"1388","","","","","2","html-slider-response","279","","","","1",""
"9049","picture","silya,kubwa,chaki,asin","kubwa","v","2","html-keyboard-response","280","j","chaki","false","",""
"2805","","","","","2","html-slider-response","281","","","","1",""
"49166","towel","pagpalit,tembo,funzi,pito","pagpalit","f","2","html-keyboard-response","282","n","pito","false","",""
"2412","","","","","2","html-slider-response","283","","","","2",""
"4363","window","nanga,kujenga,umaga,kweli","kweli","n","2","html-keyboard-response","284","v","kujenga","false","",""
"1145","","","","","2","html-slider-response","285","","","","1",""
"3876","box","kuacha,rafiki,adui,kitande","adui","j","3","html-keyboard-response","293","v","rafiki","false","","4"
"3872","","","","","3","html-slider-response","294","","","","2",""
"3882","","","","","3","html-keyboard-response","295","","","","",""
"5374","pants","pintal,chuki,hari,haki","haki","n","3","html-keyboard-response","296","n","haki","true","","4"
"1327","","","","","3","html-slider-response","297","","","","4",""
"2056","","","","","3","html-keyboard-response","298","","","","",""
"4561","cup","matumai,dagat,shimoni,jeraha","matumai","f","3","html-keyboard-response","299","f","matumai","true","","4"
"1489","","","","","3","html-slider-response","300","","","","1",""
"4035","","","","","3","html-keyboard-response","301","","","","",""
"2508","triangle","kasadpan,kihozi,bentaha,liog","kasadpan","f","3","html-keyboard-response","302","n","liog","false","","4"
"1286","","","","","3","html-slider-response","303","","","","2",""
"5686","","","","","3","html-keyboard-response","304","","","","",""
"3118","curtain","mchanga,lisud,bulwawan,chubani","mchanga","f","3","html-keyboard-response","305","n","chubani","false","","4"
"1761","","","","","3","html-slider-response","306","","","","2",""
"5813","","","","","3","html-keyboard-response","307","","","","",""
"2491","clock","kartasi,mbwa,abang,osha","mbwa","v","3","html-keyboard-response","308","v","mbwa","true","","4"
"1618","","","","","3","html-slider-response","309","","","","5",""
"3256","","","","","3","html-keyboard-response","310","","","","",""
"4830","mirror","rangi,kanding,furaha,sulagma","sulagma","n","3","html-keyboard-response","311","n","sulagma","true","","4"
"1465","","","","","3","html-slider-response","312","","","","2",""
"5144","","","","","3","html-keyboard-response","313","","","","",""
"2852","coffin","barua,tubag,kioo,hulma","kioo","j","3","html-keyboard-response","314","j","kioo","true","","1"
"1897","","","","","3","html-slider-response","315","","","","5",""
"3240","","","","","3","html-keyboard-response","316","","","","",""
"2579","magazine","gundi,mchawi,kiti,bahandi","kiti","j","3","html-keyboard-response","317","j","kiti","true","","4"
"1685","","","","","3","html-slider-response","318","","","","5",""
"1688","","","","","3","html-keyboard-response","319","","","","",""
"7348","column","pundok,ufagio,dila,pala","ufagio","v","3","html-keyboard-response","320","v","ufagio","true","","1"
"2103","","","","","3","html-slider-response","321","","","","5",""
"2599","","","","","3","html-keyboard-response","322","","","","",""
"2775","number","shule,kengele,choori,mundamo","mundamo","n","3","html-keyboard-response","323","j","choori","false","","4"
"973","","","","","3","html-slider-response","324","","","","4",""
"4702","","","","","3","html-keyboard-response","325","","","","",""
"3562","rose","singizi,paghalad,mwanake,amani","paghalad","v","3","html-keyboard-response","326","n","amani","false","","4"
"1343","","","","","3","html-slider-response","327","","","","2",""
"5764","","","","","3","html-keyboard-response","328","","","","",""
"2771","eel","ishara,kunywa,kabuang,msumari","msumari","n","3","html-keyboard-response","329","f","ishara","false","","4"
"1585","","","","","3","html-slider-response","330","","","","2",""
"7620","","","","","3","html-keyboard-response","331","","","","",""
"2936","gift","baba,pagtawag,nyange,baso","pagtawag","v","3","html-keyboard-response","332","n","baso","false","","4"
"1205","","","","","3","html-slider-response","333","","","","4",""
"5078","","","","","3","html-keyboard-response","334","","","","",""
"2934","apple","ukame,estante,kisu,edad","kisu","j","3","html-keyboard-response","335","j","kisu","true","","1"
"1282","","","","","3","html-slider-response","336","","","","5",""
"1424","","","","","3","html-keyboard-response","337","","","","",""
"3016","wheel","bafuni,punda,tawo,baadaye","bafuni","f","3","html-keyboard-response","338","f","bafuni","true","","1"
"1729","","","","","3","html-slider-response","339","","","","5",""
"1098","","","","","3","html-keyboard-response","340","","","","",""
"3083","knee","mvuke,kubale,duka,bili","duka","j","3","html-keyboard-response","341","n","bili","false","","4"
"1749","","","","","3","html-slider-response","342","","","","2",""
"8992","","","","","3","html-keyboard-response","343","","","","",""
"3310","basket","kumbuka,utepe,hasira,kumba","kumba","n","3","html-keyboard-response","344","n","kumba","true","","1"
"2051","","","","","3","html-slider-response","345","","","","5",""
"1264","","","","","3","html-keyboard-response","346","","","","",""
"3726","park","tambok,pwani,bunifu,ihalas","bunifu","j","3","html-keyboard-response","347","v","pwani","false","","4"
"967","","","","","3","html-slider-response","348","","","","2",""
"3461","","","","","3","html-keyboard-response","349","","","","",""
"2296","finger","simu,moyo,sufuria,lima","moyo","v","3","html-keyboard-response","350","v","moyo","true","","4"
"1163","","","","","3","html-slider-response","351","","","","5",""
"4663","","","","","3","html-keyboard-response","352","","","","",""
"5095","boat","hamsi,pombe,agalon,kitanda","agalon","j","3","html-keyboard-response","353","j","agalon","true","","4"
"1086","","","","","3","html-slider-response","354","","","","2",""
"5571","","","","","3","html-keyboard-response","355","","","","",""
"3999","hill","kushoto,matumbo,kukimba,sweta","matumbo","v","3","html-keyboard-response","356","v","matumbo","true","","4"
"1498","","","","","3","html-slider-response","357","","","","1",""
"4945","","","","","3","html-keyboard-response","358","","","","",""
"3553","train","itik,dakika,sayari,mungu","sayari","j","3","html-keyboard-response","359","j","sayari","true","","4"
"2976","","","","","3","html-slider-response","360","","","","1",""
"6609","","","","","3","html-keyboard-response","361","","","","",""
"4337","wolf","kaburi,lugha,ndizi,mchuzi","lugha","v","3","html-keyboard-response","362","v","lugha","true","","4"
"1079","","","","","3","html-slider-response","363","","","","5",""
"2843","","","","","3","html-keyboard-response","364","","","","",""
"6583","snake","jansa,pagtukod,karon,mvringo","pagtukod","v","3","html-keyboard-response","365","v","pagtukod","true","","4"
"1183","","","","","3","html-slider-response","366","","","","2",""
"4558","","","","","3","html-keyboard-response","367","","","","",""
"2962","tooth","kijiko,uadui,pahiyum,kabalaka","kabalaka","n","3","html-keyboard-response","368","n","kabalaka","true","","4"
"1277","","","","","3","html-slider-response","369","","","","1",""
"5228","","","","","3","html-keyboard-response","370","","","","",""
"3011","notebook","msitu,kemia,kila,mdudu","kemia","v","3","html-keyboard-response","371","n","mdudu","false","","4"
"1558","","","","","3","html-slider-response","372","","","","2",""
"8763","","","","","3","html-keyboard-response","373","","","","",""
"3359","flag","ndege,mkate,trekta,kawa","trekta","j","3","html-keyboard-response","374","n","kawa","false","","4"
"1861","","","","","3","html-slider-response","375","","","","1",""
"4269","","","","","3","html-keyboard-response","376","","","","",""
"2847","squirrel","mahugaw,hofu,ukweli,kichwa","hofu","v","3","html-keyboard-response","377","n","kichwa","false","","4"
"2694","","","","","3","html-slider-response","378","","","","2",""
"4111","","","","","3","html-keyboard-response","379","","","","",""
"3259","door","tena,soko,nyota,surali","surali","n","3","html-keyboard-response","380","j","nyota","false","","4"
"1507","","","","","3","html-slider-response","381","","","","1",""
"3384","","","","","3","html-keyboard-response","382","","","","",""
"4401","salmon","mzungu,seri,baharia,sensilyo","sensilyo","n","3","html-keyboard-response","383","n","sensilyo","true","","4"
"1436","","","","","3","html-slider-response","384","","","","2",""
"3451","","","","","3","html-keyboard-response","385","","","","",""
"3962","shoulder","kelele,ndaniya,mkuu,guruwe","mkuu","j","3","html-keyboard-response","386","j","mkuu","true","","4"
"1473","","","","","3","html-slider-response","387","","","","2",""
"5901","","","","","3","html-keyboard-response","388","","","","",""
"11471","lamp","daub,bilaska,afya,mbolea","afya","j","3","html-keyboard-response","389","j","afya","true","","4"
"1717","","","","","3","html-slider-response","390","","","","1",""
"4455","","","","","3","html-keyboard-response","391","","","","",""
"3772","shelf","pamahaw,bungtod,kadaot,awit","pamahaw","f","3","html-keyboard-response","392","f","pamahaw","true","","1"
"1704","","","","","3","html-slider-response","393","","","","5",""
"779","","","","","3","html-keyboard-response","394","","","","",""
"3066","human","tinapay,bado,kikapu,punguza","tinapay","f","3","html-keyboard-response","395","f","tinapay","true","","4"
"1030","","","","","3","html-slider-response","396","","","","5",""
"1751","","","","","3","html-keyboard-response","397","","","","",""
"3353","towel","tembo,pagpalit,funzi,pito","pagpalit","v","3","html-keyboard-response","398","v","pagpalit","true","","4"
"878","","","","","3","html-slider-response","399","","","","2",""
"2637","","","","","3","html-keyboard-response","400","","","","",""
"6050","cat","neyemba,baki,paghukom,akili","paghukom","j","3","html-keyboard-response","401","n","akili","false","","4"
"1010","","","","","3","html-slider-response","402","","","","2",""
"4088","","","","","3","html-keyboard-response","403","","","","",""
"10282","spider","bunyag,mkboa,atop,kamwe","kamwe","n","3","html-keyboard-response","404","f","bunyag","false","","4"
"1369","","","","","3","html-slider-response","405","","","","1",""
"2178","","","","","3","html-keyboard-response","406","","","","",""
"3274","window","nanga,kujenga,umaga,kweli","kweli","n","3","html-keyboard-response","407","v","kujenga","false","","4"
"2007","","","","","3","html-slider-response","408","","","","2",""
"4376","","","","","3","html-keyboard-response","409","","","","",""
"2982","woman","bandari,bituin,kovuli,pagtabon","pagtabon","n","3","html-keyboard-response","410","n","pagtabon","true","","1"
"1650","","","","","3","html-slider-response","411","","","","5",""
"4091","","","","","3","html-keyboard-response","412","","","","",""
"3643","giraffe","mahitabo,daraja,jumatu,hangyo","mahitabo","f","3","html-keyboard-response","413","f","mahitabo","true","","4"
"2865","","","","","3","html-slider-response","414","","","","4",""
"5664","","","","","3","html-keyboard-response","415","","","","",""
"2152","elephant","petye,pagduol,suka,kito","kito","n","3","html-keyboard-response","416","n","kito","true","","4"
"1735","","","","","3","html-slider-response","417","","","","5",""
"2005","","","","","3","html-keyboard-response","418","","","","",""
"3668","cave","ganti,maisha,nyundo,kesho","kesho","n","3","html-keyboard-response","419","v","maisha","false","","4"
"1786","","","","","3","html-slider-response","420","","","","2",""
"2175","","","","","3","html-keyboard-response","421","","","","",""
"2879","bread","kaili,dizeli,bugas,dari","dari","n","3","html-keyboard-response","422","n","dari","true","","4"
"2947","","","","","3","html-slider-response","423","","","","3",""
"3726","","","","","3","html-keyboard-response","424","","","","",""
"5750","stone","wingi,ulimwengu,mkasi,asili","wingi","f","3","html-keyboard-response","425","f","wingi","true","","4"
"1022","","","","","3","html-slider-response","426","","","","2",""
"3846","","","","","3","html-keyboard-response","427","","","","",""
"4380","donkey","bloke,elfu,lalake,rombus","elfu","v","3","html-keyboard-response","428","v","elfu","true","","4"
"3363","","","","","3","html-slider-response","429","","","","2",""
"5026","","","","","3","html-keyboard-response","430","","","","",""
"30251","bridge","daima,sahani,ngono,panya","sahani","v","3","html-keyboard-response","431","j","ngono","false","","4"
"2743","","","","","3","html-slider-response","432","","","","2",""
"1809","","","","","3","html-keyboard-response","433","","","","",""
"2476","bonfire","goti,mwezi,mfuko,kusanya","goti","f","3","html-keyboard-response","434","f","goti","true","","4"
"1356","","","","","3","html-slider-response","435","","","","5",""
"1149","","","","","3","html-keyboard-response","436","","","","",""
"3840","book","kuhesa,picha,mali,mara","mali","j","3","html-keyboard-response","437","f","kuhesa","false","","4"
"1232","","","","","3","html-slider-response","438","","","","4",""
"3767","","","","","3","html-keyboard-response","439","","","","",""
"4227","fish","bala,buli,baho,imani","buli","v","3","html-keyboard-response","440","j","baho","false","","4"
"1564","","","","","3","html-slider-response","441","","","","1",""
"2710","","","","","3","html-keyboard-response","442","","","","",""
"4871","spoon","betri,pagsulod,nzuri,ngazi","pagsulod","v","3","html-keyboard-response","443","v","pagsulod","true","","4"
"1504","","","","","3","html-slider-response","444","","","","4",""
"4995","","","","","3","html-keyboard-response","445","","","","",""
"4040","scissors","tanuri,duga,mtawa,suga","tanuri","f","3","html-keyboard-response","446","j","mtawa","false","","4"
"2372","","","","","3","html-slider-response","447","","","","2",""
"6123","","","","","3","html-keyboard-response","448","","","","",""
"4417","page","wakala,ishiri,wimbo,skina","wimbo","j","3","html-keyboard-response","449","j","wimbo","true","","4"
"1212","","","","","3","html-slider-response","450","","","","5",""
"939","","","","","3","html-keyboard-response","451","","","","",""
"3030","nose","gubat,kopa,kidole,sehemu","sehemu","n","3","html-keyboard-response","452","n","sehemu","true","","1"
"1669","","","","","3","html-slider-response","453","","","","5",""
"1510","","","","","3","html-keyboard-response","454","","","","",""
"8956","ceiling","kugita,maua,kawaida,rayna","maua","v","3","html-keyboard-response","455","j","kawaida","false","","4"
"1216","","","","","3","html-slider-response","456","","","","2",""
"10913","","","","","3","html-keyboard-response","457","","","","",""
"6687","bucket","baga,kiatu,ijayo,init","kiatu","v","3","html-keyboard-response","458","v","kiatu","true","","4"
"2472","","","","","3","html-slider-response","459","","","","2",""
"2249","","","","","3","html-keyboard-response","460","","","","",""
"3646","berry","abogado,nogozi,kofia,kinywa","kofia","j","3","html-keyboard-response","461","j","kofia","true","","1"
"1577","","","","","3","html-slider-response","462","","","","5",""
"937","","","","","3","html-keyboard-response","463","","","","",""
"4109","mother","kahawa,babaye,mbuzi,jokofu","babaye","v","3","html-keyboard-response","464","v","babaye","true","","1"
"1775","","","","","3","html-slider-response","465","","","","5",""
"1833","","","","","3","html-keyboard-response","466","","","","",""
"3260","mosquito","isda,martilyo,taras,gutom","martilyo","v","3","html-keyboard-response","467","v","martilyo","true","","4"
"2142","","","","","3","html-slider-response","468","","","","5",""
"3425","","","","","3","html-keyboard-response","469","","","","",""
"5233","perfume","bino,sungura,katuyoan,ndogo","katuyoan","j","3","html-keyboard-response","470","n","ndogo","false","","4"
"1929","","","","","3","html-slider-response","471","","","","2",""
"3228","","","","","3","html-keyboard-response","472","","","","",""
"6483","sheet","bililhon,juuya,watu,kamantis","bililhon","f","3","html-keyboard-response","473","f","bililhon","true","","4"
"1478","","","","","3","html-slider-response","474","","","","2",""
"3141","","","","","3","html-keyboard-response","475","","","","",""
"2468","puppet","napulo,mazishi,lamok,godoro","mazishi","v","3","html-keyboard-response","476","v","mazishi","true","","1"
"1265","","","","","3","html-slider-response","477","","","","5",""
"2728","","","","","3","html-keyboard-response","478","","","","",""
"4195","poster","madungog,nchi,fedha,kasuko","madungog","f","3","html-keyboard-response","479","n","kasuko","false","","4"
"1154","","","","","3","html-slider-response","480","","","","2",""
"7278","","","","","3","html-keyboard-response","481","","","","",""
"5921","music","mraba,baiski,mageho,tumbo","baiski","v","3","html-keyboard-response","482","f","mraba","false","","4"
"3265","","","","","3","html-slider-response","483","","","","1",""
"2154","","","","","3","html-keyboard-response","484","","","","",""
"8","key","chombo,miaka,goma,ahos","chombo","f","3","html-keyboard-response","485","v","miaka","false","","4"
"5579","","","","","3","html-slider-response","486","","","","2",""
"5043","","","","","3","html-keyboard-response","487","","","","",""
"7755","sock","mamba,ndoora,kimysa,mtirka","mamba","f","3","html-keyboard-response","488","f","mamba","true","","4"
"1229","","","","","3","html-slider-response","489","","","","5",""
"1681","","","","","3","html-keyboard-response","490","","","","",""
"3528","marker","mapafu,maji,salita,atay","maji","v","3","html-keyboard-response","491","f","mapafu","false","","4"
"1300","","","","","3","html-slider-response","492","","","","2",""
"2459","","","","","3","html-keyboard-response","493","","","","",""
"1918","office","leso,hazini,yatima,kuna","leso","f","3","html-keyboard-response","494","f","leso","true","","4"
"1038","","","","","3","html-slider-response","495","","","","5",""
"1101","","","","","3","html-keyboard-response","496","","","","",""
"9224","shoe","nyeusi,uyoga,hatua,kama","uyoga","v","3","html-keyboard-response","497","v","uyoga","true","","4"
"2451","","","","","3","html-slider-response","498","","","","1",""
"2298","","","","","3","html-keyboard-response","499","","","","",""
"2652","cop","mechezo,bustani,jikoni,bakus","mechezo","f","3","html-keyboard-response","500","j","jikoni","false","","4"
"1651","","","","","3","html-slider-response","501","","","","1",""
"2269","","","","","3","html-keyboard-response","502","","","","",""
"4783","bank","kudhibi,tualya,silingan,ofisi","silingan","j","3","html-keyboard-response","503","j","silingan","true","","4"
"1033","","","","","3","html-slider-response","504","","","","4",""
"2289","","","","","3","html-keyboard-response","505","","","","",""
"2815","letter","kifua,filimbi,chuma,uhuru","kifua","f","3","html-keyboard-response","506","f","kifua","true","","1"
"1270","","","","","3","html-slider-response","507","","","","5",""
"667","","","","","3","html-keyboard-response","508","","","","",""
"2850","dog","bahari,lubi,washia,kalamu","bahari","f","3","html-keyboard-response","509","f","bahari","true","","1"
"1286","","","","","3","html-slider-response","510","","","","5",""
"901","","","","","3","html-keyboard-response","511","","","","",""
"5555","shop","samaki,nopya,kerida,ndezu","samaki","f","3","html-keyboard-response","512","f","samaki","true","","4"
"2434","","","","","3","html-slider-response","513","","","","1",""
"1847","","","","","3","html-keyboard-response","514","","","","",""
"4082","flower","bega,tamasha,lobo,usiku","bega","f","3","html-keyboard-response","515","f","bega","true","","4"
"1116","","","","","3","html-slider-response","516","","","","5",""
"959","","","","","3","html-keyboard-response","517","","","","",""
"2664","cigar","adhabu,ndugu,kuta,mlango","adhabu","f","3","html-keyboard-response","518","f","adhabu","true","","1"
"1656","","","","","3","html-slider-response","519","","","","5",""
"1241","","","","","3","html-keyboard-response","520","","","","",""
"4071","hammer","napakyas,mekno,kitovu,layag","napakyas","f","3","html-keyboard-response","521","j","kitovu","false","","4"
"1155","","","","","3","html-slider-response","522","","","","1",""
"2360","","","","","3","html-keyboard-response","523","","","","",""
"8247","fork","baboy,paghago,gorisi,mgonjwa","mgonjwa","n","3","html-keyboard-response","524","n","mgonjwa","true","","4"
"1755","","","","","3","html-slider-response","525","","","","5",""
"3394","","","","","3","html-keyboard-response","526","","","","",""
"2264","sun","bendi,luha,uongo,basi","basi","n","3","html-keyboard-response","527","n","basi","true","","1"
"1907","","","","","3","html-slider-response","528","","","","5",""
"1445","","","","","3","html-keyboard-response","529","","","","",""
"3727","ladder","mashua,mwanga,kamba,pangalan","pangalan","n","3","html-keyboard-response","530","n","pangalan","true","","4"
"2028","","","","","3","html-slider-response","531","","","","4",""
"2239","","","","","3","html-keyboard-response","532","","","","",""
"2592","banana","kasamok,hagdan,kazi,twai","kazi","j","3","html-keyboard-response","533","j","kazi","true","","1"
"2586","","","","","3","html-slider-response","534","","","","5",""
"1859","","","","","3","html-keyboard-response","535","","","","",""
"3588","pudding","abug,aibu,mpishi,iring","aibu","v","3","html-keyboard-response","536","j","mpishi","false","","4"
"1968","","","","","3","html-slider-response","537","","","","4",""
"3871","","","","","3","html-keyboard-response","538","","","","",""
"12276","body","nyundu,tindashan,jibini,kununa","tindashan","v","3","html-keyboard-response","539","v","tindashan","true","","4"
"1027","","","","","3","html-slider-response","540","","","","2",""
"1774","","","","","3","html-keyboard-response","541","","","","",""
"4290","bed","kalipay,mapintas,haraka,starehe","mapintas","v","3","html-keyboard-response","542","n","starehe","false","","4"
"1873","","","","","3","html-slider-response","543","","","","1",""
"3173","","","","","3","html-keyboard-response","544","","","","",""
"2796","tissue","lamigas,kisiwa,katika,ugomvi","ugomvi","n","3","html-keyboard-response","545","j","katika","false","","4"
"1192","","","","","3","html-slider-response","546","","","","1",""
"2395","","","","","3","html-keyboard-response","547","","","","",""
"30327","candle","gabi,geza,farasi,kupanda","geza","v","3","html-keyboard-response","548","j","farasi","false","","4"
"3198","","","","","3","html-slider-response","549","","","","1",""
"1899","","","","","3","html-keyboard-response","550","","","","",""
"2627","tomato","chupi,chupa,mvua,takatak","mvua","j","3","html-keyboard-response","551","j","mvua","true","","1"
"1869","","","","","3","html-slider-response","552","","","","5",""
"929","","","","","3","html-keyboard-response","553","","","","",""
"6626","list","alizeti,kuzama,wingu,kaso","wingu","j","3","html-keyboard-response","554","n","kaso","false","","4"
"979","","","","","3","html-slider-response","555","","","","4",""
"2380","","","","","3","html-keyboard-response","556","","","","",""
"5231","olive","bata,siagi,welder,jiwe","jiwe","n","3","html-keyboard-response","557","v","siagi","false","","4"
"1626","","","","","3","html-slider-response","558","","","","2",""
"3058","","","","","3","html-keyboard-response","559","","","","",""
"2748","picture","kubwa,silya,chaki,asin","kubwa","f","3","html-keyboard-response","560","f","kubwa","true","","1"
"1054","","","","","3","html-slider-response","561","","","","5",""
"1403","","","","","3","html-keyboard-response","562","","","","",""
"2249","page","wakala,ishiri,skina,wimbo","wimbo","n","4","html-keyboard-response","888","n","wimbo","true","",""
"1050","","","","","4","html-slider-response","889","","","","5",""
"3558","sheet","juuya,watu,kamantis,bililhon","bililhon","n","4","html-keyboard-response","890","n","bililhon","true","",""
"1517","","","","","4","html-slider-response","891","","","","4",""
"2829","ladder","pangalan,mashua,mwanga,kamba","pangalan","f","4","html-keyboard-response","892","f","pangalan","true","",""
"1187","","","","","4","html-slider-response","893","","","","4",""
"2041","door","tena,soko,surali,nyota","surali","j","4","html-keyboard-response","894","j","surali","true","",""
"1508","","","","","4","html-slider-response","895","","","","5",""
"3825","spider","kamwe,bunyag,mkboa,atop","kamwe","f","4","html-keyboard-response","896","f","kamwe","true","",""
"947","","","","","4","html-slider-response","897","","","","2",""
"5292","picture","silya,chaki,asin,kubwa","kubwa","n","4","html-keyboard-response","898","n","kubwa","true","",""
"1256","","","","","4","html-slider-response","899","","","","2",""
"3539","boat","hamsi,agalon,pombe,kitanda","agalon","v","4","html-keyboard-response","900","n","kitanda","false","",""
"1520","","","","","4","html-slider-response","901","","","","2",""
"1768","donkey","bloke,lalake,rombus,elfu","elfu","n","4","html-keyboard-response","902","n","elfu","true","",""
"1083","","","","","4","html-slider-response","903","","","","5",""
"2089","book","kuhesa,picha,mali,mara","mali","j","4","html-keyboard-response","904","j","mali","true","",""
"1072","","","","","4","html-slider-response","905","","","","5",""
"3255","cup","dagat,matumai,shimoni,jeraha","matumai","v","4","html-keyboard-response","906","v","matumai","true","",""
"1341","","","","","4","html-slider-response","907","","","","5",""
"1495","sun","basi,bendi,luha,uongo","basi","f","4","html-keyboard-response","908","f","basi","true","",""
"1189","","","","","4","html-slider-response","909","","","","5",""
"2378","pudding","abug,aibu,mpishi,iring","aibu","v","4","html-keyboard-response","910","v","aibu","true","",""
"1282","","","","","4","html-slider-response","911","","","","5",""
"3806","human","bado,tinapay,kikapu,punguza","tinapay","v","4","html-keyboard-response","912","v","tinapay","true","",""
"969","","","","","4","html-slider-response","913","","","","5",""
"4603","squirrel","mahugaw,ukweli,hofu,kichwa","hofu","j","4","html-keyboard-response","914","j","hofu","true","",""
"1000","","","","","4","html-slider-response","915","","","","4",""
"3085","park","tambok,bunifu,pwani,ihalas","bunifu","v","4","html-keyboard-response","916","v","bunifu","true","",""
"993","","","","","4","html-slider-response","917","","","","4",""
"14171","poster","nchi,madungog,fedha,kasuko","madungog","v","4","html-keyboard-response","918","v","madungog","true","",""
"2023","","","","","4","html-slider-response","919","","","","4",""
"2083","wolf","kaburi,ndizi,mchuzi,lugha","lugha","n","4","html-keyboard-response","920","n","lugha","true","",""
"1145","","","","","4","html-slider-response","921","","","","5",""
"6124","cat","neyemba,baki,paghukom,akili","paghukom","j","4","html-keyboard-response","922","j","paghukom","true","",""
"998","","","","","4","html-slider-response","923","","","","4",""
"2744","fish","bala,buli,baho,imani","buli","v","4","html-keyboard-response","924","v","buli","true","",""
"880","","","","","4","html-slider-response","925","","","","4",""
"5274","tooth","kabalaka,kijiko,uadui,pahiyum","kabalaka","f","4","html-keyboard-response","926","n","pahiyum","false","",""
"2203","","","","","4","html-slider-response","927","","","","4",""
"3109","cave","kesho,ganti,maisha,nyundo","kesho","f","4","html-keyboard-response","928","n","nyundo","false","",""
"1100","","","","","4","html-slider-response","929","","","","2",""
"13437","lamp","afya,daub,bilaska,mbolea","afya","f","4","html-keyboard-response","930","j","bilaska","false","",""
"2132","","","","","4","html-slider-response","931","","","","2",""
"4394","banana","kasamok,kazi,hagdan,twai","kazi","v","4","html-keyboard-response","932","v","kazi","true","",""
"1398","","","","","4","html-slider-response","933","","","","4",""
"2033","bonfire","mwezi,goti,mfuko,kusanya","goti","v","4","html-keyboard-response","934","v","goti","true","",""
"1034","","","","","4","html-slider-response","935","","","","5",""
"2401","cop","mechezo,bustani,jikoni,bakus","mechezo","f","4","html-keyboard-response","936","f","mechezo","true","",""
"1264","","","","","4","html-slider-response","937","","","","5",""
"3072","marker","maji,mapafu,salita,atay","maji","f","4","html-keyboard-response","938","f","maji","true","",""
"1004","","","","","4","html-slider-response","939","","","","5",""
"3903","window","nanga,kujenga,kweli,umaga","kweli","j","4","html-keyboard-response","940","j","kweli","true","",""
"1103","","","","","4","html-slider-response","941","","","","5",""
"3687","body","nyundu,jibini,kununa,tindashan","tindashan","n","4","html-keyboard-response","942","n","tindashan","true","",""
"1306","","","","","4","html-slider-response","943","","","","5",""
"2431","apple","ukame,kisu,estante,edad","kisu","v","4","html-keyboard-response","944","v","kisu","true","",""
"1014","","","","","4","html-slider-response","945","","","","5",""
"1909","salmon","sensilyo,mzungu,seri,baharia","sensilyo","f","4","html-keyboard-response","946","j","seri","false","",""
"1061","","","","","4","html-slider-response","947","","","","5",""
"4020","bed","kalipay,haraka,mapintas,starehe","mapintas","j","4","html-keyboard-response","948","j","mapintas","true","",""
"1041","","","","","4","html-slider-response","949","","","","4",""
"2135","berry","abogado,nogozi,kinywa,kofia","kofia","n","4","html-keyboard-response","950","n","kofia","true","",""
"1346","","","","","4","html-slider-response","951","","","","5",""
"4409","mirror","rangi,kanding,sulagma,furaha","sulagma","j","4","html-keyboard-response","952","j","sulagma","true","",""
"1305","","","","","4","html-slider-response","953","","","","5",""
"15027","flag","ndege,mkate,kawa,trekta","trekta","n","4","html-keyboard-response","954","n","trekta","true","",""
"2452","","","","","4","html-slider-response","955","","","","2",""
"2529","shoulder","kelele,mkuu,ndaniya,guruwe","mkuu","v","4","html-keyboard-response","956","v","mkuu","true","",""
"1270","","","","","4","html-slider-response","957","","","","5",""
"3482","tissue","lamigas,kisiwa,katika,ugomvi","ugomvi","n","4","html-keyboard-response","958","v","kisiwa","false","",""
"1603","","","","","4","html-slider-response","959","","","","2",""
"7326","notebook","kemia,msitu,kila,mdudu","kemia","f","4","html-keyboard-response","960","f","kemia","true","",""
"1480","","","","","4","html-slider-response","961","","","","4",""
"6020","snake","jansa,karon,mvringo,pagtukod","pagtukod","n","4","html-keyboard-response","962","n","pagtukod","true","",""
"1099","","","","","4","html-slider-response","963","","","","4",""
"2083","finger","moyo,simu,sufuria,lima","moyo","f","4","html-keyboard-response","964","f","moyo","true","",""
"1147","","","","","4","html-slider-response","965","","","","5",""
"8166","basket","kumba,kumbuka,utepe,hasira","kumba","f","4","html-keyboard-response","966","f","kumba","true","",""
"1615","","","","","4","html-slider-response","967","","","","4",""
"3438","curtain","lisud,bulwawan,chubani,mchanga","mchanga","n","4","html-keyboard-response","968","n","mchanga","true","",""
"1218","","","","","4","html-slider-response","969","","","","4",""
"3394","perfume","bino,sungura,katuyoan,ndogo","katuyoan","j","4","html-keyboard-response","970","j","katuyoan","true","",""
"1344","","","","","4","html-slider-response","971","","","","5",""
"2447","key","miaka,goma,ahos,chombo","chombo","n","4","html-keyboard-response","972","n","chombo","true","",""
"1109","","","","","4","html-slider-response","973","","","","5",""
"1820","olive","bata,siagi,jiwe,welder","jiwe","j","4","html-keyboard-response","974","j","jiwe","true","",""
"1065","","","","","4","html-slider-response","975","","","","5",""
"2766","rose","singizi,mwanake,amani,paghalad","paghalad","n","4","html-keyboard-response","976","n","paghalad","true","",""
"1611","","","","","4","html-slider-response","977","","","","5",""
"10815","bridge","daima,sahani,ngono,panya","sahani","v","4","html-keyboard-response","978","v","sahani","true","",""
"1299","","","","","4","html-slider-response","979","","","","2",""
"5538","hill","kushoto,kukimba,sweta,matumbo","matumbo","n","4","html-keyboard-response","980","n","matumbo","true","",""
"1021","","","","","4","html-slider-response","981","","","","4",""
"3625","letter","filimbi,kifua,chuma,uhuru","kifua","v","4","html-keyboard-response","982","v","kifua","true","",""
"2740","","","","","4","html-slider-response","983","","","","5",""
"2198","sock","ndoora,kimysa,mamba,mtirka","mamba","j","4","html-keyboard-response","984","j","mamba","true","",""
"1435","","","","","4","html-slider-response","985","","","","5",""
"3739","fork","mgonjwa,baboy,paghago,gorisi","mgonjwa","f","4","html-keyboard-response","986","f","mgonjwa","true","",""
"1184","","","","","4","html-slider-response","987","","","","5",""
"5170","box","kuacha,rafiki,adui,kitande","adui","j","4","html-keyboard-response","988","j","adui","true","",""
"2479","","","","","4","html-slider-response","989","","","","4",""
"2307","gift","baba,nyange,baso,pagtawag","pagtawag","n","4","html-keyboard-response","990","n","pagtawag","true","",""
"1001","","","","","4","html-slider-response","991","","","","5",""
"2200","bucket","baga,ijayo,kiatu,init","kiatu","j","4","html-keyboard-response","992","j","kiatu","true","",""
"1511","","","","","4","html-slider-response","993","","","","5",""
"4284","shop","samaki,nopya,kerida,ndezu","samaki","f","4","html-keyboard-response","994","f","samaki","true","",""
"1049","","","","","4","html-slider-response","995","","","","5",""
"2426","puppet","napulo,lamok,godoro,mazishi","mazishi","n","4","html-keyboard-response","996","n","mazishi","true","",""
"1124","","","","","4","html-slider-response","997","","","","5",""
"9148","nose","gubat,kopa,sehemu,kidole","sehemu","j","4","html-keyboard-response","998","j","sehemu","true","",""
"1636","","","","","4","html-slider-response","999","","","","2",""
"4295","music","mraba,baiski,mageho,tumbo","baiski","v","4","html-keyboard-response","1000","j","mageho","false","",""
"2353","","","","","4","html-slider-response","1001","","","","1",""
"5660","dog","lubi,washia,bahari,kalamu","bahari","j","4","html-keyboard-response","1002","j","bahari","true","",""
"1670","","","","","4","html-slider-response","1003","","","","4",""
"4767","eel","msumari,ishara,kunywa,kabuang","msumari","f","4","html-keyboard-response","1004","f","msumari","true","",""
"1491","","","","","4","html-slider-response","1005","","","","5",""
"3419","number","mundamo,shule,kengele,choori","mundamo","f","4","html-keyboard-response","1006","f","mundamo","true","",""
"1306","","","","","4","html-slider-response","1007","","","","5",""
"11320","tomato","chupi,chupa,mvua,takatak","mvua","j","4","html-keyboard-response","1008","j","mvua","true","",""
"1063","","","","","4","html-slider-response","1009","","","","4",""
"1570","coffin","kioo,barua,tubag,hulma","kioo","f","4","html-keyboard-response","1010","f","kioo","true","",""
"1065","","","","","4","html-slider-response","1011","","","","5",""
"2109","knee","mvuke,duka,kubale,bili","duka","v","4","html-keyboard-response","1012","v","duka","true","",""
"1440","","","","","4","html-slider-response","1013","","","","5",""
"3230","woman","pagtabon,bandari,bituin,kovuli","pagtabon","f","4","html-keyboard-response","1014","f","pagtabon","true","",""
"1129","","","","","4","html-slider-response","1015","","","","5",""
"2271","stone","wingi,ulimwengu,mkasi,asili","wingi","f","4","html-keyboard-response","1016","f","wingi","true","",""
"1094","","","","","4","html-slider-response","1017","","","","5",""
"2465","bread","kaili,dari,dizeli,bugas","dari","v","4","html-keyboard-response","1018","v","dari","true","",""
"1095","","","","","4","html-slider-response","1019","","","","5",""
"5521","triangle","kihozi,kasadpan,bentaha,liog","kasadpan","v","4","html-keyboard-response","1020","v","kasadpan","true","",""
"1032","","","","","4","html-slider-response","1021","","","","4",""
"2141","scissors","duga,mtawa,tanuri,suga","tanuri","j","4","html-keyboard-response","1022","j","tanuri","true","",""
"1421","","","","","4","html-slider-response","1023","","","","5",""
"4151","giraffe","daraja,jumatu,mahitabo,hangyo","mahitabo","j","4","html-keyboard-response","1024","j","mahitabo","true","",""
"1797","","","","","4","html-slider-response","1025","","","","5",""
"2579","flower","tamasha,lobo,usiku,bega","bega","n","4","html-keyboard-response","1026","n","bega","true","",""
"1356","","","","","4","html-slider-response","1027","","","","5",""
"3858","candle","gabi,farasi,kupanda,geza","geza","n","4","html-keyboard-response","1028","n","geza","true","",""
"1414","","","","","4","html-slider-response","1029","","","","4",""
"2974","mother","kahawa,mbuzi,babaye,jokofu","babaye","j","4","html-keyboard-response","1030","j","babaye","true","",""
"1183","","","","","4","html-slider-response","1031","","","","5",""
"10439","towel","pagpalit,tembo,funzi,pito","pagpalit","f","4","html-keyboard-response","1032","f","pagpalit","true","",""
"3509","","","","","4","html-slider-response","1033","","","","2",""
"2543","elephant","petye,pagduol,kito,suka","kito","j","4","html-keyboard-response","1034","j","kito","true","",""
"1137","","","","","4","html-slider-response","1035","","","","5",""
"2116","shelf","bungtod,kadaot,awit,pamahaw","pamahaw","n","4","html-keyboard-response","1036","n","pamahaw","true","",""
"1227","","","","","4","html-slider-response","1037","","","","5",""
"2122","mosquito","martilyo,isda,taras,gutom","martilyo","f","4","html-keyboard-response","1038","f","martilyo","true","",""
"1255","","","","","4","html-slider-response","1039","","","","5",""
"3295","column","pundok,dila,pala,ufagio","ufagio","n","4","html-keyboard-response","1040","n","ufagio","true","",""
"1238","","","","","4","html-slider-response","1041","","","","5",""
"3051","pants","haki,pintal,chuki,hari","haki","f","4","html-keyboard-response","1042","n","hari","false","",""
"5727","","","","","4","html-slider-response","1043","","","","2",""
"4677","list","alizeti,wingu,kuzama,kaso","wingu","v","4","html-keyboard-response","1044","f","alizeti","false","",""
"1492","","","","","4","html-slider-response","1045","","","","1",""
"3124","bank","silingan,kudhibi,tualya,ofisi","silingan","f","4","html-keyboard-response","1046","f","silingan","true","",""
"1103","","","","","4","html-slider-response","1047","","","","5",""
"2009","clock","kartasi,abang,osha,mbwa","mbwa","n","4","html-keyboard-response","1048","n","mbwa","true","",""
"1110","","","","","4","html-slider-response","1049","","","","5",""
"2457","ceiling","kugita,kawaida,rayna,maua","maua","n","4","html-keyboard-response","1050","n","maua","true","",""
"1043","","","","","4","html-slider-response","1051","","","","5",""
"2802","train","itik,dakika,sayari,mungu","sayari","j","4","html-keyboard-response","1052","j","sayari","true","",""
"986","","","","","4","html-slider-response","1053","","","","5",""
"2325","magazine","gundi,mchawi,kiti,bahandi","kiti","j","4","html-keyboard-response","1054","j","kiti","true","",""
"1071","","","","","4","html-slider-response","1055","","","","5",""
"1711","office","hazini,yatima,leso,kuna","leso","j","4","html-keyboard-response","1056","j","leso","true","",""
"1258","","","","","4","html-slider-response","1057","","","","5",""
"2631","wheel","bafuni,punda,tawo,baadaye","bafuni","f","4","html-keyboard-response","1058","f","bafuni","true","",""
"1334","","","","","4","html-slider-response","1059","","","","4",""
"2222","spoon","betri,nzuri,ngazi,pagsulod","pagsulod","n","4","html-keyboard-response","1060","n","pagsulod","true","",""
"1416","","","","","4","html-slider-response","1061","","","","5",""
"4118","hammer","mekno,kitovu,layag,napakyas","napakyas","n","4","html-keyboard-response","1062","n","napakyas","true","",""
"3303","","","","","4","html-slider-response","1063","","","","4",""
"3385","cigar","ndugu,kuta,adhabu,mlango","adhabu","j","4","html-keyboard-response","1064","n","mlango","false","",""
"1211","","","","","4","html-slider-response","1065","","","","1",""
"10889","shoe","nyeusi,uyoga,hatua,kama","uyoga","v","4","html-keyboard-response","1066","f","nyeusi","false","",""
"2293","","","","","4","html-slider-response","1067","","","","2",""
"4849","list","wingu,alizeti,kuzama,kaso","wingu","f","5","html-keyboard-response","1069","n","kaso","false","",""
"1917","","","","","5","html-slider-response","1070","","","","1",""
"1772","number","shule,kengele,mundamo,choori","mundamo","j","5","html-keyboard-response","1071","j","mundamo","true","",""
"1100","","","","","5","html-slider-response","1072","","","","5",""
"1872","apple","ukame,estante,edad,kisu","kisu","n","5","html-keyboard-response","1073","n","kisu","true","",""
"1158","","","","","5","html-slider-response","1074","","","","5",""
"2257","knee","mvuke,kubale,duka,bili","duka","j","5","html-keyboard-response","1075","j","duka","true","",""
"1041","","","","","5","html-slider-response","1076","","","","5",""
"6612","tooth","kijiko,uadui,pahiyum,kabalaka","kabalaka","n","5","html-keyboard-response","1077","j","pahiyum","false","",""
"1438","","","","","5","html-slider-response","1078","","","","4",""
"3125","berry","kofia,abogado,nogozi,kinywa","kofia","f","5","html-keyboard-response","1079","f","kofia","true","",""
"1309","","","","","5","html-slider-response","1080","","","","5",""
"2995","bridge","sahani,daima,ngono,panya","sahani","f","5","html-keyboard-response","1081","v","daima","false","",""
"2444","","","","","5","html-slider-response","1082","","","","1",""
"2234","perfume","katuyoan,bino,sungura,ndogo","katuyoan","f","5","html-keyboard-response","1083","f","katuyoan","true","",""
"1919","","","","","5","html-slider-response","1084","","","","5",""
"2721","ladder","mashua,mwanga,pangalan,kamba","pangalan","j","5","html-keyboard-response","1085","j","pangalan","true","",""
"1026","","","","","5","html-slider-response","1086","","","","5",""
"6220","pants","pintal,chuki,hari,haki","haki","n","5","html-keyboard-response","1087","j","hari","false","",""
"1382","","","","","5","html-slider-response","1088","","","","4",""
"10652","salmon","mzungu,seri,sensilyo,baharia","sensilyo","j","5","html-keyboard-response","1089","j","sensilyo","true","",""
"1528","","","","","5","html-slider-response","1090","","","","4",""
"1671","coffin","barua,tubag,kioo,hulma","kioo","j","5","html-keyboard-response","1091","j","kioo","true","",""
"1504","","","","","5","html-slider-response","1092","","","","5",""
"3210","park","tambok,bunifu,pwani,ihalas","bunifu","v","5","html-keyboard-response","1093","v","bunifu","true","",""
"1072","","","","","5","html-slider-response","1094","","","","5",""
"2707","giraffe","mahitabo,daraja,jumatu,hangyo","mahitabo","f","5","html-keyboard-response","1095","f","mahitabo","true","",""
"1514","","","","","5","html-slider-response","1096","","","","5",""
"2845","mirror","sulagma,rangi,kanding,furaha","sulagma","f","5","html-keyboard-response","1097","f","sulagma","true","",""
"1141","","","","","5","html-slider-response","1098","","","","5",""
"1975","ceiling","kugita,maua,kawaida,rayna","maua","v","5","html-keyboard-response","1099","v","maua","true","",""
"1102","","","","","5","html-slider-response","1100","","","","5",""
"1776","marker","maji,mapafu,salita,atay","maji","f","5","html-keyboard-response","1101","f","maji","true","",""
"1657","","","","","5","html-slider-response","1102","","","","5",""
"2366","sock","ndoora,kimysa,mamba,mtirka","mamba","j","5","html-keyboard-response","1103","j","mamba","true","",""
"1426","","","","","5","html-slider-response","1104","","","","5",""
"1649","cop","mechezo,bustani,jikoni,bakus","mechezo","f","5","html-keyboard-response","1105","f","mechezo","true","",""
"1170","","","","","5","html-slider-response","1106","","","","5",""
"1899","gift","baba,nyange,baso,pagtawag","pagtawag","n","5","html-keyboard-response","1107","n","pagtawag","true","",""
"1196","","","","","5","html-slider-response","1108","","","","5",""
"11976","notebook","msitu,kila,mdudu,kemia","kemia","n","5","html-keyboard-response","1109","n","kemia","true","",""
"1844","","","","","5","html-slider-response","1110","","","","2",""
"2619","bank","kudhibi,silingan,tualya,ofisi","silingan","v","5","html-keyboard-response","1111","v","silingan","true","",""
"1552","","","","","5","html-slider-response","1112","","","","5",""
"3354","letter","kifua,filimbi,chuma,uhuru","kifua","f","5","html-keyboard-response","1113","f","kifua","true","",""
"1127","","","","","5","html-slider-response","1114","","","","4",""
"2320","candle","gabi,farasi,geza,kupanda","geza","j","5","html-keyboard-response","1115","j","geza","true","",""
"2022","","","","","5","html-slider-response","1116","","","","5",""
"1984","bread","kaili,dizeli,bugas,dari","dari","n","5","html-keyboard-response","1117","n","dari","true","",""
"1150","","","","","5","html-slider-response","1118","","","","5",""
"3066","snake","jansa,pagtukod,karon,mvringo","pagtukod","v","5","html-keyboard-response","1119","v","pagtukod","true","",""
"1867","","","","","5","html-slider-response","1120","","","","5",""
"2398","rose","singizi,mwanake,paghalad,amani","paghalad","j","5","html-keyboard-response","1121","j","paghalad","true","",""
"1067","","","","","5","html-slider-response","1122","","","","5",""
"2273","hill","kushoto,kukimba,sweta,matumbo","matumbo","n","5","html-keyboard-response","1123","n","matumbo","true","",""
"1102","","","","","5","html-slider-response","1124","","","","4",""
"1634","train","itik,dakika,sayari,mungu","sayari","j","5","html-keyboard-response","1125","j","sayari","true","",""
"1174","","","","","5","html-slider-response","1126","","","","5",""
"3178","shop","nopya,samaki,kerida,ndezu","samaki","v","5","html-keyboard-response","1127","v","samaki","true","",""
"1001","","","","","5","html-slider-response","1128","","","","5",""
"5362","nose","gubat,kopa,kidole,sehemu","sehemu","n","5","html-keyboard-response","1129","n","sehemu","true","",""
"1174","","","","","5","html-slider-response","1130","","","","2",""
"10612","boat","hamsi,pombe,agalon,kitanda","agalon","j","5","html-keyboard-response","1131","n","kitanda","false","",""
"2216","","","","","5","html-slider-response","1132","","","","2",""
"2586","body","nyundu,jibini,kununa,tindashan","tindashan","n","5","html-keyboard-response","1133","n","tindashan","true","",""
"2033","","","","","5","html-slider-response","1134","","","","5",""
"2564","bed","mapintas,kalipay,haraka,starehe","mapintas","f","5","html-keyboard-response","1135","f","mapintas","true","",""
"1052","","","","","5","html-slider-response","1136","","","","5",""
"2228","squirrel","mahugaw,hofu,ukweli,kichwa","hofu","v","5","html-keyboard-response","1137","v","hofu","true","",""
"1675","","","","","5","html-slider-response","1138","","","","4",""
"2004","window","kweli,nanga,kujenga,umaga","kweli","f","5","html-keyboard-response","1139","f","kweli","true","",""
"1656","","","","","5","html-slider-response","1140","","","","5",""
"1672","bonfire","mwezi,mfuko,kusanya,goti","goti","n","5","html-keyboard-response","1141","n","goti","true","",""
"1152","","","","","5","html-slider-response","1142","","","","5",""
"1963","fish","bala,buli,baho,imani","buli","v","5","html-keyboard-response","1143","v","buli","true","",""
"1627","","","","","5","html-slider-response","1144","","","","5",""
"4376","cat","neyemba,baki,paghukom,akili","paghukom","j","5","html-keyboard-response","1145","j","paghukom","true","",""
"1499","","","","","5","html-slider-response","1146","","","","4",""
"2880","spider","bunyag,mkboa,atop,kamwe","kamwe","n","5","html-keyboard-response","1147","f","bunyag","false","",""
"2137","","","","","5","html-slider-response","1148","","","","1",""
"2600","eel","ishara,kunywa,kabuang,msumari","msumari","n","5","html-keyboard-response","1149","n","msumari","true","",""
"1290","","","","","5","html-slider-response","1150","","","","5",""
"2288","woman","pagtabon,bandari,bituin,kovuli","pagtabon","f","5","html-keyboard-response","1151","f","pagtabon","true","",""
"1175","","","","","5","html-slider-response","1152","","","","5",""
"1917","magazine","gundi,kiti,mchawi,bahandi","kiti","v","5","html-keyboard-response","1153","v","kiti","true","",""
"1190","","","","","5","html-slider-response","1154","","","","5",""
"2262","pudding","abug,mpishi,iring,aibu","aibu","n","5","html-keyboard-response","1155","n","aibu","true","",""
"1028","","","","","5","html-slider-response","1156","","","","5",""
"4543","lamp","daub,afya,bilaska,mbolea","afya","v","5","html-keyboard-response","1157","j","bilaska","false","",""
"1525","","","","","5","html-slider-response","1158","","","","4",""
"3782","cave","ganti,maisha,nyundo,kesho","kesho","n","5","html-keyboard-response","1159","v","maisha","false","",""
"3454","","","","","5","html-slider-response","1160","","","","2",""
"2255","shoulder","kelele,ndaniya,guruwe,mkuu","mkuu","n","5","html-keyboard-response","1161","n","mkuu","true","",""
"1508","","","","","5","html-slider-response","1162","","","","5",""
"2325","stone","wingi,ulimwengu,mkasi,asili","wingi","f","5","html-keyboard-response","1163","f","wingi","true","",""
"1168","","","","","5","html-slider-response","1164","","","","5",""
"2274","column","pundok,dila,ufagio,pala","ufagio","j","5","html-keyboard-response","1165","j","ufagio","true","",""
"1904","","","","","5","html-slider-response","1166","","","","5",""
"2340","page","wakala,wimbo,ishiri,skina","wimbo","v","5","html-keyboard-response","1167","v","wimbo","true","",""
"1146","","","","","5","html-slider-response","1168","","","","5",""
"8296","shoe","nyeusi,uyoga,hatua,kama","uyoga","v","5","html-keyboard-response","1169","j","hatua","false","",""
"1443","","","","","5","html-slider-response","1170","","","","1",""
"2116","clock","mbwa,kartasi,abang,osha","mbwa","f","5","html-keyboard-response","1171","f","mbwa","true","",""
"1457","","","","","5","html-slider-response","1172","","","","5",""
"4328","towel","tembo,pagpalit,funzi,pito","pagpalit","v","5","html-keyboard-response","1173","v","pagpalit","true","",""
"2290","","","","","5","html-slider-response","1174","","","","2",""
"4767","tomato","chupi,chupa,mvua,takatak","mvua","j","5","html-keyboard-response","1175","j","mvua","true","",""
"1855","","","","","5","html-slider-response","1176","","","","4",""
"1520","bucket","baga,ijayo,kiatu,init","kiatu","j","5","html-keyboard-response","1177","j","kiatu","true","",""
"1136","","","","","5","html-slider-response","1178","","","","5",""
"1596","finger","moyo,simu,sufuria,lima","moyo","f","5","html-keyboard-response","1179","f","moyo","true","",""
"1189","","","","","5","html-slider-response","1180","","","","5",""
"1928","mother","kahawa,mbuzi,babaye,jokofu","babaye","j","5","html-keyboard-response","1181","j","babaye","true","",""
"1199","","","","","5","html-slider-response","1182","","","","5",""
"3532","human","bado,tinapay,kikapu,punguza","tinapay","v","5","html-keyboard-response","1183","v","tinapay","true","",""
"1272","","","","","5","html-slider-response","1184","","","","5",""
"1845","sun","bendi,luha,basi,uongo","basi","j","5","html-keyboard-response","1185","j","basi","true","",""
"1120","","","","","5","html-slider-response","1186","","","","5",""
"1759","fork","mgonjwa,baboy,paghago,gorisi","mgonjwa","f","5","html-keyboard-response","1187","f","mgonjwa","true","",""
"1418","","","","","5","html-slider-response","1188","","","","5",""
"2042","donkey","bloke,lalake,elfu,rombus","elfu","j","5","html-keyboard-response","1189","j","elfu","true","",""
"1362","","","","","5","html-slider-response","1190","","","","5",""
"2064","wolf","lugha,kaburi,ndizi,mchuzi","lugha","f","5","html-keyboard-response","1191","f","lugha","true","",""
"1379","","","","","5","html-slider-response","1192","","","","5",""
"5577","cigar","ndugu,kuta,mlango,adhabu","adhabu","n","5","html-keyboard-response","1193","f","ndugu","false","",""
"2701","","","","","5","html-slider-response","1194","","","","2",""
"1803","olive","bata,jiwe,siagi,welder","jiwe","v","5","html-keyboard-response","1195","v","jiwe","true","",""
"1142","","","","","5","html-slider-response","1196","","","","5",""
"1702","key","miaka,goma,ahos,chombo","chombo","n","5","html-keyboard-response","1197","n","chombo","true","",""
"1102","","","","","5","html-slider-response","1198","","","","5",""
"1686","door","surali,tena,soko,nyota","surali","f","5","html-keyboard-response","1199","f","surali","true","",""
"1377","","","","","5","html-slider-response","1200","","","","5",""
"2149","wheel","bafuni,punda,tawo,baadaye","bafuni","f","5","html-keyboard-response","1201","f","bafuni","true","",""
"1103","","","","","5","html-slider-response","1202","","","","5",""
"8785","basket","kumbuka,utepe,hasira,kumba","kumba","n","5","html-keyboard-response","1203","n","kumba","true","",""
"1377","","","","","5","html-slider-response","1204","","","","4",""
"1689","elephant","petye,pagduol,suka,kito","kito","n","5","html-keyboard-response","1205","n","kito","true","",""
"975","","","","","5","html-slider-response","1206","","","","5",""
"1562","office","leso,hazini,yatima,kuna","leso","f","5","html-keyboard-response","1207","f","leso","true","",""
"1010","","","","","5","html-slider-response","1208","","","","5",""
"4765","music","mraba,mageho,tumbo,baiski","baiski","n","5","html-keyboard-response","1209","v","mageho","false","",""
"2347","","","","","5","html-slider-response","1210","","","","1",""
"10193","tissue","lamigas,ugomvi,kisiwa,katika","ugomvi","v","5","html-keyboard-response","1211","v","ugomvi","true","",""
"2616","","","","","5","html-slider-response","1212","","","","1",""
"4049","curtain","lisud,bulwawan,chubani,mchanga","mchanga","n","5","html-keyboard-response","1213","n","mchanga","true","",""
"1513","","","","","5","html-slider-response","1214","","","","2",""
"4027","flag","trekta,ndege,mkate,kawa","trekta","f","5","html-keyboard-response","1215","f","trekta","true","",""
"1611","","","","","5","html-slider-response","1216","","","","1",""
"3710","dog","lubi,washia,bahari,kalamu","bahari","j","5","html-keyboard-response","1217","j","bahari","true","",""
"1866","","","","","5","html-slider-response","1218","","","","4",""
"2871","cup","matumai,dagat,shimoni,jeraha","matumai","f","5","html-keyboard-response","1219","f","matumai","true","",""
"2027","","","","","5","html-slider-response","1220","","","","5",""
"2270","sheet","juuya,watu,bililhon,kamantis","bililhon","j","5","html-keyboard-response","1221","j","bililhon","true","",""
"1695","","","","","5","html-slider-response","1222","","","","4",""
"2127","spoon","betri,nzuri,pagsulod,ngazi","pagsulod","j","5","html-keyboard-response","1223","j","pagsulod","true","",""
"1260","","","","","5","html-slider-response","1224","","","","5",""
"2817","flower","tamasha,lobo,usiku,bega","bega","n","5","html-keyboard-response","1225","n","bega","true","",""
"1204","","","","","5","html-slider-response","1226","","","","5",""
"4885","picture","kubwa,silya,chaki,asin","kubwa","f","5","html-keyboard-response","1227","f","kubwa","true","",""
"1313","","","","","5","html-slider-response","1228","","","","4",""
"3111","puppet","mazishi,napulo,lamok,godoro","mazishi","f","5","html-keyboard-response","1229","f","mazishi","true","",""
"1399","","","","","5","html-slider-response","1230","","","","5",""
"1578","banana","kazi,kasamok,hagdan,twai","kazi","f","5","html-keyboard-response","1231","f","kazi","true","",""
"1279","","","","","5","html-slider-response","1232","","","","5",""
"3851","book","mali,kuhesa,picha,mara","mali","f","5","html-keyboard-response","1233","f","mali","true","",""
"1413","","","","","5","html-slider-response","1234","","","","5",""
"2521","triangle","kihozi,bentaha,liog,kasadpan","kasadpan","n","5","html-keyboard-response","1235","n","kasadpan","true","",""
"1624","","","","","5","html-slider-response","1236","","","","4",""
"2887","poster","nchi,fedha,kasuko,madungog","madungog","n","5","html-keyboard-response","1237","n","madungog","true","",""
"1356","","","","","5","html-slider-response","1238","","","","5",""
"2000","box","kuacha,rafiki,kitande,adui","adui","n","5","html-keyboard-response","1239","n","adui","true","",""
"973","","","","","5","html-slider-response","1240","","","","5",""
"1769","mosquito","isda,taras,martilyo,gutom","martilyo","j","5","html-keyboard-response","1241","j","martilyo","true","",""
"1147","","","","","5","html-slider-response","1242","","","","5",""
"1567","shelf","bungtod,kadaot,pamahaw,awit","pamahaw","j","5","html-keyboard-response","1243","j","pamahaw","true","",""
"977","","","","","5","html-slider-response","1244","","","","5",""
"1940","scissors","duga,mtawa,suga,tanuri","tanuri","n","5","html-keyboard-response","1245","n","tanuri","true","",""
"1318","","","","","5","html-slider-response","1246","","","","5",""
"2435","hammer","mekno,napakyas,kitovu,layag","napakyas","v","5","html-keyboard-response","1247","v","napakyas","true","",""
"2987","","","","","5","html-slider-response","1248","","","","4",""
