"rt","en_word","options","swa_word","correct_answer","phase","trial_type","trial_index","input_answer","input_word","accuracy","certainty","amt_choices"
"7122","bonfire","mwezi,mfuko,kusanya,goti","goti","n","2","html-keyboard-response","106","n","goti","true","",""
"4661.799999952316","","","","","2","html-slider-response","107","","","","2",""
"7933","flower","tamasha,lobo,usiku,bega","bega","n","2","html-keyboard-response","108","v","lobo","false","",""
"5064.200000047684","","","","","2","html-slider-response","109","","","","2",""
"5778","column","pundok,dila,ufagio,pala","ufagio","j","2","html-keyboard-response","110","n","pala","false","",""
"3468.7999999523163","","","","","2","html-slider-response","111","","","","1",""
"2179","music","mraba,mageho,baiski,tumbo","baiski","j","2","html-keyboard-response","112","n","tumbo","false","",""
"11361","","","","","2","html-slider-response","113","","","","2",""
"7606","spider","kamwe,bunyag,mkboa,atop","kamwe","f","2","html-keyboard-response","114","v","bunyag","false","",""
"4043.7999999523163","","","","","2","html-slider-response","115","","","","2",""
"5753","fork","baboy,mgonjwa,paghago,gorisi","mgonjwa","v","2","html-keyboard-response","116","v","mgonjwa","true","",""
"2226","","","","","2","html-slider-response","117","","","","2",""
"5411","mosquito","isda,martilyo,taras,gutom","martilyo","v","2","html-keyboard-response","118","j","taras","false","",""
"5058.199999809265","","","","","2","html-slider-response","119","","","","1",""
"14139","banana","kasamok,kazi,hagdan,twai","kazi","v","2","html-keyboard-response","120","n","twai","false","",""
"2553.2999999523163","","","","","2","html-slider-response","121","","","","2",""
"6215","cup","dagat,shimoni,jeraha,matumai","matumai","n","2","html-keyboard-response","122","f","dagat","false","",""
"6267.699999809265","","","","","2","html-slider-response","123","","","","2",""
"6744","shop","nopya,samaki,kerida,ndezu","samaki","v","2","html-keyboard-response","124","j","kerida","false","",""
"4533.799999952316","","","","","2","html-slider-response","125","","","","2",""
"25709","elephant","petye,kito,pagduol,suka","kito","v","2","html-keyboard-response","126","v","kito","true","",""
"2605.2000000476837","","","","","2","html-slider-response","127","","","","5",""
"22058","bucket","baga,ijayo,init,kiatu","kiatu","n","2","html-keyboard-response","128","v","ijayo","false","",""
"3881.2000000476837","","","","","2","html-slider-response","129","","","","2",""
"10955","book","kuhesa,picha,mara,mali","mali","n","2","html-keyboard-response","130","j","mara","false","",""
"5821.299999952316","","","","","2","html-slider-response","131","","","","4",""
"16538","mirror","rangi,kanding,furaha,sulagma","sulagma","n","2","html-keyboard-response","132","j","furaha","false","",""
"2612.7999999523163","","","","","2","html-slider-response","133","","","","4",""
"7071","office","hazini,yatima,kuna,leso","leso","n","2","html-keyboard-response","134","n","leso","true","",""
"3635.800000190735","","","","","2","html-slider-response","135","","","","2",""
"8070","body","nyundu,tindashan,jibini,kununa","tindashan","v","2","html-keyboard-response","136","n","kununa","false","",""
"2377.7999999523163","","","","","2","html-slider-response","137","","","","2",""
"19830","perfume","bino,sungura,ndogo,katuyoan","katuyoan","n","2","html-keyboard-response","138","f","bino","false","",""
"2299.7999999523163","","","","","2","html-slider-response","139","","","","5",""
"7980","olive","jiwe,bata,siagi,welder","jiwe","f","2","html-keyboard-response","140","f","jiwe","true","",""
"2959.4000000953674","","","","","2","html-slider-response","141","","","","2",""
"8254","magazine","gundi,kiti,mchawi,bahandi","kiti","v","2","html-keyboard-response","142","v","kiti","true","",""
"3205.4000000953674","","","","","2","html-slider-response","143","","","","2",""
"4860","bread","kaili,dizeli,bugas,dari","dari","n","2","html-keyboard-response","144","n","dari","true","",""
"2444.899999856949","","","","","2","html-slider-response","145","","","","2",""
"32837","cave","ganti,maisha,nyundo,kesho","kesho","n","2","html-keyboard-response","146","f","ganti","false","",""
"2533.800000190735","","","","","2","html-slider-response","147","","","","5",""
"12465","ladder","mashua,mwanga,pangalan,kamba","pangalan","j","2","html-keyboard-response","148","j","pangalan","true","",""
"2880.7000000476837","","","","","2","html-slider-response","149","","","","2",""
"6827","human","tinapay,bado,kikapu,punguza","tinapay","f","2","html-keyboard-response","150","f","tinapay","true","",""
"2256.5","","","","","2","html-slider-response","151","","","","5",""
"16026","clock","kartasi,mbwa,abang,osha","mbwa","v","2","html-keyboard-response","152","f","kartasi","false","",""
"2120.300000190735","","","","","2","html-slider-response","153","","","","1",""
"3322","shelf","bungtod,pamahaw,kadaot,awit","pamahaw","v","2","html-keyboard-response","154","n","awit","false","",""
"3097.9000000953674","","","","","2","html-slider-response","155","","","","1",""
"18477","salmon","mzungu,sensilyo,seri,baharia","sensilyo","v","2","html-keyboard-response","156","v","sensilyo","true","",""
"2493.0999999046326","","","","","2","html-slider-response","157","","","","2",""
"7464","coffin","kioo,barua,tubag,hulma","kioo","f","2","html-keyboard-response","158","f","kioo","true","",""
"2667.2999999523163","","","","","2","html-slider-response","159","","","","1",""
"6801","notebook","msitu,kila,kemia,mdudu","kemia","j","2","html-keyboard-response","160","n","mdudu","false","",""
"2318","","","","","2","html-slider-response","161","","","","2",""
"4763","shoulder","kelele,ndaniya,guruwe,mkuu","mkuu","n","2","html-keyboard-response","162","n","mkuu","true","",""
"2385.100000143051","","","","","2","html-slider-response","163","","","","5",""
"7265","park","tambok,pwani,ihalas,bunifu","bunifu","n","2","html-keyboard-response","164","v","pwani","false","",""
"1929.4000000953674","","","","","2","html-slider-response","165","","","","1",""
"6907","number","mundamo,shule,kengele,choori","mundamo","f","2","html-keyboard-response","166","n","choori","false","",""
"3239.7999999523163","","","","","2","html-slider-response","167","","","","1",""
"4088","apple","kisu,ukame,estante,edad","kisu","f","2","html-keyboard-response","168","f","kisu","true","",""
"3083.7000000476837","","","","","2","html-slider-response","169","","","","5",""
"8548","letter","filimbi,kifua,chuma,uhuru","kifua","v","2","html-keyboard-response","170","f","filimbi","false","",""
"2134.600000143051","","","","","2","html-slider-response","171","","","","1",""
"3088","eel","msumari,ishara,kunywa,kabuang","msumari","f","2","html-keyboard-response","172","v","ishara","false","",""
"2522.0999999046326","","","","","2","html-slider-response","173","","","","1",""
"9287","cop","bustani,jikoni,bakus,mechezo","mechezo","n","2","html-keyboard-response","174","v","jikoni","false","",""
"4091.7999999523163","","","","","2","html-slider-response","175","","","","1",""
"4463","wolf","kaburi,ndizi,lugha,mchuzi","lugha","j","2","html-keyboard-response","176","j","lugha","true","",""
"2164.9000000953674","","","","","2","html-slider-response","177","","","","5",""
"11990","squirrel","mahugaw,hofu,ukweli,kichwa","hofu","v","2","html-keyboard-response","178","v","hofu","true","",""
"2539.7000000476837","","","","","2","html-slider-response","179","","","","5",""
"16962","nose","gubat,kopa,sehemu,kidole","sehemu","j","2","html-keyboard-response","180","v","kopa","false","",""
"4968.700000047684","","","","","2","html-slider-response","181","","","","1",""
"5617","sock","mamba,ndoora,kimysa,mtirka","mamba","f","2","html-keyboard-response","182","f","mamba","true","",""
"2346.600000143051","","","","","2","html-slider-response","183","","","","5",""
"8310","bank","kudhibi,tualya,silingan,ofisi","silingan","j","2","html-keyboard-response","184","f","kudhibi","false","",""
"3427.899999856949","","","","","2","html-slider-response","185","","","","1",""
"4480","donkey","bloke,elfu,lalake,rombus","elfu","v","2","html-keyboard-response","186","v","elfu","true","",""
"3226","","","","","2","html-slider-response","187","","","","1",""
"9042","poster","nchi,fedha,kasuko,madungog","madungog","n","2","html-keyboard-response","188","j","kasuko","false","",""
"2357.7999999523163","","","","","2","html-slider-response","189","","","","1",""
"5674","puppet","napulo,lamok,godoro,mazishi","mazishi","n","2","html-keyboard-response","190","n","mazishi","true","",""
"2657.5999999046326","","","","","2","html-slider-response","191","","","","1",""
"3784","hill","kushoto,kukimba,sweta,matumbo","matumbo","n","2","html-keyboard-response","192","f","kushoto","false","",""
"10218.799999952316","","","","","2","html-slider-response","193","","","","2",""
"5528","tooth","kijiko,uadui,kabalaka,pahiyum","kabalaka","j","2","html-keyboard-response","194","j","kabalaka","true","",""
"2153.7999999523163","","","","","2","html-slider-response","195","","","","5",""
"11529","woman","bandari,bituin,kovuli,pagtabon","pagtabon","n","2","html-keyboard-response","196","f","bandari","false","",""
"2721.9000000953674","","","","","2","html-slider-response","197","","","","1",""
"5107","wheel","punda,tawo,bafuni,baadaye","bafuni","j","2","html-keyboard-response","198","v","tawo","false","",""
"2375.699999809265","","","","","2","html-slider-response","199","","","","1",""
"4608","mother","babaye,kahawa,mbuzi,jokofu","babaye","f","2","html-keyboard-response","200","f","babaye","true","",""
"2041.5999999046326","","","","","2","html-slider-response","201","","","","5",""
"12108","bed","mapintas,kalipay,haraka,starehe","mapintas","f","2","html-keyboard-response","202","v","kalipay","false","",""
"2541.7000000476837","","","","","2","html-slider-response","203","","","","1",""
"5403","key","miaka,chombo,goma,ahos","chombo","v","2","html-keyboard-response","204","v","chombo","true","",""
"3456.2000000476837","","","","","2","html-slider-response","205","","","","2",""
"4738","page","wakala,ishiri,skina,wimbo","wimbo","n","2","html-keyboard-response","206","n","wimbo","true","",""
"2472.699999809265","","","","","2","html-slider-response","207","","","","2",""
"10746","pants","pintal,haki,chuki,hari","haki","v","2","html-keyboard-response","208","v","haki","true","",""
"2307.2000000476837","","","","","2","html-slider-response","209","","","","2",""
"5324","sun","bendi,basi,luha,uongo","basi","v","2","html-keyboard-response","210","j","luha","false","",""
"2424.5999999046326","","","","","2","html-slider-response","211","","","","2",""
"4229","finger","moyo,simu,sufuria,lima","moyo","f","2","html-keyboard-response","212","f","moyo","true","",""
"4020.600000143051","","","","","2","html-slider-response","213","","","","5",""
"5537","shoe","nyeusi,hatua,uyoga,kama","uyoga","j","2","html-keyboard-response","214","n","kama","false","",""
"5170.200000047684","","","","","2","html-slider-response","215","","","","4",""
"9268","giraffe","daraja,jumatu,hangyo,mahitabo","mahitabo","n","2","html-keyboard-response","216","j","hangyo","false","",""
"2655.4000000953674","","","","","2","html-slider-response","217","","","","4",""
"6499","dog","bahari,lubi,washia,kalamu","bahari","f","2","html-keyboard-response","218","f","bahari","true","",""
"2065.5","","","","","2","html-slider-response","219","","","","4",""
"2971","box","adui,kuacha,rafiki,kitande","adui","f","2","html-keyboard-response","220","f","adui","true","",""
"2287.800000190735","","","","","2","html-slider-response","221","","","","2",""
"5281","scissors","tanuri,duga,mtawa,suga","tanuri","f","2","html-keyboard-response","222","n","suga","false","",""
"1975.5","","","","","2","html-slider-response","223","","","","2",""
"5351","cat","neyemba,paghukom,baki,akili","paghukom","v","2","html-keyboard-response","224","n","akili","false","",""
"4612.700000047684","","","","","2","html-slider-response","225","","","","1",""
"5336","basket","kumbuka,kumba,utepe,hasira","kumba","v","2","html-keyboard-response","226","f","kumbuka","false","",""
"3553.7000000476837","","","","","2","html-slider-response","227","","","","1",""
"5577","snake","jansa,karon,pagtukod,mvringo","pagtukod","j","2","html-keyboard-response","228","v","karon","false","",""
"3426.4000000953674","","","","","2","html-slider-response","229","","","","3",""
"17927","gift","baba,nyange,baso,pagtawag","pagtawag","n","2","html-keyboard-response","230","f","baba","false","",""
"1859.2999999523163","","","","","2","html-slider-response","231","","","","4",""
"5457","train","itik,sayari,dakika,mungu","sayari","v","2","html-keyboard-response","232","n","mungu","false","",""
"3464","","","","","2","html-slider-response","233","","","","2",""
"5934","pudding","abug,mpishi,iring,aibu","aibu","n","2","html-keyboard-response","234","n","aibu","true","",""
"3774.7999999523163","","","","","2","html-slider-response","235","","","","2",""
"4291","tomato","chupi,chupa,mvua,takatak","mvua","j","2","html-keyboard-response","236","v","chupa","false","",""
"2158.2999999523163","","","","","2","html-slider-response","237","","","","4",""
"7402","stone","ulimwengu,wingi,mkasi,asili","wingi","v","2","html-keyboard-response","238","v","wingi","true","",""
"2473.2000000476837","","","","","2","html-slider-response","239","","","","5",""
"14885","hammer","napakyas,mekno,kitovu,layag","napakyas","f","2","html-keyboard-response","240","f","napakyas","true","",""
"6695.800000190735","","","","","2","html-slider-response","241","","","","4",""
"9042","knee","duka,mvuke,kubale,bili","duka","f","2","html-keyboard-response","242","n","bili","false","",""
"3671.7000000476837","","","","","2","html-slider-response","243","","","","2",""
"12726","ceiling","kugita,maua,kawaida,rayna","maua","v","2","html-keyboard-response","244","n","rayna","false","",""
"3533.7999999523163","","","","","2","html-slider-response","245","","","","2",""
"4138","spoon","betri,nzuri,ngazi,pagsulod","pagsulod","n","2","html-keyboard-response","246","j","ngazi","false","",""
"5696.799999952316","","","","","2","html-slider-response","247","","","","2",""
"7118","marker","mapafu,salita,maji,atay","maji","j","2","html-keyboard-response","248","v","salita","false","",""
"11212.100000143051","","","","","2","html-slider-response","249","","","","4",""
"7278","candle","gabi,geza,farasi,kupanda","geza","v","2","html-keyboard-response","250","j","farasi","false","",""
"2348.9000000953674","","","","","2","html-slider-response","251","","","","5",""
"3695","tissue","ugomvi,lamigas,kisiwa,katika","ugomvi","f","2","html-keyboard-response","252","n","katika","false","",""
"3338.100000143051","","","","","2","html-slider-response","253","","","","2",""
"6951","bridge","daima,ngono,sahani,panya","sahani","j","2","html-keyboard-response","254","n","panya","false","",""
"2584.7000000476837","","","","","2","html-slider-response","255","","","","1",""
"5366","berry","abogado,nogozi,kinywa,kofia","kofia","n","2","html-keyboard-response","256","v","nogozi","false","",""
"5419.200000047684","","","","","2","html-slider-response","257","","","","2",""
"9367","triangle","kasadpan,kihozi,bentaha,liog","kasadpan","f","2","html-keyboard-response","258","v","kihozi","false","",""
"2491.2999999523163","","","","","2","html-slider-response","259","","","","1",""
"6710","door","tena,soko,surali,nyota","surali","j","2","html-keyboard-response","260","v","soko","false","",""
"2573.7999999523163","","","","","2","html-slider-response","261","","","","2",""
"11636","fish","bala,baho,imani,buli","buli","n","2","html-keyboard-response","262","v","baho","false","",""
"5156.100000143051","","","","","2","html-slider-response","263","","","","1",""
"9344","curtain","mchanga,lisud,bulwawan,chubani","mchanga","f","2","html-keyboard-response","264","n","chubani","false","",""
"3491.2999999523163","","","","","2","html-slider-response","265","","","","2",""
"17549","flag","ndege,mkate,trekta,kawa","trekta","j","2","html-keyboard-response","266","f","ndege","false","",""
"2859.7999999523163","","","","","2","html-slider-response","267","","","","2",""
"7026","boat","hamsi,agalon,pombe,kitanda","agalon","v","2","html-keyboard-response","268","n","kitanda","false","",""
"4224","","","","","2","html-slider-response","269","","","","1",""
"8015","rose","singizi,mwanake,amani,paghalad","paghalad","n","2","html-keyboard-response","270","n","paghalad","true","",""
"2901.7999999523163","","","","","2","html-slider-response","271","","","","2",""
"7670","lamp","daub,bilaska,afya,mbolea","afya","j","2","html-keyboard-response","272","n","mbolea","false","",""
"2972","","","","","2","html-slider-response","273","","","","1",""
"9358","cigar","adhabu,ndugu,kuta,mlango","adhabu","f","2","html-keyboard-response","274","f","adhabu","true","",""
"2068.7999999523163","","","","","2","html-slider-response","275","","","","5",""
"8774","list","alizeti,kuzama,wingu,kaso","wingu","j","2","html-keyboard-response","276","n","kaso","false","",""
"2364.600000143051","","","","","2","html-slider-response","277","","","","1",""
"7194","sheet","juuya,watu,bililhon,kamantis","bililhon","j","2","html-keyboard-response","278","v","watu","false","",""
"3574.2999999523163","","","","","2","html-slider-response","279","","","","2",""
"56291","picture","kubwa,silya,chaki,asin","kubwa","f","2","html-keyboard-response","280","j","chaki","false","",""
"2502.899999856949","","","","","2","html-slider-response","281","","","","2",""
"3739","towel","tembo,funzi,pagpalit,pito","pagpalit","j","2","html-keyboard-response","282","n","pito","false","",""
"2672.0999999046326","","","","","2","html-slider-response","283","","","","2",""
"3244","window","nanga,kujenga,umaga,kweli","kweli","n","2","html-keyboard-response","284","n","kweli","true","",""
"2020.5999999046326","","","","","2","html-slider-response","285","","","","1",""
"14052","box","adui,kuacha,rafiki,kitande","adui","f","3","html-keyboard-response","293","f","adui","true","","4"
"2760.2999999523163","","","","","3","html-slider-response","294","","","","1",""
"24786","","","","","3","html-keyboard-response","295","","","","",""
"68252","pants","pintal,chuki,haki,hari","haki","j","3","html-keyboard-response","296","f","pintal","false","","4"
"3213.2000000476837","","","","","3","html-slider-response","297","","","","1",""
"13461","","","","","3","html-keyboard-response","298","","","","",""
"8068","cup","dagat,shimoni,matumai,jeraha","matumai","j","3","html-keyboard-response","299","v","shimoni","false","","4"
"2645.4000000953674","","","","","3","html-slider-response","300","","","","1",""
"15375","","","","","3","html-keyboard-response","301","","","","",""
"30303","triangle","kihozi,bentaha,kasadpan,liog","kasadpan","j","3","html-keyboard-response","302","f","kihozi","false","","4"
"3984.7999999523163","","","","","3","html-slider-response","303","","","","1",""
"15486","","","","","3","html-keyboard-response","304","","","","",""
"7785","curtain","lisud,mchanga,bulwawan,chubani","mchanga","v","3","html-keyboard-response","305","j","bulwawan","false","","4"
"2367.0999999046326","","","","","3","html-slider-response","306","","","","1",""
"9248","","","","","3","html-keyboard-response","307","","","","",""
"4835","clock","kartasi,abang,mbwa,osha","mbwa","j","3","html-keyboard-response","308","j","mbwa","true","","4"
"2969.5999999046326","","","","","3","html-slider-response","309","","","","4",""
"5934","","","","","3","html-keyboard-response","310","","","","",""
"16806","mirror","rangi,kanding,sulagma,furaha","sulagma","j","3","html-keyboard-response","311","n","furaha","false","","4"
"2081.7000000476837","","","","","3","html-slider-response","312","","","","2",""
"8638","","","","","3","html-keyboard-response","313","","","","",""
"17581","coffin","barua,tubag,kioo,hulma","kioo","j","3","html-keyboard-response","314","j","kioo","true","","1"
"3324","","","","","3","html-slider-response","315","","","","5",""
"6688","","","","","3","html-keyboard-response","316","","","","",""
"15088","magazine","gundi,mchawi,kiti,bahandi","kiti","j","3","html-keyboard-response","317","f","gundi","false","","4"
"2536.699999809265","","","","","3","html-slider-response","318","","","","1",""
"8190","","","","","3","html-keyboard-response","319","","","","",""
"7151","column","ufagio,pundok,dila,pala","ufagio","f","3","html-keyboard-response","320","f","ufagio","true","","1"
"6380.599999904633","","","","","3","html-slider-response","321","","","","2",""
"18385","","","","","3","html-keyboard-response","322","","","","",""
"6220","number","shule,kengele,mundamo,choori","mundamo","j","3","html-keyboard-response","323","n","choori","false","","4"
"2674.7999999523163","","","","","3","html-slider-response","324","","","","2",""
"11323","","","","","3","html-keyboard-response","325","","","","",""
"7007","rose","singizi,mwanake,amani,paghalad","paghalad","n","3","html-keyboard-response","326","j","amani","false","","4"
"2141.199999809265","","","","","3","html-slider-response","327","","","","2",""
"9095","","","","","3","html-keyboard-response","328","","","","",""
"6287","eel","msumari,ishara,kunywa,kabuang","msumari","f","3","html-keyboard-response","329","n","kabuang","false","","4"
"3202.2000000476837","","","","","3","html-slider-response","330","","","","2",""
"9718","","","","","3","html-keyboard-response","331","","","","",""
"4925","gift","baba,nyange,baso,pagtawag","pagtawag","n","3","html-keyboard-response","332","f","baba","false","","4"
"2157.899999856949","","","","","3","html-slider-response","333","","","","4",""
"8899","","","","","3","html-keyboard-response","334","","","","",""
"3996","apple","kisu,ukame,estante,edad","kisu","f","3","html-keyboard-response","335","f","kisu","true","","1"
"6454.199999809265","","","","","3","html-slider-response","336","","","","5",""
"4847","","","","","3","html-keyboard-response","337","","","","",""
"10116","wheel","punda,tawo,bafuni,baadaye","bafuni","j","3","html-keyboard-response","338","j","bafuni","true","","1"
"11556.100000143051","","","","","3","html-slider-response","339","","","","5",""
"7459","","","","","3","html-keyboard-response","340","","","","",""
"7466","knee","mvuke,duka,kubale,bili","duka","v","3","html-keyboard-response","341","n","bili","false","","4"
"3210.5","","","","","3","html-slider-response","342","","","","2",""
"5285","","","","","3","html-keyboard-response","343","","","","",""
"16808","basket","kumbuka,kumba,utepe,hasira","kumba","v","3","html-keyboard-response","344","v","kumba","true","","1"
"4038.2999999523163","","","","","3","html-slider-response","345","","","","5",""
"2479","","","","","3","html-keyboard-response","346","","","","",""
"22876","park","tambok,bunifu,pwani,ihalas","bunifu","v","3","html-keyboard-response","347","n","ihalas","false","","4"
"2364","","","","","3","html-slider-response","348","","","","5",""
"13692","","","","","3","html-keyboard-response","349","","","","",""
"4668","finger","simu,sufuria,moyo,lima","moyo","j","3","html-keyboard-response","350","j","moyo","true","","4"
"2021.9000000953674","","","","","3","html-slider-response","351","","","","1",""
"2734","","","","","3","html-keyboard-response","352","","","","",""
"25442","boat","hamsi,agalon,pombe,kitanda","agalon","v","3","html-keyboard-response","353","f","hamsi","false","","4"
"23513.199999809265","","","","","3","html-slider-response","354","","","","1",""
"17410","","","","","3","html-keyboard-response","355","","","","",""
"4957","hill","kushoto,kukimba,sweta,matumbo","matumbo","n","3","html-keyboard-response","356","j","sweta","false","","4"
"2717.7999999523163","","","","","3","html-slider-response","357","","","","1",""
"11146","","","","","3","html-keyboard-response","358","","","","",""
"8273","train","itik,dakika,sayari,mungu","sayari","j","3","html-keyboard-response","359","j","sayari","true","","4"
"2484.100000143051","","","","","3","html-slider-response","360","","","","1",""
"23171","","","","","3","html-keyboard-response","361","","","","",""
"6775","wolf","kaburi,lugha,ndizi,mchuzi","lugha","v","3","html-keyboard-response","362","v","lugha","true","","4"
"3806.7000000476837","","","","","3","html-slider-response","363","","","","5",""
"1419","","","","","3","html-keyboard-response","364","","","","",""
"3598","snake","pagtukod,jansa,karon,mvringo","pagtukod","f","3","html-keyboard-response","365","j","karon","false","","4"
"5559.900000095367","","","","","3","html-slider-response","366","","","","2",""
"3332","","","","","3","html-keyboard-response","367","","","","",""
"11971","tooth","kijiko,uadui,kabalaka,pahiyum","kabalaka","j","3","html-keyboard-response","368","j","kabalaka","true","","4"
"2694.7999999523163","","","","","3","html-slider-response","369","","","","5",""
"9852","","","","","3","html-keyboard-response","370","","","","",""
"9418","notebook","kemia,msitu,kila,mdudu","kemia","f","3","html-keyboard-response","371","n","mdudu","false","","4"
"3055.199999809265","","","","","3","html-slider-response","372","","","","1",""
"8600","","","","","3","html-keyboard-response","373","","","","",""
"8140","flag","trekta,ndege,mkate,kawa","trekta","f","3","html-keyboard-response","374","f","trekta","true","","4"
"2424.5","","","","","3","html-slider-response","375","","","","1",""
"9132","","","","","3","html-keyboard-response","376","","","","",""
"9205","squirrel","mahugaw,ukweli,kichwa,hofu","hofu","n","3","html-keyboard-response","377","n","hofu","true","","4"
"2015.2000000476837","","","","","3","html-slider-response","378","","","","5",""
"4839","","","","","3","html-keyboard-response","379","","","","",""
"9628","door","tena,surali,soko,nyota","surali","v","3","html-keyboard-response","380","v","surali","true","","4"
"2499.0999999046326","","","","","3","html-slider-response","381","","","","1",""
"54186","","","","","3","html-keyboard-response","382","","","","",""
"5947","salmon","mzungu,seri,sensilyo,baharia","sensilyo","j","3","html-keyboard-response","383","v","seri","false","","4"
"2609.9000000953674","","","","","3","html-slider-response","384","","","","1",""
"18893","","","","","3","html-keyboard-response","385","","","","",""
"3787","shoulder","kelele,ndaniya,guruwe,mkuu","mkuu","n","3","html-keyboard-response","386","n","mkuu","true","","4"
"3374.199999809265","","","","","3","html-slider-response","387","","","","5",""
"4182","","","","","3","html-keyboard-response","388","","","","",""
"13312","lamp","daub,afya,bilaska,mbolea","afya","v","3","html-keyboard-response","389","f","daub","false","","4"
"2359.7000000476837","","","","","3","html-slider-response","390","","","","1",""
"4125","","","","","3","html-keyboard-response","391","","","","",""
"47620","shelf","bungtod,kadaot,awit,pamahaw","pamahaw","n","3","html-keyboard-response","392","n","pamahaw","true","","1"
"4595.299999952316","","","","","3","html-slider-response","393","","","","5",""
"6416","","","","","3","html-keyboard-response","394","","","","",""
"7854","human","bado,kikapu,punguza,tinapay","tinapay","n","3","html-keyboard-response","395","n","tinapay","true","","4"
"2567.2000000476837","","","","","3","html-slider-response","396","","","","5",""
"1852","","","","","3","html-keyboard-response","397","","","","",""
"8883","towel","tembo,funzi,pagpalit,pito","pagpalit","j","3","html-keyboard-response","398","v","funzi","false","","4"
"3230.7000000476837","","","","","3","html-slider-response","399","","","","1",""
"21270","","","","","3","html-keyboard-response","400","","","","",""
"8239","cat","paghukom,neyemba,baki,akili","paghukom","f","3","html-keyboard-response","401","j","baki","false","","4"
"2527.100000143051","","","","","3","html-slider-response","402","","","","1",""
"10094","","","","","3","html-keyboard-response","403","","","","",""
"6729","spider","bunyag,mkboa,kamwe,atop","kamwe","j","3","html-keyboard-response","404","n","atop","false","","4"
"2561.199999809265","","","","","3","html-slider-response","405","","","","1",""
"42369","","","","","3","html-keyboard-response","406","","","","",""
"13613","window","nanga,kujenga,umaga,kweli","kweli","n","3","html-keyboard-response","407","n","kweli","true","","4"
"2622.800000190735","","","","","3","html-slider-response","408","","","","2",""
"11622","","","","","3","html-keyboard-response","409","","","","",""
"9259","woman","bandari,bituin,kovuli,pagtabon","pagtabon","n","3","html-keyboard-response","410","n","pagtabon","true","","1"
"2534.699999809265","","","","","3","html-slider-response","411","","","","5",""
"2447","","","","","3","html-keyboard-response","412","","","","",""
"31966","giraffe","daraja,jumatu,mahitabo,hangyo","mahitabo","j","3","html-keyboard-response","413","f","daraja","false","","4"
"2916.2000000476837","","","","","3","html-slider-response","414","","","","4",""
"23758","","","","","3","html-keyboard-response","415","","","","",""
"5052","elephant","petye,pagduol,kito,suka","kito","j","3","html-keyboard-response","416","n","suka","false","","4"
"2172","","","","","3","html-slider-response","417","","","","5",""
"5095","","","","","3","html-keyboard-response","418","","","","",""
"6340","cave","ganti,maisha,kesho,nyundo","kesho","j","3","html-keyboard-response","419","f","ganti","false","","4"
"5740.200000047684","","","","","3","html-slider-response","420","","","","4",""
"7459","","","","","3","html-keyboard-response","421","","","","",""
"8587","bread","kaili,dari,dizeli,bugas","dari","v","3","html-keyboard-response","422","f","kaili","false","","4"
"3815.2000000476837","","","","","3","html-slider-response","423","","","","2",""
"11091","","","","","3","html-keyboard-response","424","","","","",""
"5546","stone","ulimwengu,mkasi,asili,wingi","wingi","n","3","html-keyboard-response","425","n","wingi","true","","4"
"2368.7999999523163","","","","","3","html-slider-response","426","","","","5",""
"1601","","","","","3","html-keyboard-response","427","","","","",""
"5943","donkey","bloke,lalake,rombus,elfu","elfu","n","3","html-keyboard-response","428","n","elfu","true","","4"
"2131.7000000476837","","","","","3","html-slider-response","429","","","","1",""
"5037","","","","","3","html-keyboard-response","430","","","","",""
"13800","bridge","daima,sahani,ngono,panya","sahani","v","3","html-keyboard-response","431","v","sahani","true","","4"
"2048.600000143051","","","","","3","html-slider-response","432","","","","5",""
"2298","","","","","3","html-keyboard-response","433","","","","",""
"13894","bonfire","mwezi,mfuko,goti,kusanya","goti","j","3","html-keyboard-response","434","f","mwezi","false","","4"
"2224.2000000476837","","","","","3","html-slider-response","435","","","","1",""
"10337","","","","","3","html-keyboard-response","436","","","","",""
"7537","book","mali,kuhesa,picha,mara","mali","f","3","html-keyboard-response","437","n","mara","false","","4"
"2301.800000190735","","","","","3","html-slider-response","438","","","","1",""
"9429","","","","","3","html-keyboard-response","439","","","","",""
"10624","fish","bala,baho,imani,buli","buli","n","3","html-keyboard-response","440","n","buli","true","","4"
"2479.2999999523163","","","","","3","html-slider-response","441","","","","2",""
"7350","","","","","3","html-keyboard-response","442","","","","",""
"4051","spoon","betri,nzuri,pagsulod,ngazi","pagsulod","j","3","html-keyboard-response","443","n","ngazi","false","","4"
"2091.5","","","","","3","html-slider-response","444","","","","4",""
"18221","","","","","3","html-keyboard-response","445","","","","",""
"7820","scissors","tanuri,duga,mtawa,suga","tanuri","f","3","html-keyboard-response","446","n","suga","false","","4"
"2469.300000190735","","","","","3","html-slider-response","447","","","","2",""
"32295","","","","","3","html-keyboard-response","448","","","","",""
"8161","page","wimbo,wakala,ishiri,skina","wimbo","f","3","html-keyboard-response","449","v","wakala","false","","4"
"3286.7000000476837","","","","","3","html-slider-response","450","","","","2",""
"16567","","","","","3","html-keyboard-response","451","","","","",""
"9303","nose","sehemu,gubat,kopa,kidole","sehemu","f","3","html-keyboard-response","452","f","sehemu","true","","1"
"4512.599999904633","","","","","3","html-slider-response","453","","","","4",""
"6580","","","","","3","html-keyboard-response","454","","","","",""
"22253","ceiling","kugita,maua,kawaida,rayna","maua","v","3","html-keyboard-response","455","j","kawaida","false","","4"
"2044.5999999046326","","","","","3","html-slider-response","456","","","","2",""
"10446","","","","","3","html-keyboard-response","457","","","","",""
"8911","bucket","baga,ijayo,kiatu,init","kiatu","j","3","html-keyboard-response","458","j","kiatu","true","","4"
"2511.0999999046326","","","","","3","html-slider-response","459","","","","2",""
"2254","","","","","3","html-keyboard-response","460","","","","",""
"8321","berry","abogado,nogozi,kofia,kinywa","kofia","j","3","html-keyboard-response","461","j","kofia","true","","1"
"3016.4000000953674","","","","","3","html-slider-response","462","","","","5",""
"2325","","","","","3","html-keyboard-response","463","","","","",""
"3190","mother","kahawa,babaye,mbuzi,jokofu","babaye","v","3","html-keyboard-response","464","v","babaye","true","","1"
"2724.300000190735","","","","","3","html-slider-response","465","","","","5",""
"2291","","","","","3","html-keyboard-response","466","","","","",""
"8277","mosquito","isda,martilyo,taras,gutom","martilyo","v","3","html-keyboard-response","467","v","martilyo","true","","4"
"2409.7000000476837","","","","","3","html-slider-response","468","","","","1",""
"11171","","","","","3","html-keyboard-response","469","","","","",""
"3838","perfume","bino,katuyoan,sungura,ndogo","katuyoan","v","3","html-keyboard-response","470","f","bino","false","","4"
"2456.300000190735","","","","","3","html-slider-response","471","","","","5",""
"15104","","","","","3","html-keyboard-response","472","","","","",""
"67589","sheet","juuya,watu,bililhon,kamantis","bililhon","j","3","html-keyboard-response","473","v","watu","false","","4"
"4514.800000190735","","","","","3","html-slider-response","474","","","","1",""
"7036","","","","","3","html-keyboard-response","475","","","","",""
"12127","puppet","mazishi,napulo,lamok,godoro","mazishi","f","3","html-keyboard-response","476","f","mazishi","true","","1"
"1866.8999998569489","","","","","3","html-slider-response","477","","","","5",""
"2729","","","","","3","html-keyboard-response","478","","","","",""
"8927","poster","madungog,nchi,fedha,kasuko","madungog","f","3","html-keyboard-response","479","j","fedha","false","","4"
"5414.799999952316","","","","","3","html-slider-response","480","","","","2",""
"13878","","","","","3","html-keyboard-response","481","","","","",""
"6593","music","baiski,mraba,mageho,tumbo","baiski","f","3","html-keyboard-response","482","n","tumbo","false","","4"
"3659.5","","","","","3","html-slider-response","483","","","","2",""
"23960","","","","","3","html-keyboard-response","484","","","","",""
"5753","key","chombo,miaka,goma,ahos","chombo","f","3","html-keyboard-response","485","f","chombo","true","","4"
"2652.2999999523163","","","","","3","html-slider-response","486","","","","1",""
"9007","","","","","3","html-keyboard-response","487","","","","",""
"5322","sock","mamba,ndoora,kimysa,mtirka","mamba","f","3","html-keyboard-response","488","f","mamba","true","","4"
"1510.2000000476837","","","","","3","html-slider-response","489","","","","2",""
"4281","","","","","3","html-keyboard-response","490","","","","",""
"9924","marker","mapafu,salita,atay,maji","maji","n","3","html-keyboard-response","491","n","maji","true","","4"
"2298.0999999046326","","","","","3","html-slider-response","492","","","","5",""
"1870","","","","","3","html-keyboard-response","493","","","","",""
"6016","office","hazini,yatima,leso,kuna","leso","j","3","html-keyboard-response","494","n","kuna","false","","4"
"2523.4000000953674","","","","","3","html-slider-response","495","","","","2",""
"13782","","","","","3","html-keyboard-response","496","","","","",""
"8078","shoe","nyeusi,hatua,kama,uyoga","uyoga","n","3","html-keyboard-response","497","n","uyoga","true","","4"
"2339.4000000953674","","","","","3","html-slider-response","498","","","","5",""
"1573","","","","","3","html-keyboard-response","499","","","","",""
"24261","cop","bustani,jikoni,bakus,mechezo","mechezo","n","3","html-keyboard-response","500","j","bakus","false","","4"
"3517.0999999046326","","","","","3","html-slider-response","501","","","","2",""
"12468","","","","","3","html-keyboard-response","502","","","","",""
"4072","bank","kudhibi,silingan,tualya,ofisi","silingan","v","3","html-keyboard-response","503","n","ofisi","false","","4"
"2634.300000190735","","","","","3","html-slider-response","504","","","","2",""
"7956","","","","","3","html-keyboard-response","505","","","","",""
"12960","letter","filimbi,chuma,uhuru,kifua","kifua","n","3","html-keyboard-response","506","n","kifua","true","","1"
"3468.2999999523163","","","","","3","html-slider-response","507","","","","5",""
"122236","","","","","3","html-keyboard-response","508","","","","",""
"12156","dog","lubi,washia,bahari,kalamu","bahari","j","3","html-keyboard-response","509","j","bahari","true","","1"
"4410.799999952316","","","","","3","html-slider-response","510","","","","5",""
"2426","","","","","3","html-keyboard-response","511","","","","",""
"18211","shop","nopya,kerida,ndezu,samaki","samaki","n","3","html-keyboard-response","512","j","ndezu","false","","4"
"4164","","","","","3","html-slider-response","513","","","","1",""
"13087","","","","","3","html-keyboard-response","514","","","","",""
"10297","flower","tamasha,lobo,bega,usiku","bega","j","3","html-keyboard-response","515","n","usiku","false","","4"
"7361.900000095367","","","","","3","html-slider-response","516","","","","1",""
"6734","","","","","3","html-keyboard-response","517","","","","",""
"5711","cigar","adhabu,ndugu,kuta,mlango","adhabu","f","3","html-keyboard-response","518","f","adhabu","true","","1"
"4901.200000047684","","","","","3","html-slider-response","519","","","","5",""
"11163","","","","","3","html-keyboard-response","520","","","","",""
"9061","hammer","napakyas,mekno,kitovu,layag","napakyas","f","3","html-keyboard-response","521","f","napakyas","true","","4"
"2748.5","","","","","3","html-slider-response","522","","","","1",""
"8525","","","","","3","html-keyboard-response","523","","","","",""
"9539","fork","baboy,mgonjwa,paghago,gorisi","mgonjwa","v","3","html-keyboard-response","524","v","mgonjwa","true","","4"
"2535.100000143051","","","","","3","html-slider-response","525","","","","1",""
"6217","","","","","3","html-keyboard-response","526","","","","",""
"3408","sun","basi,bendi,luha,uongo","basi","f","3","html-keyboard-response","527","f","basi","true","","1"
"16525.900000095367","","","","","3","html-slider-response","528","","","","5",""
"1753","","","","","3","html-keyboard-response","529","","","","",""
"9581","ladder","mashua,mwanga,pangalan,kamba","pangalan","j","3","html-keyboard-response","530","j","pangalan","true","","4"
"2918.9000000953674","","","","","3","html-slider-response","531","","","","1",""
"10320","","","","","3","html-keyboard-response","532","","","","",""
"3211","banana","kasamok,kazi,hagdan,twai","kazi","v","3","html-keyboard-response","533","v","kazi","true","","1"
"4731","","","","","3","html-slider-response","534","","","","5",""
"1546","","","","","3","html-keyboard-response","535","","","","",""
"18531","pudding","abug,aibu,mpishi,iring","aibu","v","3","html-keyboard-response","536","j","mpishi","false","","4"
"3569.800000190735","","","","","3","html-slider-response","537","","","","2",""
"9181","","","","","3","html-keyboard-response","538","","","","",""
"10920","body","nyundu,tindashan,jibini,kununa","tindashan","v","3","html-keyboard-response","539","n","kununa","false","","4"
"3056.699999809265","","","","","3","html-slider-response","540","","","","2",""
"15800","","","","","3","html-keyboard-response","541","","","","",""
"8100","bed","kalipay,haraka,starehe,mapintas","mapintas","n","3","html-keyboard-response","542","f","kalipay","false","","4"
"2590.800000190735","","","","","3","html-slider-response","543","","","","1",""
"10627","","","","","3","html-keyboard-response","544","","","","",""
"6874","tissue","lamigas,ugomvi,kisiwa,katika","ugomvi","v","3","html-keyboard-response","545","f","lamigas","false","","4"
"3015.7000000476837","","","","","3","html-slider-response","546","","","","1",""
"12097","","","","","3","html-keyboard-response","547","","","","",""
"11544","candle","gabi,farasi,geza,kupanda","geza","j","3","html-keyboard-response","548","v","farasi","false","","4"
"2340.7000000476837","","","","","3","html-slider-response","549","","","","5",""
"21965","","","","","3","html-keyboard-response","550","","","","",""
"3128","tomato","chupi,chupa,takatak,mvua","mvua","n","3","html-keyboard-response","551","n","mvua","true","","1"
"4222","","","","","3","html-slider-response","552","","","","5",""
"3700","","","","","3","html-keyboard-response","553","","","","",""
"9427","list","wingu,alizeti,kuzama,kaso","wingu","f","3","html-keyboard-response","554","n","kaso","false","","4"
"4611.700000047684","","","","","3","html-slider-response","555","","","","1",""
"3727","","","","","3","html-keyboard-response","556","","","","",""
"7935","olive","bata,siagi,welder,jiwe","jiwe","n","3","html-keyboard-response","557","n","jiwe","true","","4"
"2290.899999856949","","","","","3","html-slider-response","558","","","","1",""
"15554","","","","","3","html-keyboard-response","559","","","","",""
"8911","picture","silya,chaki,asin,kubwa","kubwa","n","3","html-keyboard-response","560","n","kubwa","true","","1"
"4173","","","","","3","html-slider-response","561","","","","5",""
"2578","","","","","3","html-keyboard-response","562","","","","",""
"6473","page","wakala,wimbo,ishiri,skina","wimbo","v","4","html-keyboard-response","888","v","wimbo","true","",""
"3426.699999809265","","","","","4","html-slider-response","889","","","","5",""
"64292","sheet","juuya,watu,bililhon,kamantis","bililhon","j","4","html-keyboard-response","890","j","bililhon","true","",""
"2892.800000190735","","","","","4","html-slider-response","891","","","","2",""
"6038","ladder","pangalan,mashua,mwanga,kamba","pangalan","f","4","html-keyboard-response","892","f","pangalan","true","",""
"1943.4000000953674","","","","","4","html-slider-response","893","","","","5",""
"9589","door","tena,soko,surali,nyota","surali","j","4","html-keyboard-response","894","j","surali","true","",""
"2077.5999999046326","","","","","4","html-slider-response","895","","","","5",""
"6618","spider","bunyag,mkboa,kamwe,atop","kamwe","j","4","html-keyboard-response","896","n","atop","false","",""
"2065.399999856949","","","","","4","html-slider-response","897","","","","5",""
"11213","picture","silya,chaki,asin,kubwa","kubwa","n","4","html-keyboard-response","898","n","kubwa","true","",""
"3604.2999999523163","","","","","4","html-slider-response","899","","","","2",""
"3408","boat","agalon,hamsi,pombe,kitanda","agalon","f","4","html-keyboard-response","900","f","agalon","true","",""
"3592.7000000476837","","","","","4","html-slider-response","901","","","","5",""
"4537","donkey","bloke,lalake,elfu,rombus","elfu","j","4","html-keyboard-response","902","j","elfu","true","",""
"3218.7000000476837","","","","","4","html-slider-response","903","","","","5",""
"5032","book","kuhesa,picha,mali,mara","mali","j","4","html-keyboard-response","904","j","mali","true","",""
"2106.399999856949","","","","","4","html-slider-response","905","","","","5",""
"15280","cup","dagat,matumai,shimoni,jeraha","matumai","v","4","html-keyboard-response","906","v","matumai","true","",""
"1993.8999998569489","","","","","4","html-slider-response","907","","","","5",""
"3987","sun","bendi,luha,basi,uongo","basi","j","4","html-keyboard-response","908","j","basi","true","",""
"2010.3999998569489","","","","","4","html-slider-response","909","","","","5",""
"9111","pudding","abug,mpishi,iring,aibu","aibu","n","4","html-keyboard-response","910","n","aibu","true","",""
"2348","","","","","4","html-slider-response","911","","","","5",""
"6240","human","bado,kikapu,tinapay,punguza","tinapay","j","4","html-keyboard-response","912","j","tinapay","true","",""
"2465.0999999046326","","","","","4","html-slider-response","913","","","","5",""
"8745","squirrel","hofu,mahugaw,ukweli,kichwa","hofu","f","4","html-keyboard-response","914","f","hofu","true","",""
"3987.300000190735","","","","","4","html-slider-response","915","","","","5",""
"12585","park","tambok,pwani,ihalas,bunifu","bunifu","n","4","html-keyboard-response","916","j","ihalas","false","",""
"2541.899999856949","","","","","4","html-slider-response","917","","","","4",""
"5893","poster","madungog,nchi,fedha,kasuko","madungog","f","4","html-keyboard-response","918","f","madungog","true","",""
"6574.399999856949","","","","","4","html-slider-response","919","","","","5",""
"3573","wolf","kaburi,ndizi,lugha,mchuzi","lugha","j","4","html-keyboard-response","920","j","lugha","true","",""
"1671.2999999523163","","","","","4","html-slider-response","921","","","","5",""
"8708","cat","paghukom,neyemba,baki,akili","paghukom","f","4","html-keyboard-response","922","f","paghukom","true","",""
"2792.399999856949","","","","","4","html-slider-response","923","","","","4",""
"7115","fish","bala,baho,buli,imani","buli","j","4","html-keyboard-response","924","j","buli","true","",""
"2511","","","","","4","html-slider-response","925","","","","5",""
"4131","tooth","kabalaka,kijiko,uadui,pahiyum","kabalaka","f","4","html-keyboard-response","926","f","kabalaka","true","",""
"2599.899999856949","","","","","4","html-slider-response","927","","","","5",""
"4117","cave","ganti,maisha,kesho,nyundo","kesho","j","4","html-keyboard-response","928","j","kesho","true","",""
"1797.9000000953674","","","","","4","html-slider-response","929","","","","5",""
"16845","lamp","daub,bilaska,mbolea,afya","afya","n","4","html-keyboard-response","930","f","daub","false","",""
"2676.899999856949","","","","","4","html-slider-response","931","","","","1",""
"9771","banana","kasamok,hagdan,kazi,twai","kazi","j","4","html-keyboard-response","932","n","twai","false","",""
"1599.6999998092651","","","","","4","html-slider-response","933","","","","2",""
"7178","bonfire","mwezi,goti,mfuko,kusanya","goti","v","4","html-keyboard-response","934","v","goti","true","",""
"3175.800000190735","","","","","4","html-slider-response","935","","","","5",""
"12646","cop","mechezo,bustani,jikoni,bakus","mechezo","f","4","html-keyboard-response","936","f","mechezo","true","",""
"2333.899999856949","","","","","4","html-slider-response","937","","","","5",""
"6055","marker","mapafu,salita,maji,atay","maji","j","4","html-keyboard-response","938","j","maji","true","",""
"1786.2000000476837","","","","","4","html-slider-response","939","","","","5",""
"7283","window","nanga,kweli,kujenga,umaga","kweli","v","4","html-keyboard-response","940","v","kweli","true","",""
"3909.600000143051","","","","","4","html-slider-response","941","","","","2",""
"8866","body","nyundu,jibini,tindashan,kununa","tindashan","j","4","html-keyboard-response","942","j","tindashan","true","",""
"3408.4000000953674","","","","","4","html-slider-response","943","","","","5",""
"3952","apple","ukame,kisu,estante,edad","kisu","v","4","html-keyboard-response","944","v","kisu","true","",""
"1731.2000000476837","","","","","4","html-slider-response","945","","","","5",""
"6360","salmon","mzungu,seri,sensilyo,baharia","sensilyo","j","4","html-keyboard-response","946","j","sensilyo","true","",""
"2107.100000143051","","","","","4","html-slider-response","947","","","","5",""
"11406","bed","kalipay,haraka,mapintas,starehe","mapintas","j","4","html-keyboard-response","948","f","kalipay","false","",""
"1805.0999999046326","","","","","4","html-slider-response","949","","","","2",""
"17615","berry","abogado,nogozi,kofia,kinywa","kofia","j","4","html-keyboard-response","950","n","kinywa","false","",""
"2275.100000143051","","","","","4","html-slider-response","951","","","","1",""
"14455","mirror","rangi,sulagma,kanding,furaha","sulagma","v","4","html-keyboard-response","952","n","furaha","false","",""
"1864.9000000953674","","","","","4","html-slider-response","953","","","","2",""
"2994","flag","ndege,mkate,trekta,kawa","trekta","j","4","html-keyboard-response","954","j","trekta","true","",""
"1492.7999999523163","","","","","4","html-slider-response","955","","","","5",""
"3934","shoulder","mkuu,kelele,ndaniya,guruwe","mkuu","f","4","html-keyboard-response","956","f","mkuu","true","",""
"2036","","","","","4","html-slider-response","957","","","","5",""
"10760","tissue","lamigas,ugomvi,kisiwa,katika","ugomvi","v","4","html-keyboard-response","958","v","ugomvi","true","",""
"1592.7000000476837","","","","","4","html-slider-response","959","","","","5",""
"13471","notebook","msitu,kemia,kila,mdudu","kemia","v","4","html-keyboard-response","960","v","kemia","true","",""
"2968.5999999046326","","","","","4","html-slider-response","961","","","","2",""
"14987","snake","jansa,karon,mvringo,pagtukod","pagtukod","n","4","html-keyboard-response","962","n","pagtukod","true","",""
"1532.8000001907349","","","","","4","html-slider-response","963","","","","2",""
"7090","finger","simu,sufuria,moyo,lima","moyo","j","4","html-keyboard-response","964","j","moyo","true","",""
"1974.5999999046326","","","","","4","html-slider-response","965","","","","5",""
"22328","basket","kumbuka,kumba,utepe,hasira","kumba","v","4","html-keyboard-response","966","j","utepe","false","",""
"2179.5999999046326","","","","","4","html-slider-response","967","","","","2",""
"11629","curtain","lisud,mchanga,bulwawan,chubani","mchanga","v","4","html-keyboard-response","968","n","chubani","false","",""
"1534.2999999523163","","","","","4","html-slider-response","969","","","","2",""
"14582","perfume","bino,katuyoan,sungura,ndogo","katuyoan","v","4","html-keyboard-response","970","v","katuyoan","true","",""
"1971.8999998569489","","","","","4","html-slider-response","971","","","","5",""
"4276","key","miaka,goma,chombo,ahos","chombo","j","4","html-keyboard-response","972","j","chombo","true","",""
"1919.6000001430511","","","","","4","html-slider-response","973","","","","5",""
"9802","olive","bata,siagi,jiwe,welder","jiwe","j","4","html-keyboard-response","974","j","jiwe","true","",""
"5257.700000047684","","","","","4","html-slider-response","975","","","","5",""
"5946","rose","singizi,mwanake,paghalad,amani","paghalad","j","4","html-keyboard-response","976","j","paghalad","true","",""
"1584.7000000476837","","","","","4","html-slider-response","977","","","","5",""
"8324","bridge","sahani,daima,ngono,panya","sahani","f","4","html-keyboard-response","978","f","sahani","true","",""
"1701.7999999523163","","","","","4","html-slider-response","979","","","","5",""
"14833","hill","kushoto,kukimba,sweta,matumbo","matumbo","n","4","html-keyboard-response","980","j","sweta","false","",""
"1817.2999999523163","","","","","4","html-slider-response","981","","","","2",""
"7756","letter","filimbi,chuma,kifua,uhuru","kifua","j","4","html-keyboard-response","982","f","filimbi","false","",""
"2752.7000000476837","","","","","4","html-slider-response","983","","","","5",""
"9108","sock","mamba,ndoora,kimysa,mtirka","mamba","f","4","html-keyboard-response","984","f","mamba","true","",""
"2557","","","","","4","html-slider-response","985","","","","5",""
"15543","fork","baboy,paghago,mgonjwa,gorisi","mgonjwa","j","4","html-keyboard-response","986","v","paghago","false","",""
"2122.7999999523163","","","","","4","html-slider-response","987","","","","5",""
"3957","box","adui,kuacha,rafiki,kitande","adui","f","4","html-keyboard-response","988","f","adui","true","",""
"1773.3999998569489","","","","","4","html-slider-response","989","","","","5",""
"10727","gift","baba,nyange,pagtawag,baso","pagtawag","j","4","html-keyboard-response","990","j","pagtawag","true","",""
"2550.2000000476837","","","","","4","html-slider-response","991","","","","2",""
"6087","bucket","baga,kiatu,ijayo,init","kiatu","v","4","html-keyboard-response","992","v","kiatu","true","",""
"1481.5999999046326","","","","","4","html-slider-response","993","","","","5",""
"11513","shop","nopya,samaki,kerida,ndezu","samaki","v","4","html-keyboard-response","994","v","samaki","true","",""
"1793.4000000953674","","","","","4","html-slider-response","995","","","","2",""
"12812","puppet","napulo,lamok,godoro,mazishi","mazishi","n","4","html-keyboard-response","996","n","mazishi","true","",""
"2046.1000001430511","","","","","4","html-slider-response","997","","","","2",""
"14538","nose","gubat,kopa,kidole,sehemu","sehemu","n","4","html-keyboard-response","998","v","kopa","false","",""
"1376","","","","","4","html-slider-response","999","","","","2",""
"11273","music","mraba,mageho,baiski,tumbo","baiski","j","4","html-keyboard-response","1000","j","baiski","true","",""
"2273.0999999046326","","","","","4","html-slider-response","1001","","","","5",""
"22542","dog","lubi,bahari,washia,kalamu","bahari","v","4","html-keyboard-response","1002","v","bahari","true","",""
"3939.7999999523163","","","","","4","html-slider-response","1003","","","","5",""
"14160","eel","ishara,kunywa,kabuang,msumari","msumari","n","4","html-keyboard-response","1004","f","ishara","false","",""
"1889.5999999046326","","","","","4","html-slider-response","1005","","","","2",""
"9227","number","shule,kengele,choori,mundamo","mundamo","n","4","html-keyboard-response","1006","n","mundamo","true","",""
"1883.1000001430511","","","","","4","html-slider-response","1007","","","","2",""
"4385","tomato","chupi,chupa,takatak,mvua","mvua","n","4","html-keyboard-response","1008","v","chupa","false","",""
"1690.7000000476837","","","","","4","html-slider-response","1009","","","","2",""
"4263","coffin","barua,tubag,hulma,kioo","kioo","n","4","html-keyboard-response","1010","n","kioo","true","",""
"1981.7000000476837","","","","","4","html-slider-response","1011","","","","5",""
"3010","knee","mvuke,kubale,duka,bili","duka","j","4","html-keyboard-response","1012","j","duka","true","",""
"2178.2999999523163","","","","","4","html-slider-response","1013","","","","5",""
"7139","woman","bandari,bituin,pagtabon,kovuli","pagtabon","j","4","html-keyboard-response","1014","j","pagtabon","true","",""
"2065.2000000476837","","","","","4","html-slider-response","1015","","","","5",""
"3719","stone","ulimwengu,mkasi,wingi,asili","wingi","j","4","html-keyboard-response","1016","j","wingi","true","",""
"1722.2000000476837","","","","","4","html-slider-response","1017","","","","5",""
"9659","bread","kaili,dari,dizeli,bugas","dari","v","4","html-keyboard-response","1018","n","bugas","false","",""
"5669.899999856949","","","","","4","html-slider-response","1019","","","","2",""
"12883","triangle","kihozi,kasadpan,bentaha,liog","kasadpan","v","4","html-keyboard-response","1020","v","kasadpan","true","",""
"1582.5","","","","","4","html-slider-response","1021","","","","5",""
"7879","scissors","duga,mtawa,tanuri,suga","tanuri","j","4","html-keyboard-response","1022","j","tanuri","true","",""
"2484","","","","","4","html-slider-response","1023","","","","5",""
"13223","giraffe","daraja,mahitabo,jumatu,hangyo","mahitabo","v","4","html-keyboard-response","1024","n","hangyo","false","",""
"4721.900000095367","","","","","4","html-slider-response","1025","","","","1",""
"4263","flower","tamasha,lobo,usiku,bega","bega","n","4","html-keyboard-response","1026","n","bega","true","",""
"1609.5","","","","","4","html-slider-response","1027","","","","5",""
"3599","candle","gabi,geza,farasi,kupanda","geza","v","4","html-keyboard-response","1028","v","geza","true","",""
"1947.7000000476837","","","","","4","html-slider-response","1029","","","","5",""
"9065","mother","kahawa,mbuzi,babaye,jokofu","babaye","j","4","html-keyboard-response","1030","j","babaye","true","",""
"1634.2000000476837","","","","","4","html-slider-response","1031","","","","5",""
"3638","towel","pagpalit,tembo,funzi,pito","pagpalit","f","4","html-keyboard-response","1032","f","pagpalit","true","",""
"1420.7999999523163","","","","","4","html-slider-response","1033","","","","5",""
"9061","elephant","petye,kito,pagduol,suka","kito","v","4","html-keyboard-response","1034","v","kito","true","",""
"1946.8999998569489","","","","","4","html-slider-response","1035","","","","5",""
"16474","shelf","bungtod,pamahaw,kadaot,awit","pamahaw","v","4","html-keyboard-response","1036","v","pamahaw","true","",""
"1977.1000001430511","","","","","4","html-slider-response","1037","","","","5",""
"4648","mosquito","isda,taras,martilyo,gutom","martilyo","j","4","html-keyboard-response","1038","j","martilyo","true","",""
"1661","","","","","4","html-slider-response","1039","","","","5",""
"16598","column","pundok,dila,ufagio,pala","ufagio","j","4","html-keyboard-response","1040","f","pundok","false","",""
"2357.4000000953674","","","","","4","html-slider-response","1041","","","","2",""
"5098","pants","pintal,chuki,hari,haki","haki","n","4","html-keyboard-response","1042","n","haki","true","",""
"2024.8999998569489","","","","","4","html-slider-response","1043","","","","5",""
"11524","list","alizeti,kuzama,kaso,wingu","wingu","n","4","html-keyboard-response","1044","j","kaso","false","",""
"1896.2999999523163","","","","","4","html-slider-response","1045","","","","2",""
"9755","bank","kudhibi,silingan,tualya,ofisi","silingan","v","4","html-keyboard-response","1046","f","kudhibi","false","",""
"1687.0999999046326","","","","","4","html-slider-response","1047","","","","2",""
"6667","clock","kartasi,abang,osha,mbwa","mbwa","n","4","html-keyboard-response","1048","n","mbwa","true","",""
"2160.4000000953674","","","","","4","html-slider-response","1049","","","","5",""
"5154","ceiling","kugita,maua,kawaida,rayna","maua","v","4","html-keyboard-response","1050","v","maua","true","",""
"1818.7000000476837","","","","","4","html-slider-response","1051","","","","5",""
"8497","train","sayari,itik,dakika,mungu","sayari","f","4","html-keyboard-response","1052","f","sayari","true","",""
"2027","","","","","4","html-slider-response","1053","","","","4",""
"5391","magazine","gundi,kiti,mchawi,bahandi","kiti","v","4","html-keyboard-response","1054","v","kiti","true","",""
"2890.2999999523163","","","","","4","html-slider-response","1055","","","","5",""
"12566","office","hazini,yatima,leso,kuna","leso","j","4","html-keyboard-response","1056","f","hazini","false","",""
"1700.9000000953674","","","","","4","html-slider-response","1057","","","","4",""
"5042","wheel","bafuni,punda,tawo,baadaye","bafuni","f","4","html-keyboard-response","1058","f","bafuni","true","",""
"1704.7000000476837","","","","","4","html-slider-response","1059","","","","5",""
"20508","spoon","pagsulod,betri,nzuri,ngazi","pagsulod","f","4","html-keyboard-response","1060","j","nzuri","false","",""
"2310.2000000476837","","","","","4","html-slider-response","1061","","","","2",""
"4213","hammer","mekno,kitovu,layag,napakyas","napakyas","n","4","html-keyboard-response","1062","n","napakyas","true","",""
"1694.0999999046326","","","","","4","html-slider-response","1063","","","","5",""
"19195","cigar","ndugu,kuta,mlango,adhabu","adhabu","n","4","html-keyboard-response","1064","n","adhabu","true","",""
"2806.5","","","","","4","html-slider-response","1065","","","","2",""
"7120","shoe","uyoga,nyeusi,hatua,kama","uyoga","f","4","html-keyboard-response","1066","n","kama","false","",""
"2778.2000000476837","","","","","4","html-slider-response","1067","","","","2",""
"31302","list","alizeti,wingu,kuzama,kaso","wingu","v","5","html-keyboard-response","1069","n","kaso","false","",""
"3383.899999856949","","","","","5","html-slider-response","1070","","","","2",""
"5909","number","shule,kengele,choori,mundamo","mundamo","n","5","html-keyboard-response","1071","v","kengele","false","",""
"1740.5999999046326","","","","","5","html-slider-response","1072","","","","2",""
"3218","apple","kisu,ukame,estante,edad","kisu","f","5","html-keyboard-response","1073","f","kisu","true","",""
"5273","","","","","5","html-slider-response","1074","","","","5",""
"2486","knee","duka,mvuke,kubale,bili","duka","f","5","html-keyboard-response","1075","f","duka","true","",""
"1499","","","","","5","html-slider-response","1076","","","","5",""
"2896","tooth","kijiko,uadui,kabalaka,pahiyum","kabalaka","j","5","html-keyboard-response","1077","j","kabalaka","true","",""
"1529.2000000476837","","","","","5","html-slider-response","1078","","","","5",""
"6726","berry","abogado,nogozi,kinywa,kofia","kofia","n","5","html-keyboard-response","1079","f","abogado","false","",""
"1812.5999999046326","","","","","5","html-slider-response","1080","","","","1",""
"4385","bridge","daima,ngono,panya,sahani","sahani","n","5","html-keyboard-response","1081","n","sahani","true","",""
"1458.2999999523163","","","","","5","html-slider-response","1082","","","","5",""
"3637","perfume","bino,katuyoan,sungura,ndogo","katuyoan","v","5","html-keyboard-response","1083","f","bino","false","",""
"2420.2000000476837","","","","","5","html-slider-response","1084","","","","4",""
"6984","ladder","mashua,pangalan,mwanga,kamba","pangalan","v","5","html-keyboard-response","1085","v","pangalan","true","",""
"1930.4000000953674","","","","","5","html-slider-response","1086","","","","5",""
"14838","pants","pintal,haki,chuki,hari","haki","v","5","html-keyboard-response","1087","v","haki","true","",""
"2229.7000000476837","","","","","5","html-slider-response","1088","","","","5",""
"7966","salmon","mzungu,seri,sensilyo,baharia","sensilyo","j","5","html-keyboard-response","1089","j","sensilyo","true","",""
"2628","","","","","5","html-slider-response","1090","","","","5",""
"4617","coffin","barua,kioo,tubag,hulma","kioo","v","5","html-keyboard-response","1091","v","kioo","true","",""
"1680.6000001430511","","","","","5","html-slider-response","1092","","","","5",""
"43661","park","tambok,pwani,bunifu,ihalas","bunifu","j","5","html-keyboard-response","1093","n","ihalas","false","",""
"2397.399999856949","","","","","5","html-slider-response","1094","","","","5",""
"7558","giraffe","daraja,jumatu,mahitabo,hangyo","mahitabo","j","5","html-keyboard-response","1095","n","hangyo","false","",""
"1661.6000001430511","","","","","5","html-slider-response","1096","","","","2",""
"8393","mirror","rangi,kanding,furaha,sulagma","sulagma","n","5","html-keyboard-response","1097","j","furaha","false","",""
"1645.7999999523163","","","","","5","html-slider-response","1098","","","","2",""
"3845","ceiling","kugita,kawaida,maua,rayna","maua","j","5","html-keyboard-response","1099","j","maua","true","",""
"1781.1000001430511","","","","","5","html-slider-response","1100","","","","5",""
"2901","marker","mapafu,salita,atay,maji","maji","n","5","html-keyboard-response","1101","n","maji","true","",""
"1628.7999999523163","","","","","5","html-slider-response","1102","","","","5",""
"5229","sock","ndoora,kimysa,mamba,mtirka","mamba","j","5","html-keyboard-response","1103","j","mamba","true","",""
"3356.199999809265","","","","","5","html-slider-response","1104","","","","5",""
"3946","cop","mechezo,bustani,jikoni,bakus","mechezo","f","5","html-keyboard-response","1105","f","mechezo","true","",""
"1470.7000000476837","","","","","5","html-slider-response","1106","","","","5",""
"11155","gift","baba,pagtawag,nyange,baso","pagtawag","v","5","html-keyboard-response","1107","v","pagtawag","true","",""
"1862.2000000476837","","","","","5","html-slider-response","1108","","","","5",""
"13263","notebook","msitu,kila,kemia,mdudu","kemia","j","5","html-keyboard-response","1109","j","kemia","true","",""
"1972.2000000476837","","","","","5","html-slider-response","1110","","","","4",""
"9743","bank","kudhibi,silingan,tualya,ofisi","silingan","v","5","html-keyboard-response","1111","f","kudhibi","false","",""
"2373.5","","","","","5","html-slider-response","1112","","","","1",""
"3683","letter","filimbi,kifua,chuma,uhuru","kifua","v","5","html-keyboard-response","1113","f","filimbi","false","",""
"1912.4000000953674","","","","","5","html-slider-response","1114","","","","5",""
"3552","candle","gabi,farasi,kupanda,geza","geza","n","5","html-keyboard-response","1115","n","geza","true","",""
"1820.0999999046326","","","","","5","html-slider-response","1116","","","","5",""
"6347","bread","kaili,dizeli,dari,bugas","dari","j","5","html-keyboard-response","1117","j","dari","true","",""
"2488.2000000476837","","","","","5","html-slider-response","1118","","","","5",""
"7518","snake","jansa,karon,pagtukod,mvringo","pagtukod","j","5","html-keyboard-response","1119","j","pagtukod","true","",""
"2492.7000000476837","","","","","5","html-slider-response","1120","","","","1",""
"9134","rose","singizi,mwanake,paghalad,amani","paghalad","j","5","html-keyboard-response","1121","j","paghalad","true","",""
"2126","","","","","5","html-slider-response","1122","","","","5",""
"4331","hill","matumbo,kushoto,kukimba,sweta","matumbo","f","5","html-keyboard-response","1123","n","sweta","false","",""
"1759.5999999046326","","","","","5","html-slider-response","1124","","","","2",""
"7939","train","itik,sayari,dakika,mungu","sayari","v","5","html-keyboard-response","1125","v","sayari","true","",""
"2667.5","","","","","5","html-slider-response","1126","","","","5",""
"4020","shop","nopya,samaki,kerida,ndezu","samaki","v","5","html-keyboard-response","1127","n","ndezu","false","",""
"2102.5999999046326","","","","","5","html-slider-response","1128","","","","1",""
"15738","nose","gubat,kopa,kidole,sehemu","sehemu","n","5","html-keyboard-response","1129","n","sehemu","true","",""
"1671.5","","","","","5","html-slider-response","1130","","","","1",""
"3121","boat","hamsi,pombe,agalon,kitanda","agalon","j","5","html-keyboard-response","1131","j","agalon","true","",""
"2195.7000000476837","","","","","5","html-slider-response","1132","","","","5",""
"3617","body","nyundu,jibini,kununa,tindashan","tindashan","n","5","html-keyboard-response","1133","n","tindashan","true","",""
"1777.7000000476837","","","","","5","html-slider-response","1134","","","","5",""
"6338","bed","kalipay,haraka,starehe,mapintas","mapintas","n","5","html-keyboard-response","1135","f","kalipay","false","",""
"1494.9000000953674","","","","","5","html-slider-response","1136","","","","5",""
"3077","squirrel","mahugaw,ukweli,kichwa,hofu","hofu","n","5","html-keyboard-response","1137","n","hofu","true","",""
"1638.2000000476837","","","","","5","html-slider-response","1138","","","","5",""
"6918","window","nanga,kujenga,kweli,umaga","kweli","j","5","html-keyboard-response","1139","j","kweli","true","",""
"2295.899999856949","","","","","5","html-slider-response","1140","","","","5",""
"6703","bonfire","mwezi,mfuko,kusanya,goti","goti","n","5","html-keyboard-response","1141","n","goti","true","",""
"2899.2999999523163","","","","","5","html-slider-response","1142","","","","5",""
"4017","fish","buli,bala,baho,imani","buli","f","5","html-keyboard-response","1143","f","buli","true","",""
"1865.5","","","","","5","html-slider-response","1144","","","","5",""
"4917","cat","neyemba,baki,paghukom,akili","paghukom","j","5","html-keyboard-response","1145","j","paghukom","true","",""
"2652.2999999523163","","","","","5","html-slider-response","1146","","","","5",""
"6392","spider","bunyag,mkboa,kamwe,atop","kamwe","j","5","html-keyboard-response","1147","n","atop","false","",""
"1523.2000000476837","","","","","5","html-slider-response","1148","","","","2",""
"11028","eel","ishara,kunywa,kabuang,msumari","msumari","n","5","html-keyboard-response","1149","f","ishara","false","",""
"2357.399999856949","","","","","5","html-slider-response","1150","","","","1",""
"4430","woman","pagtabon,bandari,bituin,kovuli","pagtabon","f","5","html-keyboard-response","1151","f","pagtabon","true","",""
"2254","","","","","5","html-slider-response","1152","","","","5",""
"3786","magazine","kiti,gundi,mchawi,bahandi","kiti","f","5","html-keyboard-response","1153","f","kiti","true","",""
"1695.5","","","","","5","html-slider-response","1154","","","","5",""
"4450","pudding","aibu,abug,mpishi,iring","aibu","f","5","html-keyboard-response","1155","v","abug","false","",""
"1595.2000000476837","","","","","5","html-slider-response","1156","","","","5",""
"6683","lamp","afya,daub,bilaska,mbolea","afya","f","5","html-keyboard-response","1157","j","bilaska","false","",""
"1996.6000001430511","","","","","5","html-slider-response","1158","","","","2",""
"12952","cave","kesho,ganti,maisha,nyundo","kesho","f","5","html-keyboard-response","1159","f","kesho","true","",""
"2000.5999999046326","","","","","5","html-slider-response","1160","","","","5",""
"3313","shoulder","mkuu,kelele,ndaniya,guruwe","mkuu","f","5","html-keyboard-response","1161","f","mkuu","true","",""
"1743.7999999523163","","","","","5","html-slider-response","1162","","","","5",""
"3582","stone","ulimwengu,wingi,mkasi,asili","wingi","v","5","html-keyboard-response","1163","v","wingi","true","",""
"1707.5999999046326","","","","","5","html-slider-response","1164","","","","5",""
"4625","column","pundok,dila,pala,ufagio","ufagio","n","5","html-keyboard-response","1165","n","ufagio","true","",""
"1912.8999998569489","","","","","5","html-slider-response","1166","","","","2",""
"12989","page","wimbo,wakala,ishiri,skina","wimbo","f","5","html-keyboard-response","1167","f","wimbo","true","",""
"1939.7999999523163","","","","","5","html-slider-response","1168","","","","5",""
"4434","shoe","nyeusi,hatua,kama,uyoga","uyoga","n","5","html-keyboard-response","1169","n","uyoga","true","",""
"1551.7999999523163","","","","","5","html-slider-response","1170","","","","1",""
"5208","clock","kartasi,abang,mbwa,osha","mbwa","j","5","html-keyboard-response","1171","j","mbwa","true","",""
"1995.1000001430511","","","","","5","html-slider-response","1172","","","","5",""
"4330","towel","tembo,pagpalit,funzi,pito","pagpalit","v","5","html-keyboard-response","1173","v","pagpalit","true","",""
"1624.5999999046326","","","","","5","html-slider-response","1174","","","","5",""
"6937","tomato","chupi,chupa,takatak,mvua","mvua","n","5","html-keyboard-response","1175","v","chupa","false","",""
"2080","","","","","5","html-slider-response","1176","","","","1",""
"10990","bucket","baga,kiatu,ijayo,init","kiatu","v","5","html-keyboard-response","1177","v","kiatu","true","",""
"1781","","","","","5","html-slider-response","1178","","","","5",""
"4562","finger","simu,sufuria,lima,moyo","moyo","n","5","html-keyboard-response","1179","n","moyo","true","",""
"1534.4000000953674","","","","","5","html-slider-response","1180","","","","5",""
"5916","mother","babaye,kahawa,mbuzi,jokofu","babaye","f","5","html-keyboard-response","1181","f","babaye","true","",""
"1544","","","","","5","html-slider-response","1182","","","","5",""
"5943","human","bado,kikapu,tinapay,punguza","tinapay","j","5","html-keyboard-response","1183","j","tinapay","true","",""
"3085","","","","","5","html-slider-response","1184","","","","5",""
"9996","sun","bendi,luha,basi,uongo","basi","j","5","html-keyboard-response","1185","f","bendi","false","",""
"2847.7000000476837","","","","","5","html-slider-response","1186","","","","5",""
"12714","fork","mgonjwa,baboy,paghago,gorisi","mgonjwa","f","5","html-keyboard-response","1187","j","paghago","false","",""
"1635.2000000476837","","","","","5","html-slider-response","1188","","","","2",""
"4282","donkey","bloke,lalake,rombus,elfu","elfu","n","5","html-keyboard-response","1189","n","elfu","true","",""
"1679.2000000476837","","","","","5","html-slider-response","1190","","","","5",""
"4119","wolf","kaburi,ndizi,mchuzi,lugha","lugha","n","5","html-keyboard-response","1191","n","lugha","true","",""
"1540","","","","","5","html-slider-response","1192","","","","5",""
"4391","cigar","ndugu,adhabu,kuta,mlango","adhabu","v","5","html-keyboard-response","1193","n","mlango","false","",""
"1437.6000001430511","","","","","5","html-slider-response","1194","","","","1",""
"4790","olive","bata,siagi,welder,jiwe","jiwe","n","5","html-keyboard-response","1195","n","jiwe","true","",""
"2237.300000190735","","","","","5","html-slider-response","1196","","","","5",""
"4139","key","miaka,chombo,goma,ahos","chombo","v","5","html-keyboard-response","1197","v","chombo","true","",""
"1543.5","","","","","5","html-slider-response","1198","","","","5",""
"6800","door","tena,soko,nyota,surali","surali","n","5","html-keyboard-response","1199","n","surali","true","",""
"2491.2000000476837","","","","","5","html-slider-response","1200","","","","5",""
"128044","wheel","punda,tawo,bafuni,baadaye","bafuni","j","5","html-keyboard-response","1201","j","bafuni","true","",""
"1861.7000000476837","","","","","5","html-slider-response","1202","","","","5",""
"6835","basket","kumbuka,utepe,hasira,kumba","kumba","n","5","html-keyboard-response","1203","v","utepe","false","",""
"70343","","","","","5","html-slider-response","1204","","","","5",""
"4820","elephant","kito,petye,pagduol,suka","kito","f","5","html-keyboard-response","1205","f","kito","true","",""
"6372.799999952316","","","","","5","html-slider-response","1206","","","","5",""
"8188","office","hazini,yatima,leso,kuna","leso","j","5","html-keyboard-response","1207","f","hazini","false","",""
"1700.6999998092651","","","","","5","html-slider-response","1208","","","","5",""
"11131","music","baiski,mraba,mageho,tumbo","baiski","f","5","html-keyboard-response","1209","f","baiski","true","",""
"1561.3000001907349","","","","","5","html-slider-response","1210","","","","5",""
"4310","tissue","lamigas,kisiwa,ugomvi,katika","ugomvi","j","5","html-keyboard-response","1211","j","ugomvi","true","",""
"1890","","","","","5","html-slider-response","1212","","","","5",""
"4995","curtain","lisud,bulwawan,mchanga,chubani","mchanga","j","5","html-keyboard-response","1213","v","bulwawan","false","",""
"2512.399999856949","","","","","5","html-slider-response","1214","","","","1",""
"4793","flag","ndege,trekta,mkate,kawa","trekta","v","5","html-keyboard-response","1215","v","trekta","true","",""
"1832.8999998569489","","","","","5","html-slider-response","1216","","","","5",""
"5422","dog","lubi,washia,kalamu,bahari","bahari","n","5","html-keyboard-response","1217","n","bahari","true","",""
"2174.0999999046326","","","","","5","html-slider-response","1218","","","","5",""
"9885","cup","dagat,matumai,shimoni,jeraha","matumai","v","5","html-keyboard-response","1219","v","matumai","true","",""
"1739.3000001907349","","","","","5","html-slider-response","1220","","","","5",""
"5443","sheet","juuya,watu,kamantis,bililhon","bililhon","n","5","html-keyboard-response","1221","n","bililhon","true","",""
"1751.0999999046326","","","","","5","html-slider-response","1222","","","","4",""
"6154","spoon","betri,nzuri,pagsulod,ngazi","pagsulod","j","5","html-keyboard-response","1223","j","pagsulod","true","",""
"2199.2999999523163","","","","","5","html-slider-response","1224","","","","2",""
"3660","flower","bega,tamasha,lobo,usiku","bega","f","5","html-keyboard-response","1225","f","bega","true","",""
"2295.9000000953674","","","","","5","html-slider-response","1226","","","","5",""
"5619","picture","silya,chaki,asin,kubwa","kubwa","n","5","html-keyboard-response","1227","v","chaki","false","",""
"1469.2000000476837","","","","","5","html-slider-response","1228","","","","2",""
"8465","puppet","napulo,lamok,mazishi,godoro","mazishi","j","5","html-keyboard-response","1229","j","mazishi","true","",""
"3232.4000000953674","","","","","5","html-slider-response","1230","","","","2",""
"9252","banana","kasamok,kazi,hagdan,twai","kazi","v","5","html-keyboard-response","1231","n","twai","false","",""
"2328.2000000476837","","","","","5","html-slider-response","1232","","","","2",""
"11038","book","kuhesa,mali,picha,mara","mali","v","5","html-keyboard-response","1233","v","mali","true","",""
"1665.5","","","","","5","html-slider-response","1234","","","","2",""
"25028","triangle","kihozi,bentaha,liog,kasadpan","kasadpan","n","5","html-keyboard-response","1235","n","kasadpan","true","",""
"1375.3999998569489","","","","","5","html-slider-response","1236","","","","5",""
"4120","poster","nchi,fedha,kasuko,madungog","madungog","n","5","html-keyboard-response","1237","n","madungog","true","",""
"1442.6000001430511","","","","","5","html-slider-response","1238","","","","5",""
"3743","box","kuacha,rafiki,kitande,adui","adui","n","5","html-keyboard-response","1239","n","adui","true","",""
"1211.7999999523163","","","","","5","html-slider-response","1240","","","","5",""
"3926","mosquito","isda,taras,martilyo,gutom","martilyo","j","5","html-keyboard-response","1241","j","martilyo","true","",""
"2048.5999999046326","","","","","5","html-slider-response","1242","","","","5",""
"5647","shelf","bungtod,kadaot,pamahaw,awit","pamahaw","j","5","html-keyboard-response","1243","j","pamahaw","true","",""
"2443.5","","","","","5","html-slider-response","1244","","","","5",""
"3988","scissors","duga,mtawa,tanuri,suga","tanuri","j","5","html-keyboard-response","1245","j","tanuri","true","",""
"1654.7000000476837","","","","","5","html-slider-response","1246","","","","5",""
"3503","hammer","napakyas,mekno,kitovu,layag","napakyas","f","5","html-keyboard-response","1247","f","napakyas","true","",""
"1863.9000000953674","","","","","5","html-slider-response","1248","","","","5",""
