"rt","en_word","options","swa_word","correct_answer","phase","trial_type","trial_index","input_answer","input_word","accuracy","certainty","amt_choices"
"3070","bonfire","mwezi,goti,mfuko,kusanya","goti","v","2","html-keyboard-response","106","v","goti","true","",""
"2613.2999999523163","","","","","2","html-slider-response","107","","","","2",""
"4596","flower","bega,tamasha,lobo,usiku","bega","f","2","html-keyboard-response","108","v","tamasha","false","",""
"4469.5","","","","","2","html-slider-response","109","","","","2",""
"17040","column","pundok,ufagio,dila,pala","ufagio","v","2","html-keyboard-response","110","v","ufagio","true","",""
"2288.7000000476837","","","","","2","html-slider-response","111","","","","4",""
"3593","music","baiski,mraba,mageho,tumbo","baiski","f","2","html-keyboard-response","112","f","baiski","true","",""
"2571.199999809265","","","","","2","html-slider-response","113","","","","4",""
"3519","spider","bunyag,mkboa,kamwe,atop","kamwe","j","2","html-keyboard-response","114","j","kamwe","true","",""
"4717.699999809265","","","","","2","html-slider-response","115","","","","4",""
"5587","fork","baboy,paghago,gorisi,mgonjwa","mgonjwa","n","2","html-keyboard-response","116","n","mgonjwa","true","",""
"8940.100000143051","","","","","2","html-slider-response","117","","","","3",""
"4276","mosquito","martilyo,isda,taras,gutom","martilyo","f","2","html-keyboard-response","118","f","martilyo","true","",""
"2756.9000000953674","","","","","2","html-slider-response","119","","","","4",""
"6988","banana","kasamok,hagdan,kazi,twai","kazi","j","2","html-keyboard-response","120","j","kazi","true","",""
"3180.2000000476837","","","","","2","html-slider-response","121","","","","5",""
"3703","cup","dagat,shimoni,matumai,jeraha","matumai","j","2","html-keyboard-response","122","j","matumai","true","",""
"3037.4000000953674","","","","","2","html-slider-response","123","","","","2",""
"2786","shop","nopya,samaki,kerida,ndezu","samaki","v","2","html-keyboard-response","124","v","samaki","true","",""
"2659.5","","","","","2","html-slider-response","125","","","","4",""
"6721","elephant","petye,pagduol,suka,kito","kito","n","2","html-keyboard-response","126","n","kito","true","",""
"4314.799999952316","","","","","2","html-slider-response","127","","","","4",""
"4066","bucket","kiatu,baga,ijayo,init","kiatu","f","2","html-keyboard-response","128","f","kiatu","true","",""
"2527.9000000953674","","","","","2","html-slider-response","129","","","","4",""
"17852","book","mali,kuhesa,picha,mara","mali","f","2","html-keyboard-response","130","f","mali","true","",""
"3464.5","","","","","2","html-slider-response","131","","","","2",""
"8472","mirror","sulagma,rangi,kanding,furaha","sulagma","f","2","html-keyboard-response","132","f","sulagma","true","",""
"4059","","","","","2","html-slider-response","133","","","","2",""
"5108","office","leso,hazini,yatima,kuna","leso","f","2","html-keyboard-response","134","f","leso","true","",""
"4121.5","","","","","2","html-slider-response","135","","","","4",""
"2940","body","nyundu,jibini,tindashan,kununa","tindashan","j","2","html-keyboard-response","136","j","tindashan","true","",""
"6747","","","","","2","html-slider-response","137","","","","4",""
"2931","perfume","bino,sungura,katuyoan,ndogo","katuyoan","j","2","html-keyboard-response","138","j","katuyoan","true","",""
"2605","","","","","2","html-slider-response","139","","","","4",""
"3898","olive","bata,siagi,welder,jiwe","jiwe","n","2","html-keyboard-response","140","j","welder","false","",""
"2838.2000000476837","","","","","2","html-slider-response","141","","","","1",""
"2751","magazine","gundi,mchawi,bahandi,kiti","kiti","n","2","html-keyboard-response","142","n","kiti","true","",""
"4361.899999856949","","","","","2","html-slider-response","143","","","","4",""
"6660","bread","kaili,dizeli,bugas,dari","dari","n","2","html-keyboard-response","144","n","dari","true","",""
"6002.900000095367","","","","","2","html-slider-response","145","","","","3",""
"3063","cave","ganti,maisha,nyundo,kesho","kesho","n","2","html-keyboard-response","146","v","maisha","false","",""
"4306.200000047684","","","","","2","html-slider-response","147","","","","2",""
"4213","ladder","pangalan,mashua,mwanga,kamba","pangalan","f","2","html-keyboard-response","148","f","pangalan","true","",""
"2476.5","","","","","2","html-slider-response","149","","","","4",""
"6382","human","bado,tinapay,kikapu,punguza","tinapay","v","2","html-keyboard-response","150","n","punguza","false","",""
"3825.2000000476837","","","","","2","html-slider-response","151","","","","1",""
"7842","clock","mbwa,kartasi,abang,osha","mbwa","f","2","html-keyboard-response","152","f","mbwa","true","",""
"3083.2999999523163","","","","","2","html-slider-response","153","","","","5",""
"3820","shelf","pamahaw,bungtod,kadaot,awit","pamahaw","f","2","html-keyboard-response","154","f","pamahaw","true","",""
"3002.199999809265","","","","","2","html-slider-response","155","","","","4",""
"3185","salmon","mzungu,seri,sensilyo,baharia","sensilyo","j","2","html-keyboard-response","156","j","sensilyo","true","",""
"3436.2999999523163","","","","","2","html-slider-response","157","","","","4",""
"2395","coffin","barua,tubag,kioo,hulma","kioo","j","2","html-keyboard-response","158","v","tubag","false","",""
"2845.899999856949","","","","","2","html-slider-response","159","","","","1",""
"2615","notebook","msitu,kemia,kila,mdudu","kemia","v","2","html-keyboard-response","160","j","kila","false","",""
"2842.7000000476837","","","","","2","html-slider-response","161","","","","2",""
"2966","shoulder","kelele,ndaniya,guruwe,mkuu","mkuu","n","2","html-keyboard-response","162","n","mkuu","true","",""
"2637.5","","","","","2","html-slider-response","163","","","","4",""
"2533","park","tambok,pwani,bunifu,ihalas","bunifu","j","2","html-keyboard-response","164","j","bunifu","true","",""
"3029.2000000476837","","","","","2","html-slider-response","165","","","","2",""
"2980","number","shule,mundamo,kengele,choori","mundamo","v","2","html-keyboard-response","166","v","mundamo","true","",""
"2533.4000000953674","","","","","2","html-slider-response","167","","","","5",""
"4796","apple","ukame,kisu,estante,edad","kisu","v","2","html-keyboard-response","168","n","edad","false","",""
"2744.4000000953674","","","","","2","html-slider-response","169","","","","4",""
"2844","letter","kifua,filimbi,chuma,uhuru","kifua","f","2","html-keyboard-response","170","f","kifua","true","",""
"2188.0999999046326","","","","","2","html-slider-response","171","","","","4",""
"2209","eel","msumari,ishara,kunywa,kabuang","msumari","f","2","html-keyboard-response","172","f","msumari","true","",""
"2134.7999999523163","","","","","2","html-slider-response","173","","","","4",""
"2298","cop","bustani,mechezo,jikoni,bakus","mechezo","v","2","html-keyboard-response","174","v","mechezo","true","",""
"3463.899999856949","","","","","2","html-slider-response","175","","","","3",""
"6339","wolf","lugha,kaburi,ndizi,mchuzi","lugha","f","2","html-keyboard-response","176","j","ndizi","false","",""
"2588.7999999523163","","","","","2","html-slider-response","177","","","","2",""
"7998","squirrel","hofu,mahugaw,ukweli,kichwa","hofu","f","2","html-keyboard-response","178","f","hofu","true","",""
"2611.7999999523163","","","","","2","html-slider-response","179","","","","4",""
"4679","nose","gubat,kopa,sehemu,kidole","sehemu","j","2","html-keyboard-response","180","j","sehemu","true","",""
"2326.5","","","","","2","html-slider-response","181","","","","4",""
"3585","sock","ndoora,kimysa,mtirka,mamba","mamba","n","2","html-keyboard-response","182","n","mamba","true","",""
"2198.4000000953674","","","","","2","html-slider-response","183","","","","4",""
"2663","bank","kudhibi,silingan,tualya,ofisi","silingan","v","2","html-keyboard-response","184","v","silingan","true","",""
"2157.0999999046326","","","","","2","html-slider-response","185","","","","4",""
"2721","donkey","bloke,lalake,rombus,elfu","elfu","n","2","html-keyboard-response","186","n","elfu","true","",""
"3589.600000143051","","","","","2","html-slider-response","187","","","","5",""
"5237","poster","nchi,madungog,fedha,kasuko","madungog","v","2","html-keyboard-response","188","f","nchi","false","",""
"2639.0999999046326","","","","","2","html-slider-response","189","","","","1",""
"3845","puppet","napulo,lamok,godoro,mazishi","mazishi","n","2","html-keyboard-response","190","j","godoro","false","",""
"2439.9000000953674","","","","","2","html-slider-response","191","","","","1",""
"2098","hill","matumbo,kushoto,kukimba,sweta","matumbo","f","2","html-keyboard-response","192","f","matumbo","true","",""
"2580","","","","","2","html-slider-response","193","","","","4",""
"3647","tooth","kijiko,uadui,kabalaka,pahiyum","kabalaka","j","2","html-keyboard-response","194","j","kabalaka","true","",""
"3350.2999999523163","","","","","2","html-slider-response","195","","","","4",""
"2817","woman","pagtabon,bandari,bituin,kovuli","pagtabon","f","2","html-keyboard-response","196","f","pagtabon","true","",""
"2570.7999999523163","","","","","2","html-slider-response","197","","","","2",""
"3522","wheel","bafuni,punda,tawo,baadaye","bafuni","f","2","html-keyboard-response","198","f","bafuni","true","",""
"2370.300000190735","","","","","2","html-slider-response","199","","","","4",""
"2928","mother","kahawa,babaye,mbuzi,jokofu","babaye","v","2","html-keyboard-response","200","v","babaye","true","",""
"3341.7000000476837","","","","","2","html-slider-response","201","","","","5",""
"3065","bed","kalipay,mapintas,haraka,starehe","mapintas","v","2","html-keyboard-response","202","n","starehe","false","",""
"2540.2999999523163","","","","","2","html-slider-response","203","","","","2",""
"3911","key","chombo,miaka,goma,ahos","chombo","f","2","html-keyboard-response","204","f","chombo","true","",""
"2764.2999999523163","","","","","2","html-slider-response","205","","","","1",""
"2223","page","wakala,ishiri,wimbo,skina","wimbo","j","2","html-keyboard-response","206","j","wimbo","true","",""
"2573.9000000953674","","","","","2","html-slider-response","207","","","","5",""
"3485","pants","haki,pintal,chuki,hari","haki","f","2","html-keyboard-response","208","f","haki","true","",""
"4657.600000143051","","","","","2","html-slider-response","209","","","","3",""
"2313","sun","basi,bendi,luha,uongo","basi","f","2","html-keyboard-response","210","f","basi","true","",""
"2353.699999809265","","","","","2","html-slider-response","211","","","","4",""
"2669","finger","moyo,simu,sufuria,lima","moyo","f","2","html-keyboard-response","212","n","lima","false","",""
"3268.5999999046326","","","","","2","html-slider-response","213","","","","2",""
"2611","shoe","nyeusi,hatua,kama,uyoga","uyoga","n","2","html-keyboard-response","214","n","uyoga","true","",""
"2660.5","","","","","2","html-slider-response","215","","","","2",""
"2322","giraffe","daraja,jumatu,hangyo,mahitabo","mahitabo","n","2","html-keyboard-response","216","f","daraja","false","",""
"2924.0999999046326","","","","","2","html-slider-response","217","","","","1",""
"3220","dog","lubi,washia,kalamu,bahari","bahari","n","2","html-keyboard-response","218","n","bahari","true","",""
"5372","","","","","2","html-slider-response","219","","","","2",""
"2665","box","kuacha,adui,rafiki,kitande","adui","v","2","html-keyboard-response","220","v","adui","true","",""
"3793.5","","","","","2","html-slider-response","221","","","","3",""
"2717","scissors","duga,tanuri,mtawa,suga","tanuri","v","2","html-keyboard-response","222","j","mtawa","false","",""
"2430.7000000476837","","","","","2","html-slider-response","223","","","","2",""
"3190","cat","paghukom,neyemba,baki,akili","paghukom","f","2","html-keyboard-response","224","f","paghukom","true","",""
"2175.100000143051","","","","","2","html-slider-response","225","","","","5",""
"2273","basket","kumbuka,kumba,utepe,hasira","kumba","v","2","html-keyboard-response","226","v","kumba","true","",""
"2478.7000000476837","","","","","2","html-slider-response","227","","","","4",""
"2408","snake","pagtukod,jansa,karon,mvringo","pagtukod","f","2","html-keyboard-response","228","f","pagtukod","true","",""
"3161.100000143051","","","","","2","html-slider-response","229","","","","4",""
"2299","gift","pagtawag,baba,nyange,baso","pagtawag","f","2","html-keyboard-response","230","f","pagtawag","true","",""
"2573.7999999523163","","","","","2","html-slider-response","231","","","","2",""
"2976","train","sayari,itik,dakika,mungu","sayari","f","2","html-keyboard-response","232","v","itik","false","",""
"2318.0999999046326","","","","","2","html-slider-response","233","","","","2",""
"2671","pudding","abug,mpishi,iring,aibu","aibu","n","2","html-keyboard-response","234","n","aibu","true","",""
"2359.2000000476837","","","","","2","html-slider-response","235","","","","4",""
"2559","tomato","mvua,chupi,chupa,takatak","mvua","f","2","html-keyboard-response","236","f","mvua","true","",""
"2844.2999999523163","","","","","2","html-slider-response","237","","","","4",""
"2167","stone","wingi,ulimwengu,mkasi,asili","wingi","f","2","html-keyboard-response","238","f","wingi","true","",""
"2322","","","","","2","html-slider-response","239","","","","4",""
"2411","hammer","mekno,napakyas,kitovu,layag","napakyas","v","2","html-keyboard-response","240","v","napakyas","true","",""
"2421.399999856949","","","","","2","html-slider-response","241","","","","5",""
"2386","knee","duka,mvuke,kubale,bili","duka","f","2","html-keyboard-response","242","f","duka","true","",""
"6639.5","","","","","2","html-slider-response","243","","","","3",""
"3775","ceiling","maua,kugita,kawaida,rayna","maua","f","2","html-keyboard-response","244","j","kawaida","false","",""
"2527.899999856949","","","","","2","html-slider-response","245","","","","1",""
"2278","spoon","betri,nzuri,pagsulod,ngazi","pagsulod","j","2","html-keyboard-response","246","j","pagsulod","true","",""
"3103.2000000476837","","","","","2","html-slider-response","247","","","","4",""
"2285","marker","maji,mapafu,salita,atay","maji","f","2","html-keyboard-response","248","f","maji","true","",""
"2307.7999999523163","","","","","2","html-slider-response","249","","","","4",""
"1950","candle","geza,gabi,farasi,kupanda","geza","f","2","html-keyboard-response","250","v","gabi","false","",""
"2512.0999999046326","","","","","2","html-slider-response","251","","","","4",""
"2045","tissue","lamigas,ugomvi,kisiwa,katika","ugomvi","v","2","html-keyboard-response","252","v","ugomvi","true","",""
"2504.399999856949","","","","","2","html-slider-response","253","","","","2",""
"2132","bridge","daima,ngono,sahani,panya","sahani","j","2","html-keyboard-response","254","j","sahani","true","",""
"2200.5","","","","","2","html-slider-response","255","","","","4",""
"1936","berry","kofia,abogado,nogozi,kinywa","kofia","f","2","html-keyboard-response","256","f","kofia","true","",""
"3162.4000000953674","","","","","2","html-slider-response","257","","","","4",""
"3216","triangle","kihozi,kasadpan,bentaha,liog","kasadpan","v","2","html-keyboard-response","258","v","kasadpan","true","",""
"2964.4000000953674","","","","","2","html-slider-response","259","","","","4",""
"2805","door","tena,soko,surali,nyota","surali","j","2","html-keyboard-response","260","j","surali","true","",""
"3985.399999856949","","","","","2","html-slider-response","261","","","","3",""
"2524","fish","buli,bala,baho,imani","buli","f","2","html-keyboard-response","262","f","buli","true","",""
"2694.2999999523163","","","","","2","html-slider-response","263","","","","2",""
"2592","curtain","lisud,bulwawan,mchanga,chubani","mchanga","j","2","html-keyboard-response","264","f","lisud","false","",""
"2595.2999999523163","","","","","2","html-slider-response","265","","","","1",""
"2719","flag","ndege,mkate,trekta,kawa","trekta","j","2","html-keyboard-response","266","j","trekta","true","",""
"2382.5","","","","","2","html-slider-response","267","","","","4",""
"3813","boat","hamsi,pombe,kitanda,agalon","agalon","n","2","html-keyboard-response","268","n","agalon","true","",""
"2417","","","","","2","html-slider-response","269","","","","4",""
"3905","rose","paghalad,singizi,mwanake,amani","paghalad","f","2","html-keyboard-response","270","f","paghalad","true","",""
"5101.599999904633","","","","","2","html-slider-response","271","","","","3",""
"3910","lamp","daub,bilaska,afya,mbolea","afya","j","2","html-keyboard-response","272","f","daub","false","",""
"2524.2999999523163","","","","","2","html-slider-response","273","","","","2",""
"4765","cigar","ndugu,adhabu,kuta,mlango","adhabu","v","2","html-keyboard-response","274","j","kuta","false","",""
"2237","","","","","2","html-slider-response","275","","","","2",""
"3426","list","wingu,alizeti,kuzama,kaso","wingu","f","2","html-keyboard-response","276","f","wingu","true","",""
"2195.699999809265","","","","","2","html-slider-response","277","","","","2",""
"2594","sheet","juuya,watu,kamantis,bililhon","bililhon","n","2","html-keyboard-response","278","n","bililhon","true","",""
"2348.5","","","","","2","html-slider-response","279","","","","5",""
"2705","picture","silya,kubwa,chaki,asin","kubwa","v","2","html-keyboard-response","280","v","kubwa","true","",""
"2305.100000143051","","","","","2","html-slider-response","281","","","","4",""
"2331","towel","tembo,pagpalit,funzi,pito","pagpalit","v","2","html-keyboard-response","282","v","pagpalit","true","",""
"4200","","","","","2","html-slider-response","283","","","","5",""
"3446","window","nanga,kujenga,kweli,umaga","kweli","j","2","html-keyboard-response","284","n","umaga","false","",""
"2578","","","","","2","html-slider-response","285","","","","2",""
"37713","box","kuacha,adui,rafiki,kitande","adui","v","3","html-keyboard-response","293","v","adui","true","","4"
"2636.399999856949","","","","","3","html-slider-response","294","","","","4",""
"1399","","","","","3","html-keyboard-response","295","","","","",""
"36446","pants","pintal,chuki,hari,haki","haki","n","3","html-keyboard-response","296","n","haki","true","","4"
"2988.0999999046326","","","","","3","html-slider-response","297","","","","4",""
"674","","","","","3","html-keyboard-response","298","","","","",""
"25002","cup","dagat,shimoni,jeraha,matumai","matumai","n","3","html-keyboard-response","299","n","matumai","true","","4"
"3552.5999999046326","","","","","3","html-slider-response","300","","","","4",""
"890","","","","","3","html-keyboard-response","301","","","","",""
"33660","triangle","kihozi,kasadpan,bentaha,liog","kasadpan","v","3","html-keyboard-response","302","v","kasadpan","true","","4"
"3159.2000000476837","","","","","3","html-slider-response","303","","","","2",""
"576","","","","","3","html-keyboard-response","304","","","","",""
"4090","curtain","lisud,mchanga,bulwawan,chubani","mchanga","v","3","html-keyboard-response","305","v","mchanga","true","","4"
"2158.5","","","","","3","html-slider-response","306","","","","4",""
"1350","","","","","3","html-keyboard-response","307","","","","",""
"20213","clock","kartasi,mbwa,abang,osha","mbwa","v","3","html-keyboard-response","308","v","mbwa","true","","4"
"2256.4000000953674","","","","","3","html-slider-response","309","","","","4",""
"372","","","","","3","html-keyboard-response","310","","","","",""
"7401","mirror","sulagma,rangi,kanding,furaha","sulagma","f","3","html-keyboard-response","311","f","sulagma","true","","4"
"4705.700000047684","","","","","3","html-slider-response","312","","","","2",""
"797","","","","","3","html-keyboard-response","313","","","","",""
"5410","coffin","barua,tubag,hulma,kioo","kioo","n","3","html-keyboard-response","314","n","kioo","true","","1"
"2678.5","","","","","3","html-slider-response","315","","","","2",""
"312","","","","","3","html-keyboard-response","316","","","","",""
"38264","magazine","gundi,mchawi,kiti,bahandi","kiti","j","3","html-keyboard-response","317","j","kiti","true","","4"
"2381.899999856949","","","","","3","html-slider-response","318","","","","2",""
"285","","","","","3","html-keyboard-response","319","","","","",""
"22170","column","pundok,dila,ufagio,pala","ufagio","j","3","html-keyboard-response","320","j","ufagio","true","","1"
"3320.7999999523163","","","","","3","html-slider-response","321","","","","4",""
"840","","","","","3","html-keyboard-response","322","","","","",""
"19090","number","mundamo,shule,kengele,choori","mundamo","f","3","html-keyboard-response","323","f","mundamo","true","","4"
"3833.600000143051","","","","","3","html-slider-response","324","","","","2",""
"539","","","","","3","html-keyboard-response","325","","","","",""
"29786","rose","singizi,mwanake,amani,paghalad","paghalad","n","3","html-keyboard-response","326","n","paghalad","true","","4"
"2292.300000190735","","","","","3","html-slider-response","327","","","","4",""
"1028","","","","","3","html-keyboard-response","328","","","","",""
"2477","eel","msumari,ishara,kunywa,kabuang","msumari","f","3","html-keyboard-response","329","f","msumari","true","","4"
"2198","","","","","3","html-slider-response","330","","","","2",""
"524","","","","","3","html-keyboard-response","331","","","","",""
"16801","gift","pagtawag,baba,nyange,baso","pagtawag","f","3","html-keyboard-response","332","f","pagtawag","true","","4"
"2465.5","","","","","3","html-slider-response","333","","","","4",""
"920","","","","","3","html-keyboard-response","334","","","","",""
"4377","apple","ukame,estante,edad,kisu","kisu","n","3","html-keyboard-response","335","n","kisu","true","","1"
"2062.2000000476837","","","","","3","html-slider-response","336","","","","4",""
"846","","","","","3","html-keyboard-response","337","","","","",""
"1118","wheel","punda,tawo,bafuni,baadaye","bafuni","j","3","html-keyboard-response","338","j","bafuni","true","","1"
"3193.7000000476837","","","","","3","html-slider-response","339","","","","5",""
"449","","","","","3","html-keyboard-response","340","","","","",""
"3939","knee","mvuke,kubale,duka,bili","duka","j","3","html-keyboard-response","341","n","bili","false","","4"
"3301.7000000476837","","","","","3","html-slider-response","342","","","","1",""
"2056","","","","","3","html-keyboard-response","343","","","","",""
"25525","basket","kumbuka,utepe,kumba,hasira","kumba","j","3","html-keyboard-response","344","j","kumba","true","","1"
"2465","","","","","3","html-slider-response","345","","","","4",""
"939","","","","","3","html-keyboard-response","346","","","","",""
"15716","park","tambok,pwani,bunifu,ihalas","bunifu","j","3","html-keyboard-response","347","j","bunifu","true","","4"
"3252.2999999523163","","","","","3","html-slider-response","348","","","","5",""
"293","","","","","3","html-keyboard-response","349","","","","",""
"25666","finger","simu,moyo,sufuria,lima","moyo","v","3","html-keyboard-response","350","n","lima","false","","4"
"2803.4000000953674","","","","","3","html-slider-response","351","","","","2",""
"759","","","","","3","html-keyboard-response","352","","","","",""
"35000","boat","hamsi,agalon,pombe,kitanda","agalon","v","3","html-keyboard-response","353","v","agalon","true","","4"
"2387.0999999046326","","","","","3","html-slider-response","354","","","","4",""
"15132","","","","","3","html-keyboard-response","355","","","","",""
"24960","hill","kushoto,kukimba,sweta,matumbo","matumbo","n","3","html-keyboard-response","356","n","matumbo","true","","4"
"2618.4000000953674","","","","","3","html-slider-response","357","","","","4",""
"788","","","","","3","html-keyboard-response","358","","","","",""
"5057","train","sayari,itik,dakika,mungu","sayari","f","3","html-keyboard-response","359","f","sayari","true","","4"
"2337.2000000476837","","","","","3","html-slider-response","360","","","","2",""
"745","","","","","3","html-keyboard-response","361","","","","",""
"7425","wolf","lugha,kaburi,ndizi,mchuzi","lugha","f","3","html-keyboard-response","362","f","lugha","true","","4"
"3087.199999809265","","","","","3","html-slider-response","363","","","","5",""
"289","","","","","3","html-keyboard-response","364","","","","",""
"38014","snake","jansa,karon,pagtukod,mvringo","pagtukod","j","3","html-keyboard-response","365","j","pagtukod","true","","4"
"4915.800000190735","","","","","3","html-slider-response","366","","","","2",""
"611","","","","","3","html-keyboard-response","367","","","","",""
"41571","tooth","kijiko,uadui,pahiyum,kabalaka","kabalaka","n","3","html-keyboard-response","368","j","pahiyum","false","","4"
"3481.899999856949","","","","","3","html-slider-response","369","","","","1",""
"1091","","","","","3","html-keyboard-response","370","","","","",""
"14918","notebook","kemia,msitu,kila,mdudu","kemia","f","3","html-keyboard-response","371","f","kemia","true","","4"
"2322.600000143051","","","","","3","html-slider-response","372","","","","4",""
"1025","","","","","3","html-keyboard-response","373","","","","",""
"23644","flag","ndege,trekta,mkate,kawa","trekta","v","3","html-keyboard-response","374","v","trekta","true","","4"
"2385.2000000476837","","","","","3","html-slider-response","375","","","","4",""
"299","","","","","3","html-keyboard-response","376","","","","",""
"27124","squirrel","mahugaw,hofu,ukweli,kichwa","hofu","v","3","html-keyboard-response","377","v","hofu","true","","4"
"2446","","","","","3","html-slider-response","378","","","","2",""
"669","","","","","3","html-keyboard-response","379","","","","",""
"5317","door","tena,soko,surali,nyota","surali","j","3","html-keyboard-response","380","f","tena","false","","4"
"2358.699999809265","","","","","3","html-slider-response","381","","","","2",""
"294","","","","","3","html-keyboard-response","382","","","","",""
"2329","salmon","mzungu,sensilyo,seri,baharia","sensilyo","v","3","html-keyboard-response","383","v","sensilyo","true","","4"
"2770.399999856949","","","","","3","html-slider-response","384","","","","2",""
"273","","","","","3","html-keyboard-response","385","","","","",""
"2884","shoulder","kelele,mkuu,ndaniya,guruwe","mkuu","v","3","html-keyboard-response","386","f","kelele","false","","4"
"3811.5","","","","","3","html-slider-response","387","","","","4",""
"739","","","","","3","html-keyboard-response","388","","","","",""
"19372","lamp","daub,bilaska,mbolea,afya","afya","n","3","html-keyboard-response","389","n","afya","true","","4"
"2688","","","","","3","html-slider-response","390","","","","4",""
"986","","","","","3","html-keyboard-response","391","","","","",""
"1432","shelf","bungtod,kadaot,pamahaw,awit","pamahaw","j","3","html-keyboard-response","392","j","pamahaw","true","","1"
"3390","","","","","3","html-slider-response","393","","","","5",""
"306","","","","","3","html-keyboard-response","394","","","","",""
"7191","human","bado,kikapu,punguza,tinapay","tinapay","n","3","html-keyboard-response","395","n","tinapay","true","","4"
"2832.600000143051","","","","","3","html-slider-response","396","","","","4",""
"311","","","","","3","html-keyboard-response","397","","","","",""
"6988","towel","pagpalit,tembo,funzi,pito","pagpalit","f","3","html-keyboard-response","398","f","pagpalit","true","","4"
"4134.599999904633","","","","","3","html-slider-response","399","","","","4",""
"262","","","","","3","html-keyboard-response","400","","","","",""
"15764","cat","neyemba,baki,akili,paghukom","paghukom","n","3","html-keyboard-response","401","n","paghukom","true","","4"
"3665.199999809265","","","","","3","html-slider-response","402","","","","2",""
"621","","","","","3","html-keyboard-response","403","","","","",""
"25986","spider","bunyag,mkboa,atop,kamwe","kamwe","n","3","html-keyboard-response","404","n","kamwe","true","","4"
"2649","","","","","3","html-slider-response","405","","","","4",""
"880","","","","","3","html-keyboard-response","406","","","","",""
"9038","window","nanga,kweli,kujenga,umaga","kweli","v","3","html-keyboard-response","407","v","kweli","true","","4"
"7929.200000047684","","","","","3","html-slider-response","408","","","","5",""
"7325","","","","","3","html-keyboard-response","409","","","","",""
"17183","woman","bandari,bituin,pagtabon,kovuli","pagtabon","j","3","html-keyboard-response","410","j","pagtabon","true","","1"
"2904.2000000476837","","","","","3","html-slider-response","411","","","","4",""
"33782","","","","","3","html-keyboard-response","412","","","","",""
"88588","giraffe","daraja,jumatu,hangyo,mahitabo","mahitabo","n","3","html-keyboard-response","413","n","mahitabo","true","","4"
"2441.4000000953674","","","","","3","html-slider-response","414","","","","4",""
"209","","","","","3","html-keyboard-response","415","","","","",""
"2201","elephant","petye,kito,pagduol,suka","kito","v","3","html-keyboard-response","416","n","suka","false","","4"
"3225.5","","","","","3","html-slider-response","417","","","","1",""
"372","","","","","3","html-keyboard-response","418","","","","",""
"5594","cave","ganti,maisha,kesho,nyundo","kesho","j","3","html-keyboard-response","419","j","kesho","true","","4"
"4129.599999904633","","","","","3","html-slider-response","420","","","","1",""
"302","","","","","3","html-keyboard-response","421","","","","",""
"97847","bread","kaili,dizeli,bugas,dari","dari","n","3","html-keyboard-response","422","n","dari","true","","4"
"2385","","","","","3","html-slider-response","423","","","","4",""
"1243","","","","","3","html-keyboard-response","424","","","","",""
"53736","stone","ulimwengu,wingi,mkasi,asili","wingi","v","3","html-keyboard-response","425","v","wingi","true","","4"
"5225.700000047684","","","","","3","html-slider-response","426","","","","4",""
"33691","","","","","3","html-keyboard-response","427","","","","",""
"45437","donkey","bloke,elfu,lalake,rombus","elfu","v","3","html-keyboard-response","428","v","elfu","true","","4"
"3229.2000000476837","","","","","3","html-slider-response","429","","","","5",""
"263","","","","","3","html-keyboard-response","430","","","","",""
"3869","bridge","daima,sahani,ngono,panya","sahani","v","3","html-keyboard-response","431","n","panya","false","","4"
"3670.7000000476837","","","","","3","html-slider-response","432","","","","1",""
"802","","","","","3","html-keyboard-response","433","","","","",""
"29206","bonfire","goti,mwezi,mfuko,kusanya","goti","f","3","html-keyboard-response","434","f","goti","true","","4"
"4718.5","","","","","3","html-slider-response","435","","","","2",""
"566","","","","","3","html-keyboard-response","436","","","","",""
"3628","book","kuhesa,picha,mali,mara","mali","j","3","html-keyboard-response","437","j","mali","true","","4"
"4817.399999856949","","","","","3","html-slider-response","438","","","","2",""
"426","","","","","3","html-keyboard-response","439","","","","",""
"44570","fish","bala,baho,imani,buli","buli","n","3","html-keyboard-response","440","n","buli","true","","4"
"2746.300000190735","","","","","3","html-slider-response","441","","","","4",""
"984","","","","","3","html-keyboard-response","442","","","","",""
"15700","spoon","pagsulod,betri,nzuri,ngazi","pagsulod","f","3","html-keyboard-response","443","f","pagsulod","true","","4"
"2543.699999809265","","","","","3","html-slider-response","444","","","","4",""
"781","","","","","3","html-keyboard-response","445","","","","",""
"7443","scissors","duga,mtawa,suga,tanuri","tanuri","n","3","html-keyboard-response","446","n","tanuri","true","","4"
"2925.7000000476837","","","","","3","html-slider-response","447","","","","1",""
"358","","","","","3","html-keyboard-response","448","","","","",""
"6644","page","wakala,wimbo,ishiri,skina","wimbo","v","3","html-keyboard-response","449","v","wimbo","true","","4"
"2424.600000143051","","","","","3","html-slider-response","450","","","","4",""
"446","","","","","3","html-keyboard-response","451","","","","",""
"10313","nose","gubat,kopa,sehemu,kidole","sehemu","j","3","html-keyboard-response","452","j","sehemu","true","","1"
"4504.299999952316","","","","","3","html-slider-response","453","","","","5",""
"530","","","","","3","html-keyboard-response","454","","","","",""
"29153","ceiling","kugita,kawaida,maua,rayna","maua","j","3","html-keyboard-response","455","j","maua","true","","4"
"2446.9000000953674","","","","","3","html-slider-response","456","","","","2",""
"1287","","","","","3","html-keyboard-response","457","","","","",""
"32974","bucket","baga,kiatu,ijayo,init","kiatu","v","3","html-keyboard-response","458","v","kiatu","true","","4"
"2324.899999856949","","","","","3","html-slider-response","459","","","","2",""
"644","","","","","3","html-keyboard-response","460","","","","",""
"1893","berry","abogado,kofia,nogozi,kinywa","kofia","v","3","html-keyboard-response","461","v","kofia","true","","1"
"2352","","","","","3","html-slider-response","462","","","","5",""
"263","","","","","3","html-keyboard-response","463","","","","",""
"1140","mother","kahawa,mbuzi,jokofu,babaye","babaye","n","3","html-keyboard-response","464","n","babaye","true","","1"
"2212.2999999523163","","","","","3","html-slider-response","465","","","","5",""
"364","","","","","3","html-keyboard-response","466","","","","",""
"42930","mosquito","isda,taras,martilyo,gutom","martilyo","j","3","html-keyboard-response","467","j","martilyo","true","","4"
"4821.599999904633","","","","","3","html-slider-response","468","","","","3",""
"433","","","","","3","html-keyboard-response","469","","","","",""
"11883","perfume","katuyoan,bino,sungura,ndogo","katuyoan","f","3","html-keyboard-response","470","f","katuyoan","true","","4"
"2371.2000000476837","","","","","3","html-slider-response","471","","","","4",""
"283","","","","","3","html-keyboard-response","472","","","","",""
"3027","sheet","juuya,watu,kamantis,bililhon","bililhon","n","3","html-keyboard-response","473","f","juuya","false","","4"
"3416.2999999523163","","","","","3","html-slider-response","474","","","","2",""
"296","","","","","3","html-keyboard-response","475","","","","",""
"1557","puppet","napulo,lamok,mazishi,godoro","mazishi","j","3","html-keyboard-response","476","j","mazishi","true","","1"
"2261.699999809265","","","","","3","html-slider-response","477","","","","5",""
"81","","","","","3","html-keyboard-response","478","","","","",""
"2049","poster","nchi,madungog,fedha,kasuko","madungog","v","3","html-keyboard-response","479","v","madungog","true","","4"
"4206.900000095367","","","","","3","html-slider-response","480","","","","2",""
"281","","","","","3","html-keyboard-response","481","","","","",""
"35265","music","mraba,mageho,baiski,tumbo","baiski","j","3","html-keyboard-response","482","j","baiski","true","","4"
"2945.399999856949","","","","","3","html-slider-response","483","","","","4",""
"273","","","","","3","html-keyboard-response","484","","","","",""
"34402","key","miaka,goma,ahos,chombo","chombo","n","3","html-keyboard-response","485","v","goma","false","","4"
"2557.699999809265","","","","","3","html-slider-response","486","","","","2",""
"368","","","","","3","html-keyboard-response","487","","","","",""
"12536","sock","ndoora,mamba,kimysa,mtirka","mamba","v","3","html-keyboard-response","488","v","mamba","true","","4"
"2953.899999856949","","","","","3","html-slider-response","489","","","","2",""
"248","","","","","3","html-keyboard-response","490","","","","",""
"12178","marker","mapafu,salita,maji,atay","maji","j","3","html-keyboard-response","491","f","mapafu","false","","4"
"3057.5","","","","","3","html-slider-response","492","","","","5",""
"1059","","","","","3","html-keyboard-response","493","","","","",""
"20946","office","leso,hazini,yatima,kuna","leso","f","3","html-keyboard-response","494","f","leso","true","","4"
"2728.0999999046326","","","","","3","html-slider-response","495","","","","5",""
"247","","","","","3","html-keyboard-response","496","","","","",""
"3275","shoe","uyoga,nyeusi,hatua,kama","uyoga","f","3","html-keyboard-response","497","f","uyoga","true","","4"
"2306.7999999523163","","","","","3","html-slider-response","498","","","","1",""
"389","","","","","3","html-keyboard-response","499","","","","",""
"6582","cop","bustani,jikoni,bakus,mechezo","mechezo","n","3","html-keyboard-response","500","n","mechezo","true","","4"
"3582","","","","","3","html-slider-response","501","","","","2",""
"322","","","","","3","html-keyboard-response","502","","","","",""
"26106","bank","silingan,kudhibi,tualya,ofisi","silingan","f","3","html-keyboard-response","503","f","silingan","true","","4"
"2190.300000190735","","","","","3","html-slider-response","504","","","","4",""
"103","","","","","3","html-keyboard-response","505","","","","",""
"1420","letter","filimbi,chuma,kifua,uhuru","kifua","j","3","html-keyboard-response","506","j","kifua","true","","1"
"3394.600000143051","","","","","3","html-slider-response","507","","","","5",""
"402","","","","","3","html-keyboard-response","508","","","","",""
"1142","dog","lubi,washia,kalamu,bahari","bahari","n","3","html-keyboard-response","509","n","bahari","true","","1"
"3925.7999999523163","","","","","3","html-slider-response","510","","","","5",""
"568","","","","","3","html-keyboard-response","511","","","","",""
"24896","shop","nopya,kerida,ndezu,samaki","samaki","n","3","html-keyboard-response","512","n","samaki","true","","4"
"3184.199999809265","","","","","3","html-slider-response","513","","","","4",""
"1718","","","","","3","html-keyboard-response","514","","","","",""
"4222","flower","tamasha,lobo,bega,usiku","bega","j","3","html-keyboard-response","515","f","tamasha","false","","4"
"3501.7999999523163","","","","","3","html-slider-response","516","","","","2",""
"496","","","","","3","html-keyboard-response","517","","","","",""
"1467","cigar","ndugu,kuta,adhabu,mlango","adhabu","j","3","html-keyboard-response","518","j","adhabu","true","","1"
"2715.5","","","","","3","html-slider-response","519","","","","5",""
"515","","","","","3","html-keyboard-response","520","","","","",""
"3880","hammer","mekno,napakyas,kitovu,layag","napakyas","v","3","html-keyboard-response","521","n","layag","false","","4"
"2474.5","","","","","3","html-slider-response","522","","","","1",""
"322","","","","","3","html-keyboard-response","523","","","","",""
"10309","fork","baboy,paghago,gorisi,mgonjwa","mgonjwa","n","3","html-keyboard-response","524","n","mgonjwa","true","","4"
"2506.7999999523163","","","","","3","html-slider-response","525","","","","4",""
"616","","","","","3","html-keyboard-response","526","","","","",""
"1277","sun","bendi,luha,basi,uongo","basi","j","3","html-keyboard-response","527","j","basi","true","","1"
"2357.5","","","","","3","html-slider-response","528","","","","5",""
"109","","","","","3","html-keyboard-response","529","","","","",""
"9980","ladder","mashua,pangalan,mwanga,kamba","pangalan","v","3","html-keyboard-response","530","v","pangalan","true","","4"
"2693","","","","","3","html-slider-response","531","","","","5",""
"518","","","","","3","html-keyboard-response","532","","","","",""
"1189","banana","kasamok,hagdan,kazi,twai","kazi","j","3","html-keyboard-response","533","j","kazi","true","","1"
"2264.7000000476837","","","","","3","html-slider-response","534","","","","5",""
"78","","","","","3","html-keyboard-response","535","","","","",""
"20854","pudding","aibu,abug,mpishi,iring","aibu","f","3","html-keyboard-response","536","f","aibu","true","","4"
"2031.2999999523163","","","","","3","html-slider-response","537","","","","5",""
"389","","","","","3","html-keyboard-response","538","","","","",""
"41767","body","nyundu,jibini,kununa,tindashan","tindashan","n","3","html-keyboard-response","539","n","tindashan","true","","4"
"2779.399999856949","","","","","3","html-slider-response","540","","","","2",""
"308","","","","","3","html-keyboard-response","541","","","","",""
"2157","bed","kalipay,mapintas,haraka,starehe","mapintas","v","3","html-keyboard-response","542","v","mapintas","true","","4"
"4633.799999952316","","","","","3","html-slider-response","543","","","","1",""
"529","","","","","3","html-keyboard-response","544","","","","",""
"24467","tissue","lamigas,kisiwa,ugomvi,katika","ugomvi","j","3","html-keyboard-response","545","j","ugomvi","true","","4"
"3977.7000000476837","","","","","3","html-slider-response","546","","","","3",""
"305","","","","","3","html-keyboard-response","547","","","","",""
"41274","candle","gabi,farasi,geza,kupanda","geza","j","3","html-keyboard-response","548","j","geza","true","","4"
"2352.100000143051","","","","","3","html-slider-response","549","","","","1",""
"474","","","","","3","html-keyboard-response","550","","","","",""
"1455","tomato","mvua,chupi,chupa,takatak","mvua","f","3","html-keyboard-response","551","f","mvua","true","","1"
"4603.299999952316","","","","","3","html-slider-response","552","","","","5",""
"281","","","","","3","html-keyboard-response","553","","","","",""
"2387","list","alizeti,wingu,kuzama,kaso","wingu","v","3","html-keyboard-response","554","v","wingu","true","","4"
"3914.2000000476837","","","","","3","html-slider-response","555","","","","2",""
"348","","","","","3","html-keyboard-response","556","","","","",""
"2582","olive","bata,siagi,welder,jiwe","jiwe","n","3","html-keyboard-response","557","v","siagi","false","","4"
"3330.5999999046326","","","","","3","html-slider-response","558","","","","3",""
"349","","","","","3","html-keyboard-response","559","","","","",""
"1235","picture","silya,kubwa,chaki,asin","kubwa","v","3","html-keyboard-response","560","v","kubwa","true","","1"
"2432.7999999523163","","","","","3","html-slider-response","561","","","","5",""
"264","","","","","3","html-keyboard-response","562","","","","",""
"33362","page","wakala,wimbo,ishiri,skina","wimbo","v","4","html-keyboard-response","888","v","wimbo","true","",""
"3175.199999809265","","","","","4","html-slider-response","889","","","","5",""
"21680","sheet","juuya,watu,bililhon,kamantis","bililhon","j","4","html-keyboard-response","890","j","bililhon","true","",""
"2934.9000000953674","","","","","4","html-slider-response","891","","","","5",""
"7927","ladder","mashua,mwanga,pangalan,kamba","pangalan","j","4","html-keyboard-response","892","n","kamba","false","",""
"2484.7999999523163","","","","","4","html-slider-response","893","","","","2",""
"11884","door","tena,soko,surali,nyota","surali","j","4","html-keyboard-response","894","j","surali","true","",""
"4592.200000047684","","","","","4","html-slider-response","895","","","","4",""
"39432","spider","kamwe,bunyag,mkboa,atop","kamwe","f","4","html-keyboard-response","896","f","kamwe","true","",""
"2309.0999999046326","","","","","4","html-slider-response","897","","","","4",""
"40073","picture","silya,chaki,asin,kubwa","kubwa","n","4","html-keyboard-response","898","n","kubwa","true","",""
"2899.7999999523163","","","","","4","html-slider-response","899","","","","4",""
"2856","boat","hamsi,pombe,kitanda,agalon","agalon","n","4","html-keyboard-response","900","v","pombe","false","",""
"2575.2000000476837","","","","","4","html-slider-response","901","","","","2",""
"3142","donkey","elfu,bloke,lalake,rombus","elfu","f","4","html-keyboard-response","902","f","elfu","true","",""
"4017.600000143051","","","","","4","html-slider-response","903","","","","2",""
"39767","book","mali,kuhesa,picha,mara","mali","f","4","html-keyboard-response","904","n","mara","false","",""
"2307.4000000953674","","","","","4","html-slider-response","905","","","","2",""
"4744","cup","dagat,shimoni,matumai,jeraha","matumai","j","4","html-keyboard-response","906","v","shimoni","false","",""
"2939.100000143051","","","","","4","html-slider-response","907","","","","3",""
"2731","sun","basi,bendi,luha,uongo","basi","f","4","html-keyboard-response","908","f","basi","true","",""
"3612.4000000953674","","","","","4","html-slider-response","909","","","","3",""
"30079","pudding","abug,mpishi,iring,aibu","aibu","n","4","html-keyboard-response","910","n","aibu","true","",""
"3424.4000000953674","","","","","4","html-slider-response","911","","","","5",""
"3105","human","bado,kikapu,tinapay,punguza","tinapay","j","4","html-keyboard-response","912","j","tinapay","true","",""
"3372.5","","","","","4","html-slider-response","913","","","","5",""
"1847","squirrel","mahugaw,hofu,ukweli,kichwa","hofu","v","4","html-keyboard-response","914","v","hofu","true","",""
"2349.7999999523163","","","","","4","html-slider-response","915","","","","1",""
"2519","park","bunifu,tambok,pwani,ihalas","bunifu","f","4","html-keyboard-response","916","j","pwani","false","",""
"2444.100000143051","","","","","4","html-slider-response","917","","","","2",""
"1841","poster","nchi,fedha,kasuko,madungog","madungog","n","4","html-keyboard-response","918","v","fedha","false","",""
"2202.0999999046326","","","","","4","html-slider-response","919","","","","2",""
"2759","wolf","kaburi,ndizi,mchuzi,lugha","lugha","n","4","html-keyboard-response","920","n","lugha","true","",""
"2549.199999809265","","","","","4","html-slider-response","921","","","","2",""
"33398","cat","neyemba,baki,akili,paghukom","paghukom","n","4","html-keyboard-response","922","n","paghukom","true","",""
"2338.2999999523163","","","","","4","html-slider-response","923","","","","4",""
"1809","fish","buli,bala,baho,imani","buli","f","4","html-keyboard-response","924","f","buli","true","",""
"4173.899999856949","","","","","4","html-slider-response","925","","","","2",""
"2513","tooth","kijiko,uadui,kabalaka,pahiyum","kabalaka","j","4","html-keyboard-response","926","n","pahiyum","false","",""
"2774.5","","","","","4","html-slider-response","927","","","","2",""
"1555","cave","ganti,maisha,nyundo,kesho","kesho","n","4","html-keyboard-response","928","n","kesho","true","",""
"7611.299999952316","","","","","4","html-slider-response","929","","","","4",""
"13066","lamp","daub,bilaska,mbolea,afya","afya","n","4","html-keyboard-response","930","n","afya","true","",""
"2725.7999999523163","","","","","4","html-slider-response","931","","","","5",""
"3273","banana","kasamok,hagdan,twai,kazi","kazi","n","4","html-keyboard-response","932","n","kazi","true","",""
"4750.599999904633","","","","","4","html-slider-response","933","","","","2",""
"3383","bonfire","goti,mwezi,mfuko,kusanya","goti","f","4","html-keyboard-response","934","f","goti","true","",""
"2395.399999856949","","","","","4","html-slider-response","935","","","","5",""
"3612","cop","bustani,jikoni,mechezo,bakus","mechezo","j","4","html-keyboard-response","936","j","mechezo","true","",""
"2763","","","","","4","html-slider-response","937","","","","4",""
"2800","marker","maji,mapafu,salita,atay","maji","f","4","html-keyboard-response","938","n","atay","false","",""
"3419.2000000476837","","","","","4","html-slider-response","939","","","","2",""
"5486","window","nanga,kujenga,kweli,umaga","kweli","j","4","html-keyboard-response","940","j","kweli","true","",""
"3602.899999856949","","","","","4","html-slider-response","941","","","","5",""
"4604","body","tindashan,nyundu,jibini,kununa","tindashan","f","4","html-keyboard-response","942","f","tindashan","true","",""
"3291.0999999046326","","","","","4","html-slider-response","943","","","","1",""
"2100","apple","ukame,kisu,estante,edad","kisu","v","4","html-keyboard-response","944","v","kisu","true","",""
"2709.5999999046326","","","","","4","html-slider-response","945","","","","4",""
"1741","salmon","mzungu,seri,baharia,sensilyo","sensilyo","n","4","html-keyboard-response","946","v","seri","false","",""
"2956.7000000476837","","","","","4","html-slider-response","947","","","","2",""
"5601","bed","kalipay,haraka,starehe,mapintas","mapintas","n","4","html-keyboard-response","948","f","kalipay","false","",""
"2347.2999999523163","","","","","4","html-slider-response","949","","","","2",""
"37754","berry","abogado,nogozi,kofia,kinywa","kofia","j","4","html-keyboard-response","950","j","kofia","true","",""
"4166.5","","","","","4","html-slider-response","951","","","","4",""
"5496","mirror","rangi,kanding,furaha,sulagma","sulagma","n","4","html-keyboard-response","952","v","kanding","false","",""
"5551.900000095367","","","","","4","html-slider-response","953","","","","2",""
"2232","flag","ndege,trekta,mkate,kawa","trekta","v","4","html-keyboard-response","954","v","trekta","true","",""
"2369.899999856949","","","","","4","html-slider-response","955","","","","2",""
"2822","shoulder","mkuu,kelele,ndaniya,guruwe","mkuu","f","4","html-keyboard-response","956","v","kelele","false","",""
"2889.4000000953674","","","","","4","html-slider-response","957","","","","4",""
"2202","tissue","lamigas,kisiwa,ugomvi,katika","ugomvi","j","4","html-keyboard-response","958","v","kisiwa","false","",""
"3344.2999999523163","","","","","4","html-slider-response","959","","","","2",""
"2315","notebook","msitu,kemia,kila,mdudu","kemia","v","4","html-keyboard-response","960","n","mdudu","false","",""
"3295.899999856949","","","","","4","html-slider-response","961","","","","2",""
"3385","snake","jansa,pagtukod,karon,mvringo","pagtukod","v","4","html-keyboard-response","962","j","karon","false","",""
"2406.5","","","","","4","html-slider-response","963","","","","2",""
"2081","finger","simu,sufuria,moyo,lima","moyo","j","4","html-keyboard-response","964","n","lima","false","",""
"2256.899999856949","","","","","4","html-slider-response","965","","","","2",""
"3886","basket","kumba,kumbuka,utepe,hasira","kumba","f","4","html-keyboard-response","966","f","kumba","true","",""
"2374.399999856949","","","","","4","html-slider-response","967","","","","2",""
"2511","curtain","lisud,bulwawan,mchanga,chubani","mchanga","j","4","html-keyboard-response","968","n","chubani","false","",""
"2878","","","","","4","html-slider-response","969","","","","2",""
"14287","perfume","bino,katuyoan,sungura,ndogo","katuyoan","v","4","html-keyboard-response","970","v","katuyoan","true","",""
"2879.7999999523163","","","","","4","html-slider-response","971","","","","5",""
"3715","key","miaka,goma,ahos,chombo","chombo","n","4","html-keyboard-response","972","j","ahos","false","",""
"3416.0999999046326","","","","","4","html-slider-response","973","","","","3",""
"2199","olive","jiwe,bata,siagi,welder","jiwe","f","4","html-keyboard-response","974","f","jiwe","true","",""
"2202.7000000476837","","","","","4","html-slider-response","975","","","","2",""
"3511","rose","singizi,paghalad,mwanake,amani","paghalad","v","4","html-keyboard-response","976","n","amani","false","",""
"3202.2999999523163","","","","","4","html-slider-response","977","","","","2",""
"4872","bridge","daima,ngono,sahani,panya","sahani","j","4","html-keyboard-response","978","v","ngono","false","",""
"2324.7000000476837","","","","","4","html-slider-response","979","","","","1",""
"1560","hill","kushoto,kukimba,matumbo,sweta","matumbo","j","4","html-keyboard-response","980","n","sweta","false","",""
"2297.9000000953674","","","","","4","html-slider-response","981","","","","1",""
"1754","letter","filimbi,chuma,kifua,uhuru","kifua","j","4","html-keyboard-response","982","v","chuma","false","",""
"2357.5999999046326","","","","","4","html-slider-response","983","","","","2",""
"1823","sock","ndoora,kimysa,mamba,mtirka","mamba","j","4","html-keyboard-response","984","v","kimysa","false","",""
"2449.7999999523163","","","","","4","html-slider-response","985","","","","2",""
"1149","fork","baboy,mgonjwa,paghago,gorisi","mgonjwa","v","4","html-keyboard-response","986","n","gorisi","false","",""
"2242.7000000476837","","","","","4","html-slider-response","987","","","","2",""
"1472","box","kuacha,adui,rafiki,kitande","adui","v","4","html-keyboard-response","988","v","adui","true","",""
"2661.199999809265","","","","","4","html-slider-response","989","","","","2",""
"1070","gift","pagtawag,baba,nyange,baso","pagtawag","f","4","html-keyboard-response","990","n","baso","false","",""
"3575.5","","","","","4","html-slider-response","991","","","","2",""
"1652","bucket","baga,ijayo,init,kiatu","kiatu","n","4","html-keyboard-response","992","v","ijayo","false","",""
"2281.5","","","","","4","html-slider-response","993","","","","2",""
"1709","shop","nopya,kerida,samaki,ndezu","samaki","j","4","html-keyboard-response","994","f","nopya","false","",""
"2658","","","","","4","html-slider-response","995","","","","2",""
"2058","puppet","napulo,mazishi,lamok,godoro","mazishi","v","4","html-keyboard-response","996","n","godoro","false","",""
"3348.699999809265","","","","","4","html-slider-response","997","","","","3",""
"2488","nose","gubat,kopa,kidole,sehemu","sehemu","n","4","html-keyboard-response","998","v","kopa","false","",""
"4081.2999999523163","","","","","4","html-slider-response","999","","","","3",""
"1764","music","baiski,mraba,mageho,tumbo","baiski","f","4","html-keyboard-response","1000","n","tumbo","false","",""
"2841.2000000476837","","","","","4","html-slider-response","1001","","","","2",""
"3222","dog","bahari,lubi,washia,kalamu","bahari","f","4","html-keyboard-response","1002","f","bahari","true","",""
"2927.7000000476837","","","","","4","html-slider-response","1003","","","","4",""
"1889","eel","ishara,kunywa,kabuang,msumari","msumari","n","4","html-keyboard-response","1004","v","kunywa","false","",""
"2695.5","","","","","4","html-slider-response","1005","","","","4",""
"1851","number","shule,mundamo,kengele,choori","mundamo","v","4","html-keyboard-response","1006","f","shule","false","",""
"3146.2000000476837","","","","","4","html-slider-response","1007","","","","2",""
"1652","tomato","chupi,mvua,chupa,takatak","mvua","v","4","html-keyboard-response","1008","f","chupi","false","",""
"2918.600000143051","","","","","4","html-slider-response","1009","","","","2",""
"1275","coffin","barua,tubag,hulma,kioo","kioo","n","4","html-keyboard-response","1010","n","kioo","true","",""
"2506.5","","","","","4","html-slider-response","1011","","","","2",""
"1023","knee","mvuke,duka,kubale,bili","duka","v","4","html-keyboard-response","1012","n","bili","false","",""
"4815.900000095367","","","","","4","html-slider-response","1013","","","","3",""
"2279","woman","pagtabon,bandari,bituin,kovuli","pagtabon","f","4","html-keyboard-response","1014","f","pagtabon","true","",""
"3876.5","","","","","4","html-slider-response","1015","","","","2",""
"1135","stone","ulimwengu,wingi,mkasi,asili","wingi","v","4","html-keyboard-response","1016","n","asili","false","",""
"2236.899999856949","","","","","4","html-slider-response","1017","","","","2",""
"571","bread","dari,kaili,dizeli,bugas","dari","f","4","html-keyboard-response","1018","n","bugas","false","",""
"2498.699999809265","","","","","4","html-slider-response","1019","","","","2",""
"1619","triangle","kasadpan,kihozi,bentaha,liog","kasadpan","f","4","html-keyboard-response","1020","n","liog","false","",""
"2956.2999999523163","","","","","4","html-slider-response","1021","","","","2",""
"1645","scissors","tanuri,duga,mtawa,suga","tanuri","f","4","html-keyboard-response","1022","v","duga","false","",""
"2420.2000000476837","","","","","4","html-slider-response","1023","","","","2",""
"1449","giraffe","daraja,jumatu,hangyo,mahitabo","mahitabo","n","4","html-keyboard-response","1024","j","hangyo","false","",""
"2664.0999999046326","","","","","4","html-slider-response","1025","","","","2",""
"2214","flower","bega,tamasha,lobo,usiku","bega","f","4","html-keyboard-response","1026","v","tamasha","false","",""
"2771.699999809265","","","","","4","html-slider-response","1027","","","","4",""
"1140","candle","gabi,farasi,kupanda,geza","geza","n","4","html-keyboard-response","1028","n","geza","true","",""
"2503.2000000476837","","","","","4","html-slider-response","1029","","","","2",""
"1559","mother","kahawa,babaye,mbuzi,jokofu","babaye","v","4","html-keyboard-response","1030","n","jokofu","false","",""
"3157.5","","","","","4","html-slider-response","1031","","","","2",""
"2212","towel","pagpalit,tembo,funzi,pito","pagpalit","f","4","html-keyboard-response","1032","n","pito","false","",""
"2140.4000000953674","","","","","4","html-slider-response","1033","","","","2",""
"2338","elephant","petye,kito,pagduol,suka","kito","v","4","html-keyboard-response","1034","v","kito","true","",""
"3230.5","","","","","4","html-slider-response","1035","","","","4",""
"3530","shelf","bungtod,pamahaw,kadaot,awit","pamahaw","v","4","html-keyboard-response","1036","j","kadaot","false","",""
"3325.5999999046326","","","","","4","html-slider-response","1037","","","","2",""
"2120","mosquito","isda,taras,gutom,martilyo","martilyo","n","4","html-keyboard-response","1038","v","taras","false","",""
"2297.899999856949","","","","","4","html-slider-response","1039","","","","2",""
"1595","column","ufagio,pundok,dila,pala","ufagio","f","4","html-keyboard-response","1040","f","ufagio","true","",""
"2952.7999999523163","","","","","4","html-slider-response","1041","","","","2",""
"1613","pants","pintal,haki,chuki,hari","haki","v","4","html-keyboard-response","1042","v","haki","true","",""
"2264.4000000953674","","","","","4","html-slider-response","1043","","","","2",""
"6132","list","wingu,alizeti,kuzama,kaso","wingu","f","4","html-keyboard-response","1044","n","kaso","false","",""
"2796.5","","","","","4","html-slider-response","1045","","","","2",""
"1272","bank","kudhibi,tualya,silingan,ofisi","silingan","j","4","html-keyboard-response","1046","n","ofisi","false","",""
"3236.199999809265","","","","","4","html-slider-response","1047","","","","3",""
"1389","clock","kartasi,abang,mbwa,osha","mbwa","j","4","html-keyboard-response","1048","n","osha","false","",""
"2225.5","","","","","4","html-slider-response","1049","","","","2",""
"2133","ceiling","kugita,kawaida,maua,rayna","maua","j","4","html-keyboard-response","1050","f","kugita","false","",""
"3564.399999856949","","","","","4","html-slider-response","1051","","","","2",""
"751","train","sayari,itik,dakika,mungu","sayari","f","4","html-keyboard-response","1052","n","mungu","false","",""
"2896.5999999046326","","","","","4","html-slider-response","1053","","","","2",""
"1254","magazine","gundi,kiti,mchawi,bahandi","kiti","v","4","html-keyboard-response","1054","f","gundi","false","",""
"2808.4000000953674","","","","","4","html-slider-response","1055","","","","2",""
"1534","office","leso,hazini,yatima,kuna","leso","f","4","html-keyboard-response","1056","n","kuna","false","",""
"2337.2999999523163","","","","","4","html-slider-response","1057","","","","2",""
"1299","wheel","punda,bafuni,tawo,baadaye","bafuni","v","4","html-keyboard-response","1058","f","punda","false","",""
"2797.7999999523163","","","","","4","html-slider-response","1059","","","","2",""
"1268","spoon","betri,nzuri,ngazi,pagsulod","pagsulod","n","4","html-keyboard-response","1060","j","ngazi","false","",""
"3342.0999999046326","","","","","4","html-slider-response","1061","","","","2",""
"2007","hammer","mekno,kitovu,layag,napakyas","napakyas","n","4","html-keyboard-response","1062","j","layag","false","",""
"3986.4000000953674","","","","","4","html-slider-response","1063","","","","3",""
"2490","cigar","ndugu,adhabu,kuta,mlango","adhabu","v","4","html-keyboard-response","1064","j","kuta","false","",""
"2654.0999999046326","","","","","4","html-slider-response","1065","","","","2",""
"2087","shoe","nyeusi,hatua,uyoga,kama","uyoga","j","4","html-keyboard-response","1066","v","hatua","false","",""
"2293.300000190735","","","","","4","html-slider-response","1067","","","","2",""
"4759","list","alizeti,kuzama,wingu,kaso","wingu","j","5","html-keyboard-response","1069","f","alizeti","false","",""
"2357.7000000476837","","","","","5","html-slider-response","1070","","","","2",""
"2536","number","shule,mundamo,kengele,choori","mundamo","v","5","html-keyboard-response","1071","v","mundamo","true","",""
"3228","","","","","5","html-slider-response","1072","","","","4",""
"2641","apple","ukame,estante,kisu,edad","kisu","j","5","html-keyboard-response","1073","j","kisu","true","",""
"2208.0999999046326","","","","","5","html-slider-response","1074","","","","4",""
"1599","knee","mvuke,kubale,duka,bili","duka","j","5","html-keyboard-response","1075","n","bili","false","",""
"2643.4000000953674","","","","","5","html-slider-response","1076","","","","4",""
"2709","tooth","kabalaka,kijiko,uadui,pahiyum","kabalaka","f","5","html-keyboard-response","1077","v","kijiko","false","",""
"6510","","","","","5","html-slider-response","1078","","","","4",""
"168971","berry","abogado,nogozi,kofia,kinywa","kofia","j","5","html-keyboard-response","1079","v","nogozi","false","",""
"2853","","","","","5","html-slider-response","1080","","","","4",""
"5327","bridge","daima,ngono,sahani,panya","sahani","j","5","html-keyboard-response","1081","j","sahani","true","",""
"3251.100000143051","","","","","5","html-slider-response","1082","","","","4",""
"1513","perfume","bino,sungura,katuyoan,ndogo","katuyoan","j","5","html-keyboard-response","1083","v","sungura","false","",""
"2484.2999999523163","","","","","5","html-slider-response","1084","","","","4",""
"3683","ladder","mashua,mwanga,kamba,pangalan","pangalan","n","5","html-keyboard-response","1085","j","kamba","false","",""
"2824.600000143051","","","","","5","html-slider-response","1086","","","","2",""
"1944","pants","pintal,chuki,haki,hari","haki","j","5","html-keyboard-response","1087","v","chuki","false","",""
"2679.100000143051","","","","","5","html-slider-response","1088","","","","4",""
"2784","salmon","sensilyo,mzungu,seri,baharia","sensilyo","f","5","html-keyboard-response","1089","n","baharia","false","",""
"3121","","","","","5","html-slider-response","1090","","","","4",""
"3164","coffin","kioo,barua,tubag,hulma","kioo","f","5","html-keyboard-response","1091","v","barua","false","",""
"3236.300000190735","","","","","5","html-slider-response","1092","","","","2",""
"5620","park","tambok,bunifu,pwani,ihalas","bunifu","v","5","html-keyboard-response","1093","f","tambok","false","",""
"3437.7999999523163","","","","","5","html-slider-response","1094","","","","2",""
"8072","giraffe","daraja,jumatu,hangyo,mahitabo","mahitabo","n","5","html-keyboard-response","1095","v","jumatu","false","",""
"3361.9000000953674","","","","","5","html-slider-response","1096","","","","2",""
"2091","mirror","rangi,kanding,furaha,sulagma","sulagma","n","5","html-keyboard-response","1097","v","kanding","false","",""
"3271.2000000476837","","","","","5","html-slider-response","1098","","","","2",""
"2193","ceiling","kugita,kawaida,rayna,maua","maua","n","5","html-keyboard-response","1099","n","maua","true","",""
"2820.600000143051","","","","","5","html-slider-response","1100","","","","2",""
"11845","marker","mapafu,salita,atay,maji","maji","n","5","html-keyboard-response","1101","v","salita","false","",""
"6129.699999809265","","","","","5","html-slider-response","1102","","","","2",""
"3336","sock","ndoora,kimysa,mamba,mtirka","mamba","j","5","html-keyboard-response","1103","v","kimysa","false","",""
"5014.299999952316","","","","","5","html-slider-response","1104","","","","2",""
"4077","cop","bustani,mechezo,jikoni,bakus","mechezo","v","5","html-keyboard-response","1105","v","mechezo","true","",""
"5396.599999904633","","","","","5","html-slider-response","1106","","","","2",""
"17467","gift","baba,pagtawag,nyange,baso","pagtawag","v","5","html-keyboard-response","1107","f","baba","false","",""
"3332.600000143051","","","","","5","html-slider-response","1108","","","","2",""
"3074","notebook","msitu,kila,mdudu,kemia","kemia","n","5","html-keyboard-response","1109","v","kila","false","",""
"5317.799999952316","","","","","5","html-slider-response","1110","","","","2",""
"2283","bank","kudhibi,tualya,ofisi,silingan","silingan","n","5","html-keyboard-response","1111","v","tualya","false","",""
"2840.399999856949","","","","","5","html-slider-response","1112","","","","2",""
"2347","letter","kifua,filimbi,chuma,uhuru","kifua","f","5","html-keyboard-response","1113","n","uhuru","false","",""
"3443.600000143051","","","","","5","html-slider-response","1114","","","","4",""
"3505","candle","gabi,farasi,geza,kupanda","geza","j","5","html-keyboard-response","1115","j","geza","true","",""
"3357.2999999523163","","","","","5","html-slider-response","1116","","","","2",""
"2684","bread","kaili,dizeli,dari,bugas","dari","j","5","html-keyboard-response","1117","n","bugas","false","",""
"7523.399999856949","","","","","5","html-slider-response","1118","","","","2",""
"9850","snake","jansa,karon,pagtukod,mvringo","pagtukod","j","5","html-keyboard-response","1119","n","mvringo","false","",""
"2320.7000000476837","","","","","5","html-slider-response","1120","","","","2",""
"1650","rose","singizi,paghalad,mwanake,amani","paghalad","v","5","html-keyboard-response","1121","v","paghalad","true","",""
"2741.100000143051","","","","","5","html-slider-response","1122","","","","2",""
"1848","hill","kushoto,kukimba,sweta,matumbo","matumbo","n","5","html-keyboard-response","1123","j","sweta","false","",""
"3636.2000000476837","","","","","5","html-slider-response","1124","","","","2",""
"2228","train","itik,dakika,sayari,mungu","sayari","j","5","html-keyboard-response","1125","f","itik","false","",""
"2686.899999856949","","","","","5","html-slider-response","1126","","","","2",""
"2399","shop","samaki,nopya,kerida,ndezu","samaki","f","5","html-keyboard-response","1127","v","nopya","false","",""
"2509.5","","","","","5","html-slider-response","1128","","","","2",""
"1548","nose","gubat,kopa,kidole,sehemu","sehemu","n","5","html-keyboard-response","1129","v","kopa","false","",""
"2635.7999999523163","","","","","5","html-slider-response","1130","","","","4",""
"2047","boat","hamsi,pombe,kitanda,agalon","agalon","n","5","html-keyboard-response","1131","n","agalon","true","",""
"4536.099999904633","","","","","5","html-slider-response","1132","","","","2",""
"1697","body","nyundu,tindashan,jibini,kununa","tindashan","v","5","html-keyboard-response","1133","v","tindashan","true","",""
"2783","","","","","5","html-slider-response","1134","","","","5",""
"1798","bed","kalipay,mapintas,haraka,starehe","mapintas","v","5","html-keyboard-response","1135","f","kalipay","false","",""
"2604.399999856949","","","","","5","html-slider-response","1136","","","","4",""
"1590","squirrel","mahugaw,ukweli,hofu,kichwa","hofu","j","5","html-keyboard-response","1137","v","ukweli","false","",""
"2481.399999856949","","","","","5","html-slider-response","1138","","","","2",""
"6467","window","nanga,kweli,kujenga,umaga","kweli","v","5","html-keyboard-response","1139","n","umaga","false","",""
"3092.2000000476837","","","","","5","html-slider-response","1140","","","","2",""
"1657","bonfire","mwezi,mfuko,goti,kusanya","goti","j","5","html-keyboard-response","1141","j","goti","true","",""
"2746.100000143051","","","","","5","html-slider-response","1142","","","","2",""
"1595","fish","bala,baho,buli,imani","buli","j","5","html-keyboard-response","1143","f","bala","false","",""
"2310.7999999523163","","","","","5","html-slider-response","1144","","","","2",""
"1644","cat","neyemba,paghukom,baki,akili","paghukom","v","5","html-keyboard-response","1145","n","akili","false","",""
"3733","","","","","5","html-slider-response","1146","","","","2",""
"1234","spider","bunyag,mkboa,atop,kamwe","kamwe","n","5","html-keyboard-response","1147","j","atop","false","",""
"2652.800000190735","","","","","5","html-slider-response","1148","","","","2",""
"1434","eel","msumari,ishara,kunywa,kabuang","msumari","f","5","html-keyboard-response","1149","v","ishara","false","",""
"2778.5999999046326","","","","","5","html-slider-response","1150","","","","2",""
"1483","woman","bandari,bituin,pagtabon,kovuli","pagtabon","j","5","html-keyboard-response","1151","v","bituin","false","",""
"2795.199999809265","","","","","5","html-slider-response","1152","","","","2",""
"1101","magazine","gundi,kiti,mchawi,bahandi","kiti","v","5","html-keyboard-response","1153","v","kiti","true","",""
"3702.4000000953674","","","","","5","html-slider-response","1154","","","","2",""
"1386","pudding","abug,aibu,mpishi,iring","aibu","v","5","html-keyboard-response","1155","v","aibu","true","",""
"3311.2000000476837","","","","","5","html-slider-response","1156","","","","2",""
"1025","lamp","daub,afya,bilaska,mbolea","afya","v","5","html-keyboard-response","1157","v","afya","true","",""
"2307.2999999523163","","","","","5","html-slider-response","1158","","","","2",""
"1118","cave","ganti,kesho,maisha,nyundo","kesho","v","5","html-keyboard-response","1159","v","kesho","true","",""
"2403.5","","","","","5","html-slider-response","1160","","","","2",""
"2489","shoulder","kelele,ndaniya,mkuu,guruwe","mkuu","j","5","html-keyboard-response","1161","f","kelele","false","",""
"2492.4000000953674","","","","","5","html-slider-response","1162","","","","5",""
"1074","stone","ulimwengu,wingi,mkasi,asili","wingi","v","5","html-keyboard-response","1163","v","wingi","true","",""
"2576.199999809265","","","","","5","html-slider-response","1164","","","","2",""
"1102","column","pundok,dila,pala,ufagio","ufagio","n","5","html-keyboard-response","1165","v","dila","false","",""
"2096","","","","","5","html-slider-response","1166","","","","2",""
"1063","page","wakala,ishiri,skina,wimbo","wimbo","n","5","html-keyboard-response","1167","v","ishiri","false","",""
"3178","","","","","5","html-slider-response","1168","","","","2",""
"1235","shoe","uyoga,nyeusi,hatua,kama","uyoga","f","5","html-keyboard-response","1169","v","nyeusi","false","",""
"2656.7999999523163","","","","","5","html-slider-response","1170","","","","2",""
"908","clock","mbwa,kartasi,abang,osha","mbwa","f","5","html-keyboard-response","1171","v","kartasi","false","",""
"3402","","","","","5","html-slider-response","1172","","","","2",""
"1372","towel","tembo,funzi,pagpalit,pito","pagpalit","j","5","html-keyboard-response","1173","v","funzi","false","",""
"3504.2999999523163","","","","","5","html-slider-response","1174","","","","2",""
"6177","tomato","chupi,chupa,mvua,takatak","mvua","j","5","html-keyboard-response","1175","f","chupi","false","",""
"2359.9000000953674","","","","","5","html-slider-response","1176","","","","2",""
"1867","bucket","baga,kiatu,ijayo,init","kiatu","v","5","html-keyboard-response","1177","v","kiatu","true","",""
"2695.2999999523163","","","","","5","html-slider-response","1178","","","","2",""
"1260","finger","simu,moyo,sufuria,lima","moyo","v","5","html-keyboard-response","1179","v","moyo","true","",""
"2359","","","","","5","html-slider-response","1180","","","","2",""
"1689","mother","kahawa,babaye,mbuzi,jokofu","babaye","v","5","html-keyboard-response","1181","v","babaye","true","",""
"3330.2999999523163","","","","","5","html-slider-response","1182","","","","2",""
"1087","human","bado,kikapu,tinapay,punguza","tinapay","j","5","html-keyboard-response","1183","v","kikapu","false","",""
"2703","","","","","5","html-slider-response","1184","","","","2",""
"2427","sun","bendi,luha,basi,uongo","basi","j","5","html-keyboard-response","1185","j","basi","true","",""
"2932.7999999523163","","","","","5","html-slider-response","1186","","","","2",""
"4565","fork","baboy,paghago,mgonjwa,gorisi","mgonjwa","j","5","html-keyboard-response","1187","n","gorisi","false","",""
"3932","","","","","5","html-slider-response","1188","","","","2",""
"1254","donkey","bloke,lalake,elfu,rombus","elfu","j","5","html-keyboard-response","1189","j","elfu","true","",""
"2452.9000000953674","","","","","5","html-slider-response","1190","","","","2",""
"1589","wolf","kaburi,ndizi,lugha,mchuzi","lugha","j","5","html-keyboard-response","1191","v","ndizi","false","",""
"3168.5","","","","","5","html-slider-response","1192","","","","2",""
"930","cigar","adhabu,ndugu,kuta,mlango","adhabu","f","5","html-keyboard-response","1193","n","mlango","false","",""
"2922.2999999523163","","","","","5","html-slider-response","1194","","","","2",""
"876","olive","bata,siagi,jiwe,welder","jiwe","j","5","html-keyboard-response","1195","v","siagi","false","",""
"2358.5999999046326","","","","","5","html-slider-response","1196","","","","2",""
"816","key","miaka,goma,ahos,chombo","chombo","n","5","html-keyboard-response","1197","v","goma","false","",""
"2752.800000190735","","","","","5","html-slider-response","1198","","","","2",""
"780","door","surali,tena,soko,nyota","surali","f","5","html-keyboard-response","1199","v","tena","false","",""
"3512.5999999046326","","","","","5","html-slider-response","1200","","","","4",""
"1184","wheel","punda,tawo,bafuni,baadaye","bafuni","j","5","html-keyboard-response","1201","v","tawo","false","",""
"2720.199999809265","","","","","5","html-slider-response","1202","","","","4",""
"1031","basket","kumbuka,kumba,utepe,hasira","kumba","v","5","html-keyboard-response","1203","v","kumba","true","",""
"3749.399999856949","","","","","5","html-slider-response","1204","","","","2",""
"661","elephant","kito,petye,pagduol,suka","kito","f","5","html-keyboard-response","1205","v","petye","false","",""
"2791.0999999046326","","","","","5","html-slider-response","1206","","","","2",""
"718","office","hazini,yatima,kuna,leso","leso","n","5","html-keyboard-response","1207","v","yatima","false","",""
"3064.2999999523163","","","","","5","html-slider-response","1208","","","","2",""
"1527","music","baiski,mraba,mageho,tumbo","baiski","f","5","html-keyboard-response","1209","v","mraba","false","",""
"2209.5999999046326","","","","","5","html-slider-response","1210","","","","2",""
"1647","tissue","ugomvi,lamigas,kisiwa,katika","ugomvi","f","5","html-keyboard-response","1211","v","lamigas","false","",""
"2487.100000143051","","","","","5","html-slider-response","1212","","","","2",""
"752","curtain","mchanga,lisud,bulwawan,chubani","mchanga","f","5","html-keyboard-response","1213","v","lisud","false","",""
"2259.199999809265","","","","","5","html-slider-response","1214","","","","2",""
"1006","flag","ndege,mkate,trekta,kawa","trekta","j","5","html-keyboard-response","1215","v","mkate","false","",""
"2723.600000143051","","","","","5","html-slider-response","1216","","","","2",""
"700","dog","lubi,bahari,washia,kalamu","bahari","v","5","html-keyboard-response","1217","v","bahari","true","",""
"2319.899999856949","","","","","5","html-slider-response","1218","","","","2",""
"673","cup","dagat,shimoni,matumai,jeraha","matumai","j","5","html-keyboard-response","1219","v","shimoni","false","",""
"3206.9000000953674","","","","","5","html-slider-response","1220","","","","2",""
"632","sheet","bililhon,juuya,watu,kamantis","bililhon","f","5","html-keyboard-response","1221","v","juuya","false","",""
"2375.7000000476837","","","","","5","html-slider-response","1222","","","","2",""
"1025","spoon","betri,nzuri,pagsulod,ngazi","pagsulod","j","5","html-keyboard-response","1223","v","nzuri","false","",""
"4296.900000095367","","","","","5","html-slider-response","1224","","","","2",""
"747","flower","tamasha,lobo,bega,usiku","bega","j","5","html-keyboard-response","1225","v","lobo","false","",""
"2391.7000000476837","","","","","5","html-slider-response","1226","","","","2",""
"966","picture","silya,chaki,kubwa,asin","kubwa","j","5","html-keyboard-response","1227","v","chaki","false","",""
"2708.2000000476837","","","","","5","html-slider-response","1228","","","","2",""
"1273","puppet","mazishi,napulo,lamok,godoro","mazishi","f","5","html-keyboard-response","1229","n","godoro","false","",""
"2303.7999999523163","","","","","5","html-slider-response","1230","","","","2",""
"1599","banana","kasamok,kazi,hagdan,twai","kazi","v","5","html-keyboard-response","1231","n","twai","false","",""
"4817.700000047684","","","","","5","html-slider-response","1232","","","","2",""
"809","book","kuhesa,mali,picha,mara","mali","v","5","html-keyboard-response","1233","n","mara","false","",""
"2820.4000000953674","","","","","5","html-slider-response","1234","","","","2",""
"451","triangle","kihozi,kasadpan,bentaha,liog","kasadpan","v","5","html-keyboard-response","1235","n","liog","false","",""
"4396.299999952316","","","","","5","html-slider-response","1236","","","","2",""
"630","poster","nchi,fedha,madungog,kasuko","madungog","j","5","html-keyboard-response","1237","n","kasuko","false","",""
"3525.2000000476837","","","","","5","html-slider-response","1238","","","","2",""
"737","box","kuacha,adui,rafiki,kitande","adui","v","5","html-keyboard-response","1239","n","kitande","false","",""
"3476.7000000476837","","","","","5","html-slider-response","1240","","","","2",""
"820","mosquito","isda,martilyo,taras,gutom","martilyo","v","5","html-keyboard-response","1241","n","gutom","false","",""
"2644.899999856949","","","","","5","html-slider-response","1242","","","","2",""
"738","shelf","pamahaw,bungtod,kadaot,awit","pamahaw","f","5","html-keyboard-response","1243","n","awit","false","",""
"5231.5","","","","","5","html-slider-response","1244","","","","2",""
"636","scissors","duga,mtawa,tanuri,suga","tanuri","j","5","html-keyboard-response","1245","n","suga","false","",""
"3711.2000000476837","","","","","5","html-slider-response","1246","","","","2",""
"900","hammer","napakyas,mekno,kitovu,layag","napakyas","f","5","html-keyboard-response","1247","n","layag","false","",""
"2188.5","","","","","5","html-slider-response","1248","","","","2",""
