"rt","en_word","options","swa_word","correct_answer","phase","trial_type","trial_index","input_answer","input_word","accuracy","certainty","swahili_knowledge","previous_subject"
"2162","sun","bendi,luha,basi,uongo","basi","j","4","html-keyboard-response","5","j","basi","true","","",""
"2188.2999999523163","","","","","4","html-slider-response","6","","","","4","",""
"3553","basket","kumbuka,utepe,kumba,hasira","kumba","j","4","html-keyboard-response","7","j","kumba","true","","",""
"1630.2999999523163","","","","","4","html-slider-response","8","","","","2","",""
"5235","curtain","mchanga,lisud,bulwawan,chubani","mchanga","f","4","html-keyboard-response","9","n","chubani","false","","",""
"1609.8999999761581","","","","","4","html-slider-response","10","","","","2","",""
"3139","park","tambok,pwani,ihalas,bunifu","bunifu","n","4","html-keyboard-response","11","n","bunifu","true","","",""
"1687.7000000476837","","","","","4","html-slider-response","12","","","","4","",""
"3772","nose","gubat,kopa,sehemu,kidole","sehemu","j","4","html-keyboard-response","13","j","sehemu","true","","",""
"1693.8999999761581","","","","","4","html-slider-response","14","","","","2","",""
"3429","window","kweli,nanga,kujenga,umaga","kweli","f","4","html-keyboard-response","15","n","umaga","false","","",""
"1416","","","","","4","html-slider-response","16","","","","2","",""
"3005","cave","ganti,kesho,maisha,nyundo","kesho","v","4","html-keyboard-response","17","v","kesho","true","","",""
"1387.2000000476837","","","","","4","html-slider-response","18","","","","4","",""
"8039","woman","bandari,bituin,kovuli,pagtabon","pagtabon","n","4","html-keyboard-response","19","v","bituin","false","","",""
"1668.8000000715256","","","","","4","html-slider-response","20","","","","2","",""
"4183","bed","kalipay,mapintas,haraka,starehe","mapintas","v","4","html-keyboard-response","21","j","haraka","false","","",""
"2525.7999999523163","","","","","4","html-slider-response","22","","","","2","",""
"3271","column","pundok,dila,ufagio,pala","ufagio","j","4","html-keyboard-response","23","j","ufagio","true","","",""
"2334","","","","","4","html-slider-response","24","","","","4","",""
"2257","fish","bala,baho,buli,imani","buli","j","4","html-keyboard-response","25","j","buli","true","","",""
"1884.1000000238419","","","","","4","html-slider-response","26","","","","4","",""
"4867","boat","agalon,hamsi,pombe,kitanda","agalon","f","4","html-keyboard-response","27","f","agalon","true","","",""
"1732.7999999523163","","","","","4","html-slider-response","28","","","","2","",""
"3542","cop","bustani,jikoni,mechezo,bakus","mechezo","j","4","html-keyboard-response","29","j","mechezo","true","","",""
"1102.1999999284744","","","","","4","html-slider-response","30","","","","4","",""
"3497","shoulder","mkuu,kelele,ndaniya,guruwe","mkuu","f","4","html-keyboard-response","31","f","mkuu","true","","",""
"1421.3000000715256","","","","","4","html-slider-response","32","","","","2","",""
"5965","magazine","gundi,mchawi,kiti,bahandi","kiti","j","4","html-keyboard-response","33","v","mchawi","false","","",""
"1978.1000000238419","","","","","4","html-slider-response","34","","","","2","",""
"4997","gift","baba,nyange,pagtawag,baso","pagtawag","j","4","html-keyboard-response","35","v","nyange","false","","",""
"1731.5","","","","","4","html-slider-response","36","","","","2","",""
"4747","clock","mbwa,kartasi,abang,osha","mbwa","f","4","html-keyboard-response","37","f","mbwa","true","","",""
"1289.1000000238419","","","","","4","html-slider-response","38","","","","2","",""
"7065","squirrel","mahugaw,ukweli,kichwa,hofu","hofu","n","4","html-keyboard-response","39","j","kichwa","false","","",""
"2458.899999976158","","","","","4","html-slider-response","40","","","","2","",""
"5071","key","miaka,chombo,goma,ahos","chombo","v","4","html-keyboard-response","41","j","goma","false","","",""
"2279","","","","","4","html-slider-response","42","","","","2","",""
"2325","salmon","mzungu,seri,sensilyo,baharia","sensilyo","j","4","html-keyboard-response","43","j","sensilyo","true","","",""
"1680.1000000238419","","","","","4","html-slider-response","44","","","","4","",""
"4767","puppet","napulo,lamok,mazishi,godoro","mazishi","j","4","html-keyboard-response","45","j","mazishi","true","","",""
"1023.5","","","","","4","html-slider-response","46","","","","4","",""
"4106","letter","kifua,filimbi,chuma,uhuru","kifua","f","4","html-keyboard-response","47","j","chuma","false","","",""
"1413.9000000953674","","","","","4","html-slider-response","48","","","","2","",""
"4456","flag","ndege,mkate,kawa,trekta","trekta","n","4","html-keyboard-response","49","n","trekta","true","","",""
"5166","","","","","4","html-slider-response","50","","","","2","",""
"3210","mother","kahawa,mbuzi,babaye,jokofu","babaye","j","4","html-keyboard-response","51","j","babaye","true","","",""
"2183","","","","","4","html-slider-response","52","","","","2","",""
"3757","ceiling","kugita,maua,kawaida,rayna","maua","v","4","html-keyboard-response","53","v","maua","true","","",""
"1190.7999999523163","","","","","4","html-slider-response","54","","","","4","",""
"3577","stone","ulimwengu,mkasi,asili,wingi","wingi","n","4","html-keyboard-response","55","n","wingi","true","","",""
"1413","","","","","4","html-slider-response","56","","","","2","",""
"2093","sock","ndoora,kimysa,mtirka,mamba","mamba","n","4","html-keyboard-response","57","n","mamba","true","","",""
"2166.3000000715256","","","","","4","html-slider-response","58","","","","4","",""
"5127","rose","paghalad,singizi,mwanake,amani","paghalad","f","4","html-keyboard-response","59","v","singizi","false","","",""
"1606.7999999523163","","","","","4","html-slider-response","60","","","","2","",""
"2113","office","hazini,yatima,kuna,leso","leso","n","4","html-keyboard-response","61","n","leso","true","","",""
"1907.0999999046326","","","","","4","html-slider-response","62","","","","4","",""
"3382","number","shule,kengele,mundamo,choori","mundamo","j","4","html-keyboard-response","63","n","choori","false","","",""
"1171.2000000476837","","","","","4","html-slider-response","64","","","","2","",""
"3829","lamp","daub,bilaska,afya,mbolea","afya","j","4","html-keyboard-response","65","v","bilaska","false","","",""
"1486.1000000238419","","","","","4","html-slider-response","66","","","","2","",""
"5232","dog","bahari,lubi,washia,kalamu","bahari","f","4","html-keyboard-response","67","v","lubi","false","","",""
"1383.7999999523163","","","","","4","html-slider-response","68","","","","2","",""
"1648","mosquito","isda,taras,martilyo,gutom","martilyo","j","4","html-keyboard-response","69","j","martilyo","true","","",""
"1490.2999999523163","","","","","4","html-slider-response","70","","","","4","",""
"2918","notebook","kemia,msitu,kila,mdudu","kemia","f","4","html-keyboard-response","71","j","kila","false","","",""
"1822.1000000238419","","","","","4","html-slider-response","72","","","","1","",""
"3737","apple","kisu,ukame,estante,edad","kisu","f","4","html-keyboard-response","73","f","kisu","true","","",""
"1288.6999999284744","","","","","4","html-slider-response","74","","","","2","",""
"3459","cigar","adhabu,ndugu,kuta,mlango","adhabu","f","4","html-keyboard-response","75","v","ndugu","false","","",""
"1912.1000000238419","","","","","4","html-slider-response","76","","","","2","",""
"1825","coffin","kioo,barua,tubag,hulma","kioo","f","4","html-keyboard-response","77","f","kioo","true","","",""
"1077","","","","","4","html-slider-response","78","","","","4","",""
"3814","shelf","bungtod,kadaot,awit,pamahaw","pamahaw","n","4","html-keyboard-response","79","v","kadaot","false","","",""
"2222.5999999046326","","","","","4","html-slider-response","80","","","","2","",""
"2635","bread","dari,kaili,dizeli,bugas","dari","f","4","html-keyboard-response","81","f","dari","true","","",""
"1259.8999999761581","","","","","4","html-slider-response","82","","","","4","",""
"3052","olive","bata,jiwe,siagi,welder","jiwe","v","4","html-keyboard-response","83","v","jiwe","true","","",""
"1583.2999999523163","","","","","4","html-slider-response","84","","","","4","",""
"4737","spider","bunyag,mkboa,atop,kamwe","kamwe","n","4","html-keyboard-response","85","v","mkboa","false","","",""
"1167.8000000715256","","","","","4","html-slider-response","86","","","","2","",""
"1960","cat","neyemba,baki,paghukom,akili","paghukom","j","4","html-keyboard-response","87","v","baki","false","","",""
"1936.3999999761581","","","","","4","html-slider-response","88","","","","2","",""
"3061","pudding","abug,mpishi,aibu,iring","aibu","j","4","html-keyboard-response","89","j","aibu","true","","",""
"2253.100000023842","","","","","4","html-slider-response","90","","","","2","",""
"4193","towel","tembo,funzi,pagpalit,pito","pagpalit","j","4","html-keyboard-response","91","j","pagpalit","true","","",""
"1466.0999999046326","","","","","4","html-slider-response","92","","","","2","",""
"3664","bucket","baga,kiatu,ijayo,init","kiatu","v","4","html-keyboard-response","93","n","init","false","","",""
"1209.2999999523163","","","","","4","html-slider-response","94","","","","2","",""
"4173","wheel","punda,tawo,bafuni,baadaye","bafuni","j","4","html-keyboard-response","95","j","bafuni","true","","",""
"1570.5","","","","","4","html-slider-response","96","","","","2","",""
"2383","ladder","pangalan,mashua,mwanga,kamba","pangalan","f","4","html-keyboard-response","97","f","pangalan","true","","",""
"1742","","","","","4","html-slider-response","98","","","","4","",""
"3550","marker","mapafu,maji,salita,atay","maji","v","4","html-keyboard-response","99","n","atay","false","","",""
"1599","","","","","4","html-slider-response","100","","","","2","",""
"4128","tomato","mvua,chupi,chupa,takatak","mvua","f","4","html-keyboard-response","101","v","chupi","false","","",""
"1992.1000000238419","","","","","4","html-slider-response","102","","","","2","",""
"2647","door","tena,soko,surali,nyota","surali","j","4","html-keyboard-response","103","n","nyota","false","","",""
"1992.9000000953674","","","","","4","html-slider-response","104","","","","2","",""
"4055","bonfire","mwezi,mfuko,goti,kusanya","goti","j","4","html-keyboard-response","105","j","goti","true","","",""
"1155","","","","","4","html-slider-response","106","","","","4","",""
"3467","mirror","rangi,kanding,furaha,sulagma","sulagma","n","4","html-keyboard-response","107","n","sulagma","true","","",""
"1545.6999999284744","","","","","4","html-slider-response","108","","","","4","",""
"3853","giraffe","mahitabo,daraja,jumatu,hangyo","mahitabo","f","4","html-keyboard-response","109","n","hangyo","false","","",""
"1524.3999999761581","","","","","4","html-slider-response","110","","","","2","",""
"4108","tissue","ugomvi,lamigas,kisiwa,katika","ugomvi","f","4","html-keyboard-response","111","j","kisiwa","false","","",""
"1727","","","","","4","html-slider-response","112","","","","2","",""
"7657","snake","jansa,pagtukod,karon,mvringo","pagtukod","v","4","html-keyboard-response","113","v","pagtukod","true","","",""
"2008","","","","","4","html-slider-response","114","","","","2","",""
"4528","finger","simu,moyo,sufuria,lima","moyo","v","4","html-keyboard-response","115","f","simu","false","","",""
"1416.7999999523163","","","","","4","html-slider-response","116","","","","2","",""
"2900","train","itik,sayari,dakika,mungu","sayari","v","4","html-keyboard-response","117","j","dakika","false","","",""
"2180.7999999523163","","","","","4","html-slider-response","118","","","","2","",""
"13741","candle","gabi,geza,farasi,kupanda","geza","v","4","html-keyboard-response","119","v","geza","true","","",""
"2070.600000023842","","","","","4","html-slider-response","120","","","","2","",""
"3438","book","kuhesa,mali,picha,mara","mali","v","4","html-keyboard-response","121","v","mali","true","","",""
"1441","","","","","4","html-slider-response","122","","","","2","",""
"6823","elephant","petye,pagduol,suka,kito","kito","n","4","html-keyboard-response","123","n","kito","true","","",""
"2210","","","","","4","html-slider-response","124","","","","2","",""
"9242","sheet","juuya,watu,kamantis,bililhon","bililhon","n","4","html-keyboard-response","125","v","watu","false","","",""
"1893.8999999761581","","","","","4","html-slider-response","126","","","","2","",""
"3053","banana","kasamok,kazi,hagdan,twai","kazi","v","4","html-keyboard-response","127","f","kasamok","false","","",""
"1815","","","","","4","html-slider-response","128","","","","2","",""
"3058","perfume","bino,katuyoan,sungura,ndogo","katuyoan","v","4","html-keyboard-response","129","v","katuyoan","true","","",""
"1350.6000000238419","","","","","4","html-slider-response","130","","","","2","",""
"2656","bank","silingan,kudhibi,tualya,ofisi","silingan","f","4","html-keyboard-response","131","n","ofisi","false","","",""
"1375.7999999523163","","","","","4","html-slider-response","132","","","","2","",""
"15101","tooth","kijiko,kabalaka,uadui,pahiyum","kabalaka","v","4","html-keyboard-response","133","j","uadui","false","","",""
"1502.7000000476837","","","","","4","html-slider-response","134","","","","2","",""
"5087","hill","kushoto,kukimba,matumbo,sweta","matumbo","j","4","html-keyboard-response","135","j","matumbo","true","","",""
"1231.9000000953674","","","","","4","html-slider-response","136","","","","2","",""
"2306","music","baiski,mraba,mageho,tumbo","baiski","f","4","html-keyboard-response","137","f","baiski","true","","",""
"1974.6000000238419","","","","","4","html-slider-response","138","","","","4","",""
"2681","pants","pintal,haki,chuki,hari","haki","v","4","html-keyboard-response","139","n","hari","false","","",""
"2842.9000000953674","","","","","4","html-slider-response","140","","","","4","",""
"2986","donkey","elfu,bloke,lalake,rombus","elfu","f","4","html-keyboard-response","141","f","elfu","true","","",""
"2296.7000000476837","","","","","4","html-slider-response","142","","","","4","",""
"5790","bridge","daima,ngono,sahani,panya","sahani","j","4","html-keyboard-response","143","j","sahani","true","","",""
"5750.100000023842","","","","","4","html-slider-response","144","","","","4","",""
"3873","list","alizeti,wingu,kuzama,kaso","wingu","v","4","html-keyboard-response","145","f","alizeti","false","","",""
"1950.5","","","","","4","html-slider-response","146","","","","2","",""
"5072","box","adui,kuacha,rafiki,kitande","adui","f","4","html-keyboard-response","147","n","kitande","false","","",""
"1404.2999999523163","","","","","4","html-slider-response","148","","","","2","",""
"1904","wolf","kaburi,ndizi,lugha,mchuzi","lugha","j","4","html-keyboard-response","149","j","lugha","true","","",""
"1581.2000000476837","","","","","4","html-slider-response","150","","","","4","",""
"3148","poster","madungog,nchi,fedha,kasuko","madungog","f","4","html-keyboard-response","151","n","kasuko","false","","",""
"1685.8999999761581","","","","","4","html-slider-response","152","","","","2","",""
"4617","eel","msumari,ishara,kunywa,kabuang","msumari","f","4","html-keyboard-response","153","f","msumari","true","","",""
"1492.0999999046326","","","","","4","html-slider-response","154","","","","4","",""
"3253","scissors","duga,mtawa,suga,tanuri","tanuri","n","4","html-keyboard-response","155","n","tanuri","true","","",""
"1229.6999999284744","","","","","4","html-slider-response","156","","","","2","",""
"3408","shop","nopya,samaki,kerida,ndezu","samaki","v","4","html-keyboard-response","157","v","samaki","true","","",""
"1283.7000000476837","","","","","4","html-slider-response","158","","","","4","",""
"2799","flower","bega,tamasha,lobo,usiku","bega","f","4","html-keyboard-response","159","f","bega","true","","",""
"1703.2000000476837","","","","","4","html-slider-response","160","","","","4","",""
"4036","picture","silya,chaki,kubwa,asin","kubwa","j","4","html-keyboard-response","161","n","asin","false","","",""
"1647.7999999523163","","","","","4","html-slider-response","162","","","","2","",""
"3566","spoon","betri,nzuri,ngazi,pagsulod","pagsulod","n","4","html-keyboard-response","163","j","ngazi","false","","",""
"1954.7000000476837","","","","","4","html-slider-response","164","","","","2","",""
"4140","fork","baboy,paghago,mgonjwa,gorisi","mgonjwa","j","4","html-keyboard-response","165","f","baboy","false","","",""
"1347.8000000715256","","","","","4","html-slider-response","166","","","","4","",""
"3728","shoe","nyeusi,hatua,kama,uyoga","uyoga","n","4","html-keyboard-response","167","v","hatua","false","","",""
"1400","","","","","4","html-slider-response","168","","","","4","",""
"2368","human","bado,tinapay,kikapu,punguza","tinapay","v","4","html-keyboard-response","169","v","tinapay","true","","",""
"1346.3999999761581","","","","","4","html-slider-response","170","","","","4","",""
"3836","cup","dagat,shimoni,matumai,jeraha","matumai","j","4","html-keyboard-response","171","j","matumai","true","","",""
"1020.3000000715256","","","","","4","html-slider-response","172","","","","4","",""
"4285","hammer","mekno,napakyas,kitovu,layag","napakyas","v","4","html-keyboard-response","173","f","mekno","false","","",""
"1038.1000000238419","","","","","4","html-slider-response","174","","","","2","",""
"5878","body","nyundu,tindashan,jibini,kununa","tindashan","v","4","html-keyboard-response","175","v","tindashan","true","","",""
"2519.7999999523163","","","","","4","html-slider-response","176","","","","2","",""
"2482","page","wakala,ishiri,wimbo,skina","wimbo","j","4","html-keyboard-response","177","j","wimbo","true","","",""
"1049.7000000476837","","","","","4","html-slider-response","178","","","","2","",""
"2455","triangle","kihozi,bentaha,kasadpan,liog","kasadpan","j","4","html-keyboard-response","179","j","kasadpan","true","","",""
"1570.2999999523163","","","","","4","html-slider-response","180","","","","4","",""
"1717","berry","abogado,nogozi,kofia,kinywa","kofia","j","4","html-keyboard-response","181","j","kofia","true","","",""
"1974.0999999046326","","","","","4","html-slider-response","182","","","","4","",""
"5698","knee","duka,mvuke,kubale,bili","duka","f","4","html-keyboard-response","183","n","bili","false","","",""
"1242.3999999761581","","","","","4","html-slider-response","184","","","","2","",""
"2921","picture","kubwa,silya,chaki,asin","kubwa","f","5","html-keyboard-response","188","n","asin","false","","",""
"1520.2000000476837","","","","","5","html-slider-response","189","","","","2","",""
"3104","elephant","petye,kito,pagduol,suka","kito","v","5","html-keyboard-response","190","v","kito","true","","",""
"1356.5","","","","","5","html-slider-response","191","","","","2","",""
"1655","office","hazini,yatima,kuna,leso","leso","n","5","html-keyboard-response","192","n","leso","true","","",""
"1513.1999999284744","","","","","5","html-slider-response","193","","","","4","",""
"4049","perfume","bino,sungura,ndogo,katuyoan","katuyoan","n","5","html-keyboard-response","194","n","katuyoan","true","","",""
"1434.2000000476837","","","","","5","html-slider-response","195","","","","2","",""
"1526","salmon","mzungu,seri,baharia,sensilyo","sensilyo","n","5","html-keyboard-response","196","n","sensilyo","true","","",""
"1182.5999999046326","","","","","5","html-slider-response","197","","","","4","",""
"3062","dog","lubi,washia,bahari,kalamu","bahari","j","5","html-keyboard-response","198","j","bahari","true","","",""
"1820.2000000476837","","","","","5","html-slider-response","199","","","","4","",""
"3665","wheel","punda,bafuni,tawo,baadaye","bafuni","v","5","html-keyboard-response","200","j","tawo","false","","",""
"1408.8999999761581","","","","","5","html-slider-response","201","","","","4","",""
"2768","cat","neyemba,paghukom,baki,akili","paghukom","v","5","html-keyboard-response","202","j","baki","false","","",""
"2340.4000000953674","","","","","5","html-slider-response","203","","","","2","",""
"2951","curtain","lisud,mchanga,bulwawan,chubani","mchanga","v","5","html-keyboard-response","204","n","chubani","false","","",""
"994.8000000715256","","","","","5","html-slider-response","205","","","","2","",""
"4239","flower","tamasha,lobo,bega,usiku","bega","j","5","html-keyboard-response","206","j","bega","true","","",""
"2202.5","","","","","5","html-slider-response","207","","","","4","",""
"5542","number","shule,mundamo,kengele,choori","mundamo","v","5","html-keyboard-response","208","n","choori","false","","",""
"1146","","","","","5","html-slider-response","209","","","","2","",""
"3189","banana","kasamok,hagdan,kazi,twai","kazi","j","5","html-keyboard-response","210","j","kazi","true","","",""
"1898.8999999761581","","","","","5","html-slider-response","211","","","","4","",""
"2218","magazine","gundi,kiti,mchawi,bahandi","kiti","v","5","html-keyboard-response","212","v","kiti","true","","",""
"1154.4000000953674","","","","","5","html-slider-response","213","","","","4","",""
"2290","donkey","bloke,lalake,elfu,rombus","elfu","j","5","html-keyboard-response","214","j","elfu","true","","",""
"1612.2999999523163","","","","","5","html-slider-response","215","","","","5","",""
"2145","mosquito","isda,martilyo,taras,gutom","martilyo","v","5","html-keyboard-response","216","v","martilyo","true","","",""
"1475.2000000476837","","","","","5","html-slider-response","217","","","","5","",""
"3002","shoe","nyeusi,hatua,uyoga,kama","uyoga","j","5","html-keyboard-response","218","v","hatua","false","","",""
"1276.8999999761581","","","","","5","html-slider-response","219","","","","2","",""
"3001","stone","wingi,ulimwengu,mkasi,asili","wingi","f","5","html-keyboard-response","220","f","wingi","true","","",""
"1313.2000000476837","","","","","5","html-slider-response","221","","","","4","",""
"3565","tomato","mvua,chupi,chupa,takatak","mvua","f","5","html-keyboard-response","222","f","mvua","true","","",""
"1814.7000000476837","","","","","5","html-slider-response","223","","","","2","",""
"2891","ceiling","kugita,kawaida,rayna,maua","maua","n","5","html-keyboard-response","224","n","maua","true","","",""
"1450.2000000476837","","","","","5","html-slider-response","225","","","","4","",""
"2612","mirror","sulagma,rangi,kanding,furaha","sulagma","f","5","html-keyboard-response","226","f","sulagma","true","","",""
"1165.2999999523163","","","","","5","html-slider-response","227","","","","4","",""
"2174","coffin","barua,kioo,tubag,hulma","kioo","v","5","html-keyboard-response","228","v","kioo","true","","",""
"1439.5999999046326","","","","","5","html-slider-response","229","","","","5","",""
"4354","spoon","betri,nzuri,ngazi,pagsulod","pagsulod","n","5","html-keyboard-response","230","j","ngazi","false","","",""
"1103.5","","","","","5","html-slider-response","231","","","","2","",""
"3660","marker","mapafu,salita,maji,atay","maji","j","5","html-keyboard-response","232","n","atay","false","","",""
"1139.9000000953674","","","","","5","html-slider-response","233","","","","2","",""
"5305","list","alizeti,wingu,kuzama,kaso","wingu","v","5","html-keyboard-response","234","v","wingu","true","","",""
"1327.8999999761581","","","","","5","html-slider-response","235","","","","2","",""
"5531","hill","kushoto,kukimba,matumbo,sweta","matumbo","j","5","html-keyboard-response","236","j","matumbo","true","","",""
"1441","","","","","5","html-slider-response","237","","","","2","",""
"2511","shelf","bungtod,pamahaw,kadaot,awit","pamahaw","v","5","html-keyboard-response","238","n","awit","false","","",""
"1027.7000000476837","","","","","5","html-slider-response","239","","","","2","",""
"1769","bucket","baga,kiatu,ijayo,init","kiatu","v","5","html-keyboard-response","240","n","init","false","","",""
"1335.8000000715256","","","","","5","html-slider-response","241","","","","2","",""
"2381","ladder","mashua,pangalan,mwanga,kamba","pangalan","v","5","html-keyboard-response","242","v","pangalan","true","","",""
"992","","","","","5","html-slider-response","243","","","","4","",""
"2093","human","bado,kikapu,tinapay,punguza","tinapay","j","5","html-keyboard-response","244","j","tinapay","true","","",""
"1695.6999999284744","","","","","5","html-slider-response","245","","","","4","",""
"4713","tissue","lamigas,kisiwa,ugomvi,katika","ugomvi","j","5","html-keyboard-response","246","v","kisiwa","false","","",""
"2027.8999999761581","","","","","5","html-slider-response","247","","","","2","",""
"4454","finger","simu,sufuria,lima,moyo","moyo","n","5","html-keyboard-response","248","v","sufuria","false","","",""
"1986","","","","","5","html-slider-response","249","","","","2","",""
"3788","cave","ganti,maisha,kesho,nyundo","kesho","j","5","html-keyboard-response","250","j","kesho","true","","",""
"1099.5","","","","","5","html-slider-response","251","","","","4","",""
"2783","rose","singizi,mwanake,amani,paghalad","paghalad","n","5","html-keyboard-response","252","n","paghalad","true","","",""
"1539.1000000238419","","","","","5","html-slider-response","253","","","","2","",""
"5405","lamp","daub,afya,bilaska,mbolea","afya","v","5","html-keyboard-response","254","f","daub","false","","",""
"1046.1000000238419","","","","","5","html-slider-response","255","","","","2","",""
"5094","shoulder","mkuu,kelele,ndaniya,guruwe","mkuu","f","5","html-keyboard-response","256","f","mkuu","true","","",""
"1193.6999999284744","","","","","5","html-slider-response","257","","","","2","",""
"1836","sock","mamba,ndoora,kimysa,mtirka","mamba","f","5","html-keyboard-response","258","f","mamba","true","","",""
"1693.8999999761581","","","","","5","html-slider-response","259","","","","5","",""
"2312","mother","kahawa,mbuzi,babaye,jokofu","babaye","j","5","html-keyboard-response","260","j","babaye","true","","",""
"1808","","","","","5","html-slider-response","261","","","","2","",""
"3263","key","miaka,goma,chombo,ahos","chombo","j","5","html-keyboard-response","262","j","chombo","true","","",""
"2212.7999999523163","","","","","5","html-slider-response","263","","","","2","",""
"2552","squirrel","mahugaw,ukweli,hofu,kichwa","hofu","j","5","html-keyboard-response","264","n","kichwa","false","","",""
"1457.3000000715256","","","","","5","html-slider-response","265","","","","2","",""
"2313","nose","gubat,sehemu,kopa,kidole","sehemu","v","5","html-keyboard-response","266","v","sehemu","true","","",""
"2288.399999976158","","","","","5","html-slider-response","267","","","","4","",""
"4443","book","kuhesa,picha,mara,mali","mali","n","5","html-keyboard-response","268","j","mara","false","","",""
"1313.8999999761581","","","","","5","html-slider-response","269","","","","2","",""
"1938","bank","kudhibi,tualya,silingan,ofisi","silingan","j","5","html-keyboard-response","270","n","ofisi","false","","",""
"1822.8999999761581","","","","","5","html-slider-response","271","","","","4","",""
"3107","cup","matumai,dagat,shimoni,jeraha","matumai","f","5","html-keyboard-response","272","f","matumai","true","","",""
"1322.5","","","","","5","html-slider-response","273","","","","4","",""
"1925","boat","hamsi,pombe,agalon,kitanda","agalon","j","5","html-keyboard-response","274","f","hamsi","false","","",""
"1724.2999999523163","","","","","5","html-slider-response","275","","","","4","",""
"3370","letter","filimbi,chuma,uhuru,kifua","kifua","n","5","html-keyboard-response","276","n","kifua","true","","",""
"1148.8999999761581","","","","","5","html-slider-response","277","","","","2","",""
"4375","puppet","mazishi,napulo,lamok,godoro","mazishi","f","5","html-keyboard-response","278","v","napulo","false","","",""
"1528.3999999761581","","","","","5","html-slider-response","279","","","","4","",""
"2173","apple","kisu,ukame,estante,edad","kisu","f","5","html-keyboard-response","280","f","kisu","true","","",""
"1192.1000000238419","","","","","5","html-slider-response","281","","","","4","",""
"4460","tooth","kabalaka,kijiko,uadui,pahiyum","kabalaka","f","5","html-keyboard-response","282","f","kabalaka","true","","",""
"899.2000000476837","","","","","5","html-slider-response","283","","","","2","",""
"1756","shop","nopya,kerida,ndezu,samaki","samaki","n","5","html-keyboard-response","284","n","samaki","true","","",""
"1178.8000000715256","","","","","5","html-slider-response","285","","","","4","",""
"1440","sun","bendi,luha,uongo,basi","basi","n","5","html-keyboard-response","286","n","basi","true","","",""
"1080.2000000476837","","","","","5","html-slider-response","287","","","","4","",""
"2804","knee","mvuke,kubale,bili,duka","duka","n","5","html-keyboard-response","288","n","duka","true","","",""
"1098.3999999761581","","","","","5","html-slider-response","289","","","","4","",""
"2206","fork","baboy,mgonjwa,paghago,gorisi","mgonjwa","v","5","html-keyboard-response","290","f","baboy","false","","",""
"979.3999999761581","","","","","5","html-slider-response","291","","","","2","",""
"4869","wolf","kaburi,lugha,ndizi,mchuzi","lugha","v","5","html-keyboard-response","292","v","lugha","true","","",""
"1748.8000000715256","","","","","5","html-slider-response","293","","","","4","",""
"3452","sheet","bililhon,juuya,watu,kamantis","bililhon","f","5","html-keyboard-response","294","f","bililhon","true","","",""
"1475.5999999046326","","","","","5","html-slider-response","295","","","","2","",""
"5750","giraffe","daraja,jumatu,hangyo,mahitabo","mahitabo","n","5","html-keyboard-response","296","v","jumatu","false","","",""
"1200.8999999761581","","","","","5","html-slider-response","297","","","","2","",""
"1817","bread","kaili,dizeli,dari,bugas","dari","j","5","html-keyboard-response","298","j","dari","true","","",""
"1081","","","","","5","html-slider-response","299","","","","4","",""
"3031","box","kuacha,rafiki,kitande,adui","adui","n","5","html-keyboard-response","300","n","adui","true","","",""
"1837.4000000953674","","","","","5","html-slider-response","301","","","","2","",""
"3109","cop","bustani,mechezo,jikoni,bakus","mechezo","v","5","html-keyboard-response","302","v","mechezo","true","","",""
"1041","","","","","5","html-slider-response","303","","","","4","",""
"2645","fish","bala,baho,imani,buli","buli","n","5","html-keyboard-response","304","f","bala","false","","",""
"901.5","","","","","5","html-slider-response","305","","","","4","",""
"3214","door","tena,surali,soko,nyota","surali","v","5","html-keyboard-response","306","f","tena","false","","",""
"1345.2000000476837","","","","","5","html-slider-response","307","","","","2","",""
"2916","woman","bandari,bituin,kovuli,pagtabon","pagtabon","n","5","html-keyboard-response","308","n","pagtabon","true","","",""
"1590.1000000238419","","","","","5","html-slider-response","309","","","","2","",""
"1620","clock","kartasi,mbwa,abang,osha","mbwa","v","5","html-keyboard-response","310","n","osha","false","","",""
"1622.2000000476837","","","","","5","html-slider-response","311","","","","2","",""
"1843","berry","kofia,abogado,nogozi,kinywa","kofia","f","5","html-keyboard-response","312","f","kofia","true","","",""
"1824.2999999523163","","","","","5","html-slider-response","313","","","","4","",""
"1752","towel","tembo,pagpalit,funzi,pito","pagpalit","v","5","html-keyboard-response","314","v","pagpalit","true","","",""
"1961","","","","","5","html-slider-response","315","","","","2","",""
"3309","pudding","abug,mpishi,aibu,iring","aibu","j","5","html-keyboard-response","316","j","aibu","true","","",""
"910.8999999761581","","","","","5","html-slider-response","317","","","","2","",""
"2538","park","tambok,bunifu,pwani,ihalas","bunifu","v","5","html-keyboard-response","318","v","bunifu","true","","",""
"1259.3000000715256","","","","","5","html-slider-response","319","","","","4","",""
"2840","body","nyundu,jibini,kununa,tindashan","tindashan","n","5","html-keyboard-response","320","n","tindashan","true","","",""
"1524.2999999523163","","","","","5","html-slider-response","321","","","","2","",""
"2625","olive","bata,siagi,jiwe,welder","jiwe","j","5","html-keyboard-response","322","j","jiwe","true","","",""
"1404","","","","","5","html-slider-response","323","","","","4","",""
"2911","poster","nchi,fedha,madungog,kasuko","madungog","j","5","html-keyboard-response","324","n","kasuko","false","","",""
"1755.2000000476837","","","","","5","html-slider-response","325","","","","2","",""
"2935","hammer","napakyas,mekno,kitovu,layag","napakyas","f","5","html-keyboard-response","326","f","napakyas","true","","",""
"1284.6000000238419","","","","","5","html-slider-response","327","","","","2","",""
"4526","train","itik,dakika,sayari,mungu","sayari","j","5","html-keyboard-response","328","n","mungu","false","","",""
"2049.3000000715256","","","","","5","html-slider-response","329","","","","2","",""
"4157","cigar","ndugu,kuta,mlango,adhabu","adhabu","n","5","html-keyboard-response","330","j","mlango","false","","",""
"1741.6000000238419","","","","","5","html-slider-response","331","","","","2","",""
"3675","spider","bunyag,kamwe,mkboa,atop","kamwe","v","5","html-keyboard-response","332","j","mkboa","false","","",""
"1482","","","","","5","html-slider-response","333","","","","2","",""
"3642","notebook","msitu,kemia,kila,mdudu","kemia","v","5","html-keyboard-response","334","f","msitu","false","","",""
"1346.6000000238419","","","","","5","html-slider-response","335","","","","2","",""
"1997","candle","geza,gabi,farasi,kupanda","geza","f","5","html-keyboard-response","336","f","geza","true","","",""
"1768.2999999523163","","","","","5","html-slider-response","337","","","","4","",""
"1999","column","ufagio,pundok,dila,pala","ufagio","f","5","html-keyboard-response","338","j","dila","false","","",""
"1155.1000000238419","","","","","5","html-slider-response","339","","","","4","",""
"3936","basket","kumbuka,utepe,kumba,hasira","kumba","j","5","html-keyboard-response","340","j","kumba","true","","",""
"1002.7999999523163","","","","","5","html-slider-response","341","","","","2","",""
"2878","page","wakala,ishiri,skina,wimbo","wimbo","n","5","html-keyboard-response","342","n","wimbo","true","","",""
"1044.8999999761581","","","","","5","html-slider-response","343","","","","4","",""
"2001","bridge","daima,sahani,ngono,panya","sahani","v","5","html-keyboard-response","344","v","sahani","true","","",""
"1230.1000000238419","","","","","5","html-slider-response","345","","","","4","",""
"4004","window","nanga,kweli,kujenga,umaga","kweli","v","5","html-keyboard-response","346","f","nanga","false","","",""
"1495.1999999284744","","","","","5","html-slider-response","347","","","","2","",""
"6085","snake","jansa,karon,pagtukod,mvringo","pagtukod","j","5","html-keyboard-response","348","j","pagtukod","true","","",""
"1512.1999999284744","","","","","5","html-slider-response","349","","","","2","",""
"6144","flag","trekta,ndege,mkate,kawa","trekta","f","5","html-keyboard-response","350","v","ndege","false","","",""
"1258.6000000238419","","","","","5","html-slider-response","351","","","","2","",""
"2620","bed","mapintas,kalipay,haraka,starehe","mapintas","f","5","html-keyboard-response","352","v","kalipay","false","","",""
"1500","","","","","5","html-slider-response","353","","","","2","",""
"2502","music","mraba,mageho,baiski,tumbo","baiski","j","5","html-keyboard-response","354","j","baiski","true","","",""
"1525.7999999523163","","","","","5","html-slider-response","355","","","","4","",""
"4395","gift","baba,pagtawag,nyange,baso","pagtawag","v","5","html-keyboard-response","356","f","baba","false","","",""
"2674.7999999523163","","","","","5","html-slider-response","357","","","","2","",""
"3569","bonfire","mwezi,goti,mfuko,kusanya","goti","v","5","html-keyboard-response","358","v","goti","true","","",""
"1059.6999999284744","","","","","5","html-slider-response","359","","","","4","",""
"2838","scissors","duga,mtawa,suga,tanuri","tanuri","n","5","html-keyboard-response","360","n","tanuri","true","","",""
"1165.2000000476837","","","","","5","html-slider-response","361","","","","2","",""
"2427","eel","ishara,msumari,kunywa,kabuang","msumari","v","5","html-keyboard-response","362","v","msumari","true","","",""
"1163.5999999046326","","","","","5","html-slider-response","363","","","","4","",""
"1940","pants","pintal,chuki,hari,haki","haki","n","5","html-keyboard-response","364","n","haki","true","","",""
"1179.8999999761581","","","","","5","html-slider-response","365","","","","4","",""
"4091","triangle","kihozi,kasadpan,bentaha,liog","kasadpan","v","5","html-keyboard-response","366","v","kasadpan","true","","",""
"2210","","","","","5","html-slider-response","367","","","","4","",""
"7669.399999976158","","","","","6","html-slider-response","369","","","","","1",""
"11413","","","","","6","html-keyboard-response","370","","","","","","false"
