"rt","en_word","options","swa_word","correct_answer","phase","trial_type","trial_index","input_answer","input_word","accuracy","certainty","swahili_knowledge","previous_subject"
"5140","sun","bendi,luha,basi,uongo","basi","j","4","html-keyboard-response","5","v","luha","false","","",""
"2700.0999999940395","","","","","4","html-slider-response","6","","","","1","",""
"3835","basket","kumbuka,kumba,utepe,hasira","kumba","v","4","html-keyboard-response","7","v","kumba","true","","",""
"1500.6000000238419","","","","","4","html-slider-response","8","","","","1","",""
"2907","curtain","lisud,bulwawan,chubani,mchanga","mchanga","n","4","html-keyboard-response","9","v","bulwawan","false","","",""
"1465.4000000059605","","","","","4","html-slider-response","10","","","","1","",""
"3331","park","bunifu,tambok,pwani,ihalas","bunifu","f","4","html-keyboard-response","11","f","bunifu","true","","",""
"1423.0999999940395","","","","","4","html-slider-response","12","","","","1","",""
"5022","nose","gubat,kopa,kidole,sehemu","sehemu","n","4","html-keyboard-response","13","n","sehemu","true","","",""
"1388.800000011921","","","","","4","html-slider-response","14","","","","1","",""
"4125","window","kweli,nanga,kujenga,umaga","kweli","f","4","html-keyboard-response","15","f","kweli","true","","",""
"1765.5","","","","","4","html-slider-response","16","","","","2","",""
"2084","cave","kesho,ganti,maisha,nyundo","kesho","f","4","html-keyboard-response","17","f","kesho","true","","",""
"1593.7000000178814","","","","","4","html-slider-response","18","","","","4","",""
"13993","woman","bandari,bituin,pagtabon,kovuli","pagtabon","j","4","html-keyboard-response","19","j","pagtabon","true","","",""
"2098.7000000178814","","","","","4","html-slider-response","20","","","","2","",""
"3593","bed","kalipay,haraka,starehe,mapintas","mapintas","n","4","html-keyboard-response","21","n","mapintas","true","","",""
"1449.7999999821186","","","","","4","html-slider-response","22","","","","1","",""
"4728","column","pundok,dila,pala,ufagio","ufagio","n","4","html-keyboard-response","23","f","pundok","false","","",""
"1732.7000000178814","","","","","4","html-slider-response","24","","","","1","",""
"2794","fish","bala,buli,baho,imani","buli","v","4","html-keyboard-response","25","v","buli","true","","",""
"1890.7000000178814","","","","","4","html-slider-response","26","","","","4","",""
"4942","boat","hamsi,agalon,pombe,kitanda","agalon","v","4","html-keyboard-response","27","n","kitanda","false","","",""
"1699.300000011921","","","","","4","html-slider-response","28","","","","1","",""
"3427","cop","bustani,jikoni,bakus,mechezo","mechezo","n","4","html-keyboard-response","29","n","mechezo","true","","",""
"1711.800000011921","","","","","4","html-slider-response","30","","","","4","",""
"4779","shoulder","kelele,ndaniya,guruwe,mkuu","mkuu","n","4","html-keyboard-response","31","v","ndaniya","false","","",""
"1859","","","","","4","html-slider-response","32","","","","1","",""
"3105","magazine","gundi,mchawi,kiti,bahandi","kiti","j","4","html-keyboard-response","33","j","kiti","true","","",""
"1292.7000000178814","","","","","4","html-slider-response","34","","","","4","",""
"3744","gift","baba,pagtawag,nyange,baso","pagtawag","v","4","html-keyboard-response","35","n","baso","false","","",""
"1565.7999999821186","","","","","4","html-slider-response","36","","","","1","",""
"3886","clock","mbwa,kartasi,abang,osha","mbwa","f","4","html-keyboard-response","37","v","kartasi","false","","",""
"1970.800000011921","","","","","4","html-slider-response","38","","","","1","",""
"2887","squirrel","mahugaw,ukweli,kichwa,hofu","hofu","n","4","html-keyboard-response","39","n","hofu","true","","",""
"1622.7000000178814","","","","","4","html-slider-response","40","","","","4","",""
"5184","key","miaka,chombo,goma,ahos","chombo","v","4","html-keyboard-response","41","j","goma","false","","",""
"1392.5","","","","","4","html-slider-response","42","","","","1","",""
"2385","salmon","mzungu,seri,baharia,sensilyo","sensilyo","n","4","html-keyboard-response","43","n","sensilyo","true","","",""
"1323.7000000178814","","","","","4","html-slider-response","44","","","","4","",""
"2511","puppet","napulo,lamok,mazishi,godoro","mazishi","j","4","html-keyboard-response","45","v","lamok","false","","",""
"1557.199999988079","","","","","4","html-slider-response","46","","","","1","",""
"3509","letter","filimbi,kifua,chuma,uhuru","kifua","v","4","html-keyboard-response","47","n","uhuru","false","","",""
"1575.300000011921","","","","","4","html-slider-response","48","","","","1","",""
"3221","flag","ndege,trekta,mkate,kawa","trekta","v","4","html-keyboard-response","49","n","kawa","false","","",""
"1425.0999999940395","","","","","4","html-slider-response","50","","","","1","",""
"3342","mother","kahawa,babaye,mbuzi,jokofu","babaye","v","4","html-keyboard-response","51","v","babaye","true","","",""
"2278.9000000059605","","","","","4","html-slider-response","52","","","","4","",""
"6990","ceiling","kugita,kawaida,maua,rayna","maua","j","4","html-keyboard-response","53","n","rayna","false","","",""
"1357.800000011921","","","","","4","html-slider-response","54","","","","2","",""
"3856","stone","wingi,ulimwengu,mkasi,asili","wingi","f","4","html-keyboard-response","55","j","mkasi","false","","",""
"1448.300000011921","","","","","4","html-slider-response","56","","","","1","",""
"4788","sock","mamba,ndoora,kimysa,mtirka","mamba","f","4","html-keyboard-response","57","f","mamba","true","","",""
"1480.0999999940395","","","","","4","html-slider-response","58","","","","2","",""
"5083","rose","singizi,mwanake,amani,paghalad","paghalad","n","4","html-keyboard-response","59","n","paghalad","true","","",""
"1774.5999999940395","","","","","4","html-slider-response","60","","","","1","",""
"4016","office","hazini,leso,yatima,kuna","leso","v","4","html-keyboard-response","61","n","kuna","false","","",""
"1609.5","","","","","4","html-slider-response","62","","","","1","",""
"2403","number","shule,kengele,choori,mundamo","mundamo","n","4","html-keyboard-response","63","n","mundamo","true","","",""
"1679.199999988079","","","","","4","html-slider-response","64","","","","4","",""
"4684","lamp","daub,bilaska,afya,mbolea","afya","j","4","html-keyboard-response","65","v","bilaska","false","","",""
"2294","","","","","4","html-slider-response","66","","","","2","",""
"4893","dog","lubi,washia,bahari,kalamu","bahari","j","4","html-keyboard-response","67","j","bahari","true","","",""
"2304.4000000059605","","","","","4","html-slider-response","68","","","","1","",""
"2580","mosquito","isda,martilyo,taras,gutom","martilyo","v","4","html-keyboard-response","69","v","martilyo","true","","",""
"1504.5999999940395","","","","","4","html-slider-response","70","","","","4","",""
"2847","notebook","kemia,msitu,kila,mdudu","kemia","f","4","html-keyboard-response","71","j","kila","false","","",""
"2485.800000011921","","","","","4","html-slider-response","72","","","","3","",""
"3238","apple","ukame,estante,kisu,edad","kisu","j","4","html-keyboard-response","73","j","kisu","true","","",""
"1324.5","","","","","4","html-slider-response","74","","","","1","",""
"4071","cigar","ndugu,kuta,mlango,adhabu","adhabu","n","4","html-keyboard-response","75","j","mlango","false","","",""
"1356.0999999940395","","","","","4","html-slider-response","76","","","","1","",""
"2687","coffin","kioo,barua,tubag,hulma","kioo","f","4","html-keyboard-response","77","f","kioo","true","","",""
"1606.4000000059605","","","","","4","html-slider-response","78","","","","5","",""
"3134","shelf","bungtod,kadaot,pamahaw,awit","pamahaw","j","4","html-keyboard-response","79","f","bungtod","false","","",""
"1931.9000000059605","","","","","4","html-slider-response","80","","","","1","",""
"3858","bread","kaili,dizeli,bugas,dari","dari","n","4","html-keyboard-response","81","n","dari","true","","",""
"1808","","","","","4","html-slider-response","82","","","","2","",""
"1936","olive","bata,siagi,jiwe,welder","jiwe","j","4","html-keyboard-response","83","j","jiwe","true","","",""
"1427.2000000178814","","","","","4","html-slider-response","84","","","","5","",""
"6369","spider","bunyag,mkboa,atop,kamwe","kamwe","n","4","html-keyboard-response","85","f","bunyag","false","","",""
"1338.9000000059605","","","","","4","html-slider-response","86","","","","2","",""
"3488","cat","paghukom,neyemba,baki,akili","paghukom","f","4","html-keyboard-response","87","j","baki","false","","",""
"1724.300000011921","","","","","4","html-slider-response","88","","","","1","",""
"2621","pudding","abug,aibu,mpishi,iring","aibu","v","4","html-keyboard-response","89","v","aibu","true","","",""
"1120.699999988079","","","","","4","html-slider-response","90","","","","2","",""
"6165","towel","tembo,funzi,pito,pagpalit","pagpalit","n","4","html-keyboard-response","91","f","tembo","false","","",""
"1198.699999988079","","","","","4","html-slider-response","92","","","","1","",""
"3883","bucket","baga,ijayo,init,kiatu","kiatu","n","4","html-keyboard-response","93","n","kiatu","true","","",""
"1697.5999999940395","","","","","4","html-slider-response","94","","","","1","",""
"3352","wheel","bafuni,punda,tawo,baadaye","bafuni","f","4","html-keyboard-response","95","f","bafuni","true","","",""
"1398.699999988079","","","","","4","html-slider-response","96","","","","2","",""
"2285","ladder","pangalan,mashua,mwanga,kamba","pangalan","f","4","html-keyboard-response","97","f","pangalan","true","","",""
"1973.9000000059605","","","","","4","html-slider-response","98","","","","5","",""
"5192","marker","mapafu,salita,maji,atay","maji","j","4","html-keyboard-response","99","v","salita","false","","",""
"1765.9000000059605","","","","","4","html-slider-response","100","","","","1","",""
"4173","tomato","chupi,chupa,mvua,takatak","mvua","j","4","html-keyboard-response","101","v","chupa","false","","",""
"1829.7999999821186","","","","","4","html-slider-response","102","","","","2","",""
"3262","door","tena,soko,nyota,surali","surali","n","4","html-keyboard-response","103","v","soko","false","","",""
"1480.4000000059605","","","","","4","html-slider-response","104","","","","1","",""
"3050","bonfire","mwezi,mfuko,kusanya,goti","goti","n","4","html-keyboard-response","105","n","goti","true","","",""
"2162.5","","","","","4","html-slider-response","106","","","","3","",""
"4464","mirror","rangi,kanding,sulagma,furaha","sulagma","j","4","html-keyboard-response","107","f","rangi","false","","",""
"1460.5999999940395","","","","","4","html-slider-response","108","","","","2","",""
"3816","giraffe","daraja,mahitabo,jumatu,hangyo","mahitabo","v","4","html-keyboard-response","109","v","mahitabo","true","","",""
"1316.199999988079","","","","","4","html-slider-response","110","","","","2","",""
"3087","tissue","ugomvi,lamigas,kisiwa,katika","ugomvi","f","4","html-keyboard-response","111","v","lamigas","false","","",""
"1954","","","","","4","html-slider-response","112","","","","1","",""
"3352","snake","pagtukod,jansa,karon,mvringo","pagtukod","f","4","html-keyboard-response","113","f","pagtukod","true","","",""
"1573.2999999821186","","","","","4","html-slider-response","114","","","","1","",""
"2832","finger","simu,moyo,sufuria,lima","moyo","v","4","html-keyboard-response","115","n","lima","false","","",""
"1320.7999999821186","","","","","4","html-slider-response","116","","","","1","",""
"3700","train","sayari,itik,dakika,mungu","sayari","f","4","html-keyboard-response","117","f","sayari","true","","",""
"1517.9000000059605","","","","","4","html-slider-response","118","","","","1","",""
"2722","candle","gabi,farasi,geza,kupanda","geza","j","4","html-keyboard-response","119","j","geza","true","","",""
"1691.300000011921","","","","","4","html-slider-response","120","","","","4","",""
"6181","book","kuhesa,mali,picha,mara","mali","v","4","html-keyboard-response","121","j","picha","false","","",""
"2000.2999999821186","","","","","4","html-slider-response","122","","","","1","",""
"1791","elephant","kito,petye,pagduol,suka","kito","f","4","html-keyboard-response","123","f","kito","true","","",""
"1307.800000011921","","","","","4","html-slider-response","124","","","","5","",""
"3336","sheet","juuya,bililhon,watu,kamantis","bililhon","v","4","html-keyboard-response","125","v","bililhon","true","","",""
"1077.4000000059605","","","","","4","html-slider-response","126","","","","2","",""
"2791","banana","kasamok,kazi,hagdan,twai","kazi","v","4","html-keyboard-response","127","v","kazi","true","","",""
"1380.300000011921","","","","","4","html-slider-response","128","","","","2","",""
"4554","perfume","katuyoan,bino,sungura,ndogo","katuyoan","f","4","html-keyboard-response","129","f","katuyoan","true","","",""
"1256.2999999821186","","","","","4","html-slider-response","130","","","","1","",""
"4018","bank","kudhibi,silingan,tualya,ofisi","silingan","v","4","html-keyboard-response","131","n","ofisi","false","","",""
"1528.800000011921","","","","","4","html-slider-response","132","","","","1","",""
"3118","tooth","kijiko,kabalaka,uadui,pahiyum","kabalaka","v","4","html-keyboard-response","133","n","pahiyum","false","","",""
"1643.9000000059605","","","","","4","html-slider-response","134","","","","1","",""
"2371","hill","kushoto,matumbo,kukimba,sweta","matumbo","v","4","html-keyboard-response","135","v","matumbo","true","","",""
"1355.6000000238419","","","","","4","html-slider-response","136","","","","4","",""
"2930","music","baiski,mraba,mageho,tumbo","baiski","f","4","html-keyboard-response","137","n","tumbo","false","","",""
"1343.1000000238419","","","","","4","html-slider-response","138","","","","2","",""
"3512","pants","haki,pintal,chuki,hari","haki","f","4","html-keyboard-response","139","n","hari","false","","",""
"1486.0999999940395","","","","","4","html-slider-response","140","","","","1","",""
"1632","donkey","bloke,elfu,lalake,rombus","elfu","v","4","html-keyboard-response","141","v","elfu","true","","",""
"1325.800000011921","","","","","4","html-slider-response","142","","","","4","",""
"5391","bridge","daima,sahani,ngono,panya","sahani","v","4","html-keyboard-response","143","v","sahani","true","","",""
"1497.800000011921","","","","","4","html-slider-response","144","","","","1","",""
"3658","list","alizeti,wingu,kuzama,kaso","wingu","v","4","html-keyboard-response","145","n","kaso","false","","",""
"1485.5","","","","","4","html-slider-response","146","","","","1","",""
"3430","box","adui,kuacha,rafiki,kitande","adui","f","4","html-keyboard-response","147","j","rafiki","false","","",""
"1646.199999988079","","","","","4","html-slider-response","148","","","","2","",""
"2461","wolf","kaburi,ndizi,mchuzi,lugha","lugha","n","4","html-keyboard-response","149","n","lugha","true","","",""
"1559","","","","","4","html-slider-response","150","","","","5","",""
"3267","poster","nchi,madungog,fedha,kasuko","madungog","v","4","html-keyboard-response","151","n","kasuko","false","","",""
"1393.699999988079","","","","","4","html-slider-response","152","","","","1","",""
"5710","eel","msumari,ishara,kunywa,kabuang","msumari","f","4","html-keyboard-response","153","j","kunywa","false","","",""
"1404.2000000178814","","","","","4","html-slider-response","154","","","","1","",""
"2975","scissors","duga,mtawa,tanuri,suga","tanuri","j","4","html-keyboard-response","155","n","suga","false","","",""
"1316.699999988079","","","","","4","html-slider-response","156","","","","1","",""
"3176","shop","nopya,kerida,ndezu,samaki","samaki","n","4","html-keyboard-response","157","n","samaki","true","","",""
"3641.199999988079","","","","","4","html-slider-response","158","","","","4","",""
"2718","flower","tamasha,lobo,usiku,bega","bega","n","4","html-keyboard-response","159","n","bega","true","","",""
"1680.9000000059605","","","","","4","html-slider-response","160","","","","2","",""
"3249","picture","silya,chaki,asin,kubwa","kubwa","n","4","html-keyboard-response","161","v","chaki","false","","",""
"1354","","","","","4","html-slider-response","162","","","","2","",""
"2271","spoon","pagsulod,betri,nzuri,ngazi","pagsulod","f","4","html-keyboard-response","163","f","pagsulod","true","","",""
"1451.699999988079","","","","","4","html-slider-response","164","","","","4","",""
"5189","fork","mgonjwa,baboy,paghago,gorisi","mgonjwa","f","4","html-keyboard-response","165","f","mgonjwa","true","","",""
"3685.9000000059605","","","","","4","html-slider-response","166","","","","3","",""
"3295","shoe","nyeusi,hatua,uyoga,kama","uyoga","j","4","html-keyboard-response","167","v","hatua","false","","",""
"1167","","","","","4","html-slider-response","168","","","","1","",""
"8163","human","bado,kikapu,punguza,tinapay","tinapay","n","4","html-keyboard-response","169","j","punguza","false","","",""
"1687.199999988079","","","","","4","html-slider-response","170","","","","1","",""
"2656","cup","dagat,shimoni,jeraha,matumai","matumai","n","4","html-keyboard-response","171","n","matumai","true","","",""
"1294.5999999940395","","","","","4","html-slider-response","172","","","","2","",""
"2964","hammer","napakyas,mekno,kitovu,layag","napakyas","f","4","html-keyboard-response","173","n","layag","false","","",""
"1456.2999999821186","","","","","4","html-slider-response","174","","","","1","",""
"4483","body","nyundu,jibini,tindashan,kununa","tindashan","j","4","html-keyboard-response","175","j","tindashan","true","","",""
"1414.9000000059605","","","","","4","html-slider-response","176","","","","1","",""
"3409","page","wakala,ishiri,wimbo,skina","wimbo","j","4","html-keyboard-response","177","v","ishiri","false","","",""
"1714","","","","","4","html-slider-response","178","","","","1","",""
"3591","triangle","kihozi,bentaha,liog,kasadpan","kasadpan","n","4","html-keyboard-response","179","n","kasadpan","true","","",""
"1349","","","","","4","html-slider-response","180","","","","1","",""
"2696","berry","abogado,nogozi,kinywa,kofia","kofia","n","4","html-keyboard-response","181","n","kofia","true","","",""
"1732.5","","","","","4","html-slider-response","182","","","","1","",""
"2822","knee","mvuke,kubale,duka,bili","duka","j","4","html-keyboard-response","183","n","bili","false","","",""
"1314.4000000059605","","","","","4","html-slider-response","184","","","","1","",""
"5349","picture","silya,chaki,asin,kubwa","kubwa","n","5","html-keyboard-response","188","v","chaki","false","","",""
"1939.7000000178814","","","","","5","html-slider-response","189","","","","1","",""
"1954","elephant","petye,pagduol,suka,kito","kito","n","5","html-keyboard-response","190","n","kito","true","","",""
"1579.0999999940395","","","","","5","html-slider-response","191","","","","5","",""
"6908","office","hazini,yatima,leso,kuna","leso","j","5","html-keyboard-response","192","j","leso","true","","",""
"1359.800000011921","","","","","5","html-slider-response","193","","","","2","",""
"1575","perfume","katuyoan,bino,sungura,ndogo","katuyoan","f","5","html-keyboard-response","194","f","katuyoan","true","","",""
"1738.5","","","","","5","html-slider-response","195","","","","2","",""
"1889","salmon","mzungu,seri,sensilyo,baharia","sensilyo","j","5","html-keyboard-response","196","j","sensilyo","true","","",""
"1332.5","","","","","5","html-slider-response","197","","","","5","",""
"2834","dog","lubi,washia,kalamu,bahari","bahari","n","5","html-keyboard-response","198","n","bahari","true","","",""
"1481.9000000059605","","","","","5","html-slider-response","199","","","","1","",""
"2443","wheel","punda,bafuni,tawo,baadaye","bafuni","v","5","html-keyboard-response","200","v","bafuni","true","","",""
"1304.2000000178814","","","","","5","html-slider-response","201","","","","1","",""
"2202","cat","neyemba,baki,akili,paghukom","paghukom","n","5","html-keyboard-response","202","v","baki","false","","",""
"1482.3999999761581","","","","","5","html-slider-response","203","","","","1","",""
"2564","curtain","mchanga,lisud,bulwawan,chubani","mchanga","f","5","html-keyboard-response","204","n","chubani","false","","",""
"1224.5","","","","","5","html-slider-response","205","","","","1","",""
"2012","flower","tamasha,lobo,usiku,bega","bega","n","5","html-keyboard-response","206","f","tamasha","false","","",""
"1408.7999999821186","","","","","5","html-slider-response","207","","","","2","",""
"2425","number","shule,kengele,mundamo,choori","mundamo","j","5","html-keyboard-response","208","j","mundamo","true","","",""
"1450.800000011921","","","","","5","html-slider-response","209","","","","4","",""
"2176","banana","kasamok,hagdan,kazi,twai","kazi","j","5","html-keyboard-response","210","j","kazi","true","","",""
"1431.7000000178814","","","","","5","html-slider-response","211","","","","2","",""
"6137","magazine","kiti,gundi,mchawi,bahandi","kiti","f","5","html-keyboard-response","212","n","bahandi","false","","",""
"1463.4000000059605","","","","","5","html-slider-response","213","","","","1","",""
"1488","donkey","elfu,bloke,lalake,rombus","elfu","f","5","html-keyboard-response","214","f","elfu","true","","",""
"1402.5","","","","","5","html-slider-response","215","","","","5","",""
"1832","mosquito","isda,taras,martilyo,gutom","martilyo","j","5","html-keyboard-response","216","j","martilyo","true","","",""
"1520.800000011921","","","","","5","html-slider-response","217","","","","5","",""
"2765","shoe","uyoga,nyeusi,hatua,kama","uyoga","f","5","html-keyboard-response","218","j","hatua","false","","",""
"1375.699999988079","","","","","5","html-slider-response","219","","","","1","",""
"3932","stone","wingi,ulimwengu,mkasi,asili","wingi","f","5","html-keyboard-response","220","v","ulimwengu","false","","",""
"1461.5","","","","","5","html-slider-response","221","","","","1","",""
"2986","tomato","chupi,mvua,chupa,takatak","mvua","v","5","html-keyboard-response","222","f","chupi","false","","",""
"1360.300000011921","","","","","5","html-slider-response","223","","","","1","",""
"3240","ceiling","kugita,kawaida,maua,rayna","maua","j","5","html-keyboard-response","224","n","rayna","false","","",""
"1413","","","","","5","html-slider-response","225","","","","1","",""
"1700","mirror","rangi,sulagma,kanding,furaha","sulagma","v","5","html-keyboard-response","226","f","rangi","false","","",""
"1335.9000000059605","","","","","5","html-slider-response","227","","","","1","",""
"1875","coffin","barua,tubag,hulma,kioo","kioo","n","5","html-keyboard-response","228","n","kioo","true","","",""
"1444","","","","","5","html-slider-response","229","","","","5","",""
"1850","spoon","betri,nzuri,pagsulod,ngazi","pagsulod","j","5","html-keyboard-response","230","j","pagsulod","true","","",""
"1208.4000000059605","","","","","5","html-slider-response","231","","","","4","",""
"2117","marker","mapafu,salita,maji,atay","maji","j","5","html-keyboard-response","232","j","maji","true","","",""
"1611.6000000238419","","","","","5","html-slider-response","233","","","","1","",""
"2103","list","alizeti,kuzama,wingu,kaso","wingu","j","5","html-keyboard-response","234","n","kaso","false","","",""
"1237.800000011921","","","","","5","html-slider-response","235","","","","1","",""
"1579","hill","kushoto,matumbo,kukimba,sweta","matumbo","v","5","html-keyboard-response","236","v","matumbo","true","","",""
"1326.4000000059605","","","","","5","html-slider-response","237","","","","5","",""
"3363","shelf","pamahaw,bungtod,kadaot,awit","pamahaw","f","5","html-keyboard-response","238","f","pamahaw","true","","",""
"1238.4000000059605","","","","","5","html-slider-response","239","","","","1","",""
"2615","bucket","kiatu,baga,ijayo,init","kiatu","f","5","html-keyboard-response","240","v","baga","false","","",""
"1153.800000011921","","","","","5","html-slider-response","241","","","","1","",""
"2050","ladder","mashua,mwanga,kamba,pangalan","pangalan","n","5","html-keyboard-response","242","n","pangalan","true","","",""
"1355.9000000059605","","","","","5","html-slider-response","243","","","","5","",""
"2844","human","bado,kikapu,tinapay,punguza","tinapay","j","5","html-keyboard-response","244","n","punguza","false","","",""
"1215.4000000059605","","","","","5","html-slider-response","245","","","","1","",""
"2949","tissue","lamigas,kisiwa,katika,ugomvi","ugomvi","n","5","html-keyboard-response","246","v","kisiwa","false","","",""
"1981.3999999761581","","","","","5","html-slider-response","247","","","","1","",""
"2991","finger","simu,moyo,sufuria,lima","moyo","v","5","html-keyboard-response","248","f","simu","false","","",""
"1477.300000011921","","","","","5","html-slider-response","249","","","","1","",""
"2766","cave","kesho,ganti,maisha,nyundo","kesho","f","5","html-keyboard-response","250","f","kesho","true","","",""
"1893.7999999821186","","","","","5","html-slider-response","251","","","","4","",""
"2976","rose","singizi,mwanake,paghalad,amani","paghalad","j","5","html-keyboard-response","252","j","paghalad","true","","",""
"1603.4000000059605","","","","","5","html-slider-response","253","","","","1","",""
"3523","lamp","daub,afya,bilaska,mbolea","afya","v","5","html-keyboard-response","254","f","daub","false","","",""
"1879.5999999940395","","","","","5","html-slider-response","255","","","","2","",""
"2075","shoulder","kelele,ndaniya,guruwe,mkuu","mkuu","n","5","html-keyboard-response","256","v","ndaniya","false","","",""
"2430.2999999821186","","","","","5","html-slider-response","257","","","","1","",""
"2543","sock","ndoora,mamba,kimysa,mtirka","mamba","v","5","html-keyboard-response","258","v","mamba","true","","",""
"1806.699999988079","","","","","5","html-slider-response","259","","","","1","",""
"1818","mother","kahawa,mbuzi,babaye,jokofu","babaye","j","5","html-keyboard-response","260","j","babaye","true","","",""
"1210","","","","","5","html-slider-response","261","","","","4","",""
"1968","key","miaka,goma,ahos,chombo","chombo","n","5","html-keyboard-response","262","v","goma","false","","",""
"1226.300000011921","","","","","5","html-slider-response","263","","","","1","",""
"2759","squirrel","mahugaw,hofu,ukweli,kichwa","hofu","v","5","html-keyboard-response","264","v","hofu","true","","",""
"1340.199999988079","","","","","5","html-slider-response","265","","","","4","",""
"3456","nose","sehemu,gubat,kopa,kidole","sehemu","f","5","html-keyboard-response","266","v","gubat","false","","",""
"1611.300000011921","","","","","5","html-slider-response","267","","","","2","",""
"3154","book","mali,kuhesa,picha,mara","mali","f","5","html-keyboard-response","268","j","picha","false","","",""
"1738.300000011921","","","","","5","html-slider-response","269","","","","1","",""
"3179","bank","kudhibi,silingan,tualya,ofisi","silingan","v","5","html-keyboard-response","270","n","ofisi","false","","",""
"1264.8999999761581","","","","","5","html-slider-response","271","","","","1","",""
"2962","cup","dagat,shimoni,jeraha,matumai","matumai","n","5","html-keyboard-response","272","n","matumai","true","","",""
"1410.4000000059605","","","","","5","html-slider-response","273","","","","1","",""
"2335","boat","hamsi,agalon,pombe,kitanda","agalon","v","5","html-keyboard-response","274","n","kitanda","false","","",""
"1267.4000000059605","","","","","5","html-slider-response","275","","","","1","",""
"2841","letter","filimbi,chuma,kifua,uhuru","kifua","j","5","html-keyboard-response","276","v","chuma","false","","",""
"1366.2999999821186","","","","","5","html-slider-response","277","","","","1","",""
"1750","puppet","napulo,mazishi,lamok,godoro","mazishi","v","5","html-keyboard-response","278","j","lamok","false","","",""
"1495.5","","","","","5","html-slider-response","279","","","","1","",""
"2642","apple","kisu,ukame,estante,edad","kisu","f","5","html-keyboard-response","280","f","kisu","true","","",""
"1231.0999999940395","","","","","5","html-slider-response","281","","","","1","",""
"1969","tooth","kabalaka,kijiko,uadui,pahiyum","kabalaka","f","5","html-keyboard-response","282","v","kijiko","false","","",""
"1183.9000000059605","","","","","5","html-slider-response","283","","","","1","",""
"1754","shop","nopya,kerida,ndezu,samaki","samaki","n","5","html-keyboard-response","284","n","samaki","true","","",""
"2349.199999988079","","","","","5","html-slider-response","285","","","","4","",""
"2028","sun","bendi,luha,basi,uongo","basi","j","5","html-keyboard-response","286","v","luha","false","","",""
"1555.7999999821186","","","","","5","html-slider-response","287","","","","2","",""
"2012","knee","mvuke,duka,kubale,bili","duka","v","5","html-keyboard-response","288","v","duka","true","","",""
"1277.4000000059605","","","","","5","html-slider-response","289","","","","1","",""
"5141","fork","baboy,mgonjwa,paghago,gorisi","mgonjwa","v","5","html-keyboard-response","290","v","mgonjwa","true","","",""
"2721.100000023842","","","","","5","html-slider-response","291","","","","3","",""
"1772","wolf","kaburi,ndizi,lugha,mchuzi","lugha","j","5","html-keyboard-response","292","j","lugha","true","","",""
"1102.300000011921","","","","","5","html-slider-response","293","","","","4","",""
"2792","sheet","juuya,bililhon,watu,kamantis","bililhon","v","5","html-keyboard-response","294","j","watu","false","","",""
"1416.699999988079","","","","","5","html-slider-response","295","","","","1","",""
"5660","giraffe","daraja,jumatu,mahitabo,hangyo","mahitabo","j","5","html-keyboard-response","296","j","mahitabo","true","","",""
"1302.2000000178814","","","","","5","html-slider-response","297","","","","2","",""
"1843","bread","kaili,dari,dizeli,bugas","dari","v","5","html-keyboard-response","298","v","dari","true","","",""
"1285.300000011921","","","","","5","html-slider-response","299","","","","2","",""
"3362","box","adui,kuacha,rafiki,kitande","adui","f","5","html-keyboard-response","300","j","rafiki","false","","",""
"1161.7999999821186","","","","","5","html-slider-response","301","","","","2","",""
"1503","cop","bustani,jikoni,bakus,mechezo","mechezo","n","5","html-keyboard-response","302","n","mechezo","true","","",""
"1199.4000000059605","","","","","5","html-slider-response","303","","","","4","",""
"3116","fish","bala,baho,imani,buli","buli","n","5","html-keyboard-response","304","n","buli","true","","",""
"1357.4000000059605","","","","","5","html-slider-response","305","","","","2","",""
"2029","door","tena,soko,nyota,surali","surali","n","5","html-keyboard-response","306","f","tena","false","","",""
"1623.5","","","","","5","html-slider-response","307","","","","1","",""
"2391","woman","bandari,bituin,kovuli,pagtabon","pagtabon","n","5","html-keyboard-response","308","n","pagtabon","true","","",""
"2084.4000000059605","","","","","5","html-slider-response","309","","","","3","",""
"3133","clock","kartasi,mbwa,abang,osha","mbwa","v","5","html-keyboard-response","310","f","kartasi","false","","",""
"1221","","","","","5","html-slider-response","311","","","","2","",""
"1802","berry","abogado,kofia,nogozi,kinywa","kofia","v","5","html-keyboard-response","312","v","kofia","true","","",""
"1392.9000000059605","","","","","5","html-slider-response","313","","","","1","",""
"1965","towel","tembo,pagpalit,funzi,pito","pagpalit","v","5","html-keyboard-response","314","f","tembo","false","","",""
"1214.4000000059605","","","","","5","html-slider-response","315","","","","1","",""
"2768","pudding","aibu,abug,mpishi,iring","aibu","f","5","html-keyboard-response","316","f","aibu","true","","",""
"1298","","","","","5","html-slider-response","317","","","","1","",""
"1846","park","tambok,bunifu,pwani,ihalas","bunifu","v","5","html-keyboard-response","318","f","tambok","false","","",""
"1350.199999988079","","","","","5","html-slider-response","319","","","","1","",""
"1917","body","nyundu,tindashan,jibini,kununa","tindashan","v","5","html-keyboard-response","320","v","tindashan","true","","",""
"2846.0999999940395","","","","","5","html-slider-response","321","","","","2","",""
"1591","olive","bata,siagi,jiwe,welder","jiwe","j","5","html-keyboard-response","322","j","jiwe","true","","",""
"1522.7999999821186","","","","","5","html-slider-response","323","","","","5","",""
"2911","poster","nchi,fedha,kasuko,madungog","madungog","n","5","html-keyboard-response","324","j","kasuko","false","","",""
"1605.5999999940395","","","","","5","html-slider-response","325","","","","1","",""
"2562","hammer","mekno,kitovu,layag,napakyas","napakyas","n","5","html-keyboard-response","326","f","mekno","false","","",""
"1388","","","","","5","html-slider-response","327","","","","1","",""
"3168","train","itik,dakika,mungu,sayari","sayari","n","5","html-keyboard-response","328","n","sayari","true","","",""
"1538","","","","","5","html-slider-response","329","","","","2","",""
"2599","cigar","ndugu,kuta,adhabu,mlango","adhabu","j","5","html-keyboard-response","330","f","ndugu","false","","",""
"1487.7999999821186","","","","","5","html-slider-response","331","","","","1","",""
"3785","spider","bunyag,kamwe,mkboa,atop","kamwe","v","5","html-keyboard-response","332","f","bunyag","false","","",""
"1401.4000000059605","","","","","5","html-slider-response","333","","","","2","",""
"1925","notebook","kemia,msitu,kila,mdudu","kemia","f","5","html-keyboard-response","334","j","kila","false","","",""
"1565","","","","","5","html-slider-response","335","","","","1","",""
"3141","candle","gabi,geza,farasi,kupanda","geza","v","5","html-keyboard-response","336","v","geza","true","","",""
"2420.7000000178814","","","","","5","html-slider-response","337","","","","4","",""
"1654","column","pundok,dila,ufagio,pala","ufagio","j","5","html-keyboard-response","338","v","dila","false","","",""
"1521","","","","","5","html-slider-response","339","","","","1","",""
"3036","basket","kumbuka,kumba,utepe,hasira","kumba","v","5","html-keyboard-response","340","n","hasira","false","","",""
"1469.699999988079","","","","","5","html-slider-response","341","","","","1","",""
"2331","page","wakala,ishiri,skina,wimbo","wimbo","n","5","html-keyboard-response","342","v","ishiri","false","","",""
"1312.5999999940395","","","","","5","html-slider-response","343","","","","1","",""
"3097","bridge","sahani,daima,ngono,panya","sahani","f","5","html-keyboard-response","344","f","sahani","true","","",""
"1595.2999999821186","","","","","5","html-slider-response","345","","","","1","",""
"2449","window","nanga,kujenga,umaga,kweli","kweli","n","5","html-keyboard-response","346","n","kweli","true","","",""
"1134.5","","","","","5","html-slider-response","347","","","","1","",""
"2537","snake","jansa,pagtukod,karon,mvringo","pagtukod","v","5","html-keyboard-response","348","j","karon","false","","",""
"1334.6000000238419","","","","","5","html-slider-response","349","","","","1","",""
"4255","flag","ndege,mkate,kawa,trekta","trekta","n","5","html-keyboard-response","350","n","trekta","true","","",""
"1268.5","","","","","5","html-slider-response","351","","","","1","",""
"2511","bed","kalipay,mapintas,haraka,starehe","mapintas","v","5","html-keyboard-response","352","v","mapintas","true","","",""
"1541.1000000238419","","","","","5","html-slider-response","353","","","","1","",""
"1869","music","baiski,mraba,mageho,tumbo","baiski","f","5","html-keyboard-response","354","n","tumbo","false","","",""
"1398.4000000059605","","","","","5","html-slider-response","355","","","","1","",""
"2835","gift","baba,nyange,baso,pagtawag","pagtawag","n","5","html-keyboard-response","356","f","baba","false","","",""
"2089.5","","","","","5","html-slider-response","357","","","","2","",""
"1837","bonfire","goti,mwezi,mfuko,kusanya","goti","f","5","html-keyboard-response","358","f","goti","true","","",""
"1425.199999988079","","","","","5","html-slider-response","359","","","","2","",""
"2409","scissors","duga,mtawa,tanuri,suga","tanuri","j","5","html-keyboard-response","360","j","tanuri","true","","",""
"1275.5","","","","","5","html-slider-response","361","","","","2","",""
"6429","eel","msumari,ishara,kunywa,kabuang","msumari","f","5","html-keyboard-response","362","n","kabuang","false","","",""
"1206.0999999940395","","","","","5","html-slider-response","363","","","","2","",""
"2242","pants","haki,pintal,chuki,hari","haki","f","5","html-keyboard-response","364","n","hari","false","","",""
"1760","","","","","5","html-slider-response","365","","","","1","",""
"2073","triangle","kihozi,bentaha,liog,kasadpan","kasadpan","n","5","html-keyboard-response","366","n","kasadpan","true","","",""
"1809.300000011921","","","","","5","html-slider-response","367","","","","1","",""
"6061.4000000059605","","","","","6","html-slider-response","369","","","","","1",""
"3396","","","","","6","html-keyboard-response","370","","","","","","false"
