"rt","en_word","options","swa_word","correct_answer","phase","trial_type","trial_index","input_answer","input_word","accuracy","certainty","swahili_knowledge","previous_subject"
"4562","sun","bendi,luha,uongo,basi","basi","n","4","html-keyboard-response","5","n","basi","true","","",""
"2953.0999999940395","","","","","4","html-slider-response","6","","","","2","",""
"2936","basket","kumbuka,kumba,utepe,hasira","kumba","v","4","html-keyboard-response","7","v","kumba","true","","",""
"2641","","","","","4","html-slider-response","8","","","","2","",""
"2964","curtain","lisud,bulwawan,chubani,mchanga","mchanga","n","4","html-keyboard-response","9","n","mchanga","true","","",""
"3150.9000000059605","","","","","4","html-slider-response","10","","","","2","",""
"1665","park","tambok,pwani,ihalas,bunifu","bunifu","n","4","html-keyboard-response","11","j","ihalas","false","","",""
"2402.2999999970198","","","","","4","html-slider-response","12","","","","2","",""
"1627","nose","gubat,kopa,kidole,sehemu","sehemu","n","4","html-keyboard-response","13","v","kopa","false","","",""
"2888.5999999940395","","","","","4","html-slider-response","14","","","","2","",""
"2249","window","nanga,kujenga,kweli,umaga","kweli","j","4","html-keyboard-response","15","n","umaga","false","","",""
"3974.7999999970198","","","","","4","html-slider-response","16","","","","2","",""
"1454","cave","ganti,kesho,maisha,nyundo","kesho","v","4","html-keyboard-response","17","j","maisha","false","","",""
"2805.5","","","","","4","html-slider-response","18","","","","2","",""
"4514","woman","bandari,bituin,kovuli,pagtabon","pagtabon","n","4","html-keyboard-response","19","n","pagtabon","true","","",""
"3986.7999999970198","","","","","4","html-slider-response","20","","","","3","",""
"2384","bed","mapintas,kalipay,haraka,starehe","mapintas","f","4","html-keyboard-response","21","f","mapintas","true","","",""
"3128.0999999940395","","","","","4","html-slider-response","22","","","","2","",""
"2009","column","pundok,dila,pala,ufagio","ufagio","n","4","html-keyboard-response","23","v","dila","false","","",""
"3013.8999999910593","","","","","4","html-slider-response","24","","","","2","",""
"5068","fish","bala,buli,baho,imani","buli","v","4","html-keyboard-response","25","f","bala","false","","",""
"2839.2000000029802","","","","","4","html-slider-response","26","","","","2","",""
"3105","boat","hamsi,pombe,agalon,kitanda","agalon","j","4","html-keyboard-response","27","j","agalon","true","","",""
"3087.2999999970198","","","","","4","html-slider-response","28","","","","1","",""
"2562","cop","bustani,jikoni,bakus,mechezo","mechezo","n","4","html-keyboard-response","29","j","bakus","false","","",""
"5298.300000011921","","","","","4","html-slider-response","30","","","","2","",""
"1889","shoulder","mkuu,kelele,ndaniya,guruwe","mkuu","f","4","html-keyboard-response","31","n","guruwe","false","","",""
"8145.0999999940395","","","","","4","html-slider-response","32","","","","2","",""
"3197","magazine","gundi,mchawi,kiti,bahandi","kiti","j","4","html-keyboard-response","33","v","mchawi","false","","",""
"3004.5","","","","","4","html-slider-response","34","","","","2","",""
"1476","gift","baba,nyange,pagtawag,baso","pagtawag","j","4","html-keyboard-response","35","n","baso","false","","",""
"2292.8999999910593","","","","","4","html-slider-response","36","","","","2","",""
"1720","clock","kartasi,abang,osha,mbwa","mbwa","n","4","html-keyboard-response","37","f","kartasi","false","","",""
"2190.7000000029802","","","","","4","html-slider-response","38","","","","2","",""
"1507","squirrel","mahugaw,ukweli,hofu,kichwa","hofu","j","4","html-keyboard-response","39","j","hofu","true","","",""
"2451.6000000089407","","","","","4","html-slider-response","40","","","","2","",""
"8336","key","chombo,miaka,goma,ahos","chombo","f","4","html-keyboard-response","41","f","chombo","true","","",""
"3079.2000000029802","","","","","4","html-slider-response","42","","","","2","",""
"5893","salmon","mzungu,sensilyo,seri,baharia","sensilyo","v","4","html-keyboard-response","43","v","sensilyo","true","","",""
"2271.2999999970198","","","","","4","html-slider-response","44","","","","2","",""
"1924","puppet","napulo,mazishi,lamok,godoro","mazishi","v","4","html-keyboard-response","45","j","lamok","false","","",""
"2581.4000000059605","","","","","4","html-slider-response","46","","","","2","",""
"1584","letter","filimbi,kifua,chuma,uhuru","kifua","v","4","html-keyboard-response","47","n","uhuru","false","","",""
"2461.7000000029802","","","","","4","html-slider-response","48","","","","2","",""
"1668","flag","ndege,trekta,mkate,kawa","trekta","v","4","html-keyboard-response","49","j","mkate","false","","",""
"2844.5999999940395","","","","","4","html-slider-response","50","","","","2","",""
"4367","mother","kahawa,babaye,mbuzi,jokofu","babaye","v","4","html-keyboard-response","51","v","babaye","true","","",""
"2410.5","","","","","4","html-slider-response","52","","","","2","",""
"1130","ceiling","kugita,kawaida,maua,rayna","maua","j","4","html-keyboard-response","53","n","rayna","false","","",""
"2717.2000000029802","","","","","4","html-slider-response","54","","","","2","",""
"1445","stone","ulimwengu,mkasi,wingi,asili","wingi","j","4","html-keyboard-response","55","j","wingi","true","","",""
"1988.4000000059605","","","","","4","html-slider-response","56","","","","2","",""
"982","sock","ndoora,mamba,kimysa,mtirka","mamba","v","4","html-keyboard-response","57","v","mamba","true","","",""
"2357.800000011921","","","","","4","html-slider-response","58","","","","2","",""
"764","rose","singizi,paghalad,mwanake,amani","paghalad","v","4","html-keyboard-response","59","n","amani","false","","",""
"1942.1000000089407","","","","","4","html-slider-response","60","","","","2","",""
"718","office","leso,hazini,yatima,kuna","leso","f","4","html-keyboard-response","61","v","hazini","false","","",""
"2340.7999999970198","","","","","4","html-slider-response","62","","","","2","",""
"1144","number","shule,mundamo,kengele,choori","mundamo","v","4","html-keyboard-response","63","f","shule","false","","",""
"2541.6000000089407","","","","","4","html-slider-response","64","","","","2","",""
"1708","lamp","daub,bilaska,afya,mbolea","afya","j","4","html-keyboard-response","65","f","daub","false","","",""
"3558.7000000029802","","","","","4","html-slider-response","66","","","","2","",""
"1664","dog","lubi,washia,bahari,kalamu","bahari","j","4","html-keyboard-response","67","f","lubi","false","","",""
"2329.2000000029802","","","","","4","html-slider-response","68","","","","2","",""
"1580","mosquito","isda,taras,martilyo,gutom","martilyo","j","4","html-keyboard-response","69","j","martilyo","true","","",""
"2292.8999999910593","","","","","4","html-slider-response","70","","","","2","",""
"1261","notebook","msitu,kila,kemia,mdudu","kemia","j","4","html-keyboard-response","71","n","mdudu","false","","",""
"2518.4000000059605","","","","","4","html-slider-response","72","","","","2","",""
"3604","apple","ukame,estante,kisu,edad","kisu","j","4","html-keyboard-response","73","f","ukame","false","","",""
"2209.4000000059605","","","","","4","html-slider-response","74","","","","2","",""
"1136","cigar","ndugu,kuta,adhabu,mlango","adhabu","j","4","html-keyboard-response","75","n","mlango","false","","",""
"1887.7000000029802","","","","","4","html-slider-response","76","","","","2","",""
"1379","coffin","barua,kioo,tubag,hulma","kioo","v","4","html-keyboard-response","77","j","tubag","false","","",""
"2081.2000000029802","","","","","4","html-slider-response","78","","","","2","",""
"1531","shelf","bungtod,kadaot,awit,pamahaw","pamahaw","n","4","html-keyboard-response","79","f","bungtod","false","","",""
"2145.8999999910593","","","","","4","html-slider-response","80","","","","2","",""
"1293","bread","kaili,dizeli,bugas,dari","dari","n","4","html-keyboard-response","81","n","dari","true","","",""
"2542","","","","","4","html-slider-response","82","","","","2","",""
"1555","olive","bata,siagi,jiwe,welder","jiwe","j","4","html-keyboard-response","83","j","jiwe","true","","",""
"2006.800000011921","","","","","4","html-slider-response","84","","","","2","",""
"1850","spider","bunyag,kamwe,mkboa,atop","kamwe","v","4","html-keyboard-response","85","n","atop","false","","",""
"2990.2999999970198","","","","","4","html-slider-response","86","","","","2","",""
"1395","cat","neyemba,paghukom,baki,akili","paghukom","v","4","html-keyboard-response","87","v","paghukom","true","","",""
"2536.7999999970198","","","","","4","html-slider-response","88","","","","2","",""
"967","pudding","abug,mpishi,aibu,iring","aibu","j","4","html-keyboard-response","89","f","abug","false","","",""
"1844.9000000059605","","","","","4","html-slider-response","90","","","","2","",""
"893","towel","tembo,funzi,pagpalit,pito","pagpalit","j","4","html-keyboard-response","91","j","pagpalit","true","","",""
"3097.7999999970198","","","","","4","html-slider-response","92","","","","2","",""
"2140","bucket","baga,ijayo,kiatu,init","kiatu","j","4","html-keyboard-response","93","v","ijayo","false","","",""
"2095.0999999940395","","","","","4","html-slider-response","94","","","","2","",""
"1271","wheel","bafuni,punda,tawo,baadaye","bafuni","f","4","html-keyboard-response","95","f","bafuni","true","","",""
"2478.6000000089407","","","","","4","html-slider-response","96","","","","2","",""
"1554","ladder","pangalan,mashua,mwanga,kamba","pangalan","f","4","html-keyboard-response","97","j","mwanga","false","","",""
"2077.8999999910593","","","","","4","html-slider-response","98","","","","2","",""
"2330","marker","mapafu,salita,maji,atay","maji","j","4","html-keyboard-response","99","n","atay","false","","",""
"2476.800000011921","","","","","4","html-slider-response","100","","","","2","",""
"1033","tomato","chupi,chupa,mvua,takatak","mvua","j","4","html-keyboard-response","101","f","chupi","false","","",""
"2445.1000000089407","","","","","4","html-slider-response","102","","","","2","",""
"1349","door","tena,surali,soko,nyota","surali","v","4","html-keyboard-response","103","v","surali","true","","",""
"2088.7000000029802","","","","","4","html-slider-response","104","","","","2","",""
"1510","bonfire","goti,mwezi,mfuko,kusanya","goti","f","4","html-keyboard-response","105","j","mfuko","false","","",""
"3164.0999999940395","","","","","4","html-slider-response","106","","","","2","",""
"1138","mirror","rangi,kanding,sulagma,furaha","sulagma","j","4","html-keyboard-response","107","v","kanding","false","","",""
"3209.5999999940395","","","","","4","html-slider-response","108","","","","2","",""
"1312","giraffe","daraja,jumatu,mahitabo,hangyo","mahitabo","j","4","html-keyboard-response","109","n","hangyo","false","","",""
"2624.6000000089407","","","","","4","html-slider-response","110","","","","2","",""
"1268","tissue","lamigas,ugomvi,kisiwa,katika","ugomvi","v","4","html-keyboard-response","111","f","lamigas","false","","",""
"2291.5999999940395","","","","","4","html-slider-response","112","","","","2","",""
"1247","snake","jansa,karon,pagtukod,mvringo","pagtukod","j","4","html-keyboard-response","113","n","mvringo","false","","",""
"1962.3999999910593","","","","","4","html-slider-response","114","","","","2","",""
"1132","finger","simu,sufuria,lima,moyo","moyo","n","4","html-keyboard-response","115","f","simu","false","","",""
"2359","","","","","4","html-slider-response","116","","","","2","",""
"1120","train","itik,dakika,sayari,mungu","sayari","j","4","html-keyboard-response","117","n","mungu","false","","",""
"3028.7000000029802","","","","","4","html-slider-response","118","","","","2","",""
"708","candle","gabi,farasi,geza,kupanda","geza","j","4","html-keyboard-response","119","f","gabi","false","","",""
"2345.9000000059605","","","","","4","html-slider-response","120","","","","2","",""
"776","book","kuhesa,mali,picha,mara","mali","v","4","html-keyboard-response","121","v","mali","true","","",""
"2697.2000000029802","","","","","4","html-slider-response","122","","","","2","",""
"1372","elephant","petye,kito,pagduol,suka","kito","v","4","html-keyboard-response","123","f","petye","false","","",""
"2665.7999999970198","","","","","4","html-slider-response","124","","","","2","",""
"1978","sheet","juuya,bililhon,watu,kamantis","bililhon","v","4","html-keyboard-response","125","f","juuya","false","","",""
"2882.5","","","","","4","html-slider-response","126","","","","2","",""
"1514","banana","kasamok,kazi,hagdan,twai","kazi","v","4","html-keyboard-response","127","v","kazi","true","","",""
"2542.199999988079","","","","","4","html-slider-response","128","","","","2","",""
"1071","perfume","bino,sungura,ndogo,katuyoan","katuyoan","n","4","html-keyboard-response","129","n","katuyoan","true","","",""
"2194.7999999970198","","","","","4","html-slider-response","130","","","","2","",""
"1117","bank","kudhibi,silingan,tualya,ofisi","silingan","v","4","html-keyboard-response","131","f","kudhibi","false","","",""
"3314.9000000059605","","","","","4","html-slider-response","132","","","","2","",""
"1334","tooth","kijiko,kabalaka,uadui,pahiyum","kabalaka","v","4","html-keyboard-response","133","n","pahiyum","false","","",""
"2221.5999999940395","","","","","4","html-slider-response","134","","","","2","",""
"1486","hill","matumbo,kushoto,kukimba,sweta","matumbo","f","4","html-keyboard-response","135","v","kushoto","false","","",""
"1991.2000000029802","","","","","4","html-slider-response","136","","","","2","",""
"1146","music","baiski,mraba,mageho,tumbo","baiski","f","4","html-keyboard-response","137","n","tumbo","false","","",""
"2481.7999999970198","","","","","4","html-slider-response","138","","","","2","",""
"3247","pants","pintal,chuki,hari,haki","haki","n","4","html-keyboard-response","139","v","chuki","false","","",""
"2816.2999999970198","","","","","4","html-slider-response","140","","","","2","",""
"9091","donkey","bloke,elfu,lalake,rombus","elfu","v","4","html-keyboard-response","141","n","rombus","false","","",""
"2409","","","","","4","html-slider-response","142","","","","2","",""
"1071","bridge","daima,ngono,panya,sahani","sahani","n","4","html-keyboard-response","143","v","ngono","false","","",""
"1996.3999999910593","","","","","4","html-slider-response","144","","","","2","",""
"908","list","alizeti,wingu,kuzama,kaso","wingu","v","4","html-keyboard-response","145","n","kaso","false","","",""
"4620.29999999702","","","","","4","html-slider-response","146","","","","2","",""
"1090","box","kuacha,adui,rafiki,kitande","adui","v","4","html-keyboard-response","147","j","rafiki","false","","",""
"2201.7999999970198","","","","","4","html-slider-response","148","","","","2","",""
"1636","wolf","kaburi,lugha,ndizi,mchuzi","lugha","v","4","html-keyboard-response","149","n","mchuzi","false","","",""
"2304.5","","","","","4","html-slider-response","150","","","","2","",""
"1266","poster","nchi,fedha,kasuko,madungog","madungog","n","4","html-keyboard-response","151","v","fedha","false","","",""
"2525.199999988079","","","","","4","html-slider-response","152","","","","2","",""
"1946","eel","ishara,kunywa,msumari,kabuang","msumari","j","4","html-keyboard-response","153","f","ishara","false","","",""
"2053","","","","","4","html-slider-response","154","","","","2","",""
"1131","scissors","tanuri,duga,mtawa,suga","tanuri","f","4","html-keyboard-response","155","j","mtawa","false","","",""
"3185.8999999910593","","","","","4","html-slider-response","156","","","","2","",""
"1147","shop","nopya,kerida,samaki,ndezu","samaki","j","4","html-keyboard-response","157","v","kerida","false","","",""
"2133.5","","","","","4","html-slider-response","158","","","","2","",""
"1699","flower","bega,tamasha,lobo,usiku","bega","f","4","html-keyboard-response","159","j","lobo","false","","",""
"3117.1000000089407","","","","","4","html-slider-response","160","","","","2","",""
"1161","picture","kubwa,silya,chaki,asin","kubwa","f","4","html-keyboard-response","161","n","asin","false","","",""
"3796.4000000059605","","","","","4","html-slider-response","162","","","","2","",""
"981","spoon","betri,nzuri,pagsulod,ngazi","pagsulod","j","4","html-keyboard-response","163","v","nzuri","false","","",""
"2670.5","","","","","4","html-slider-response","164","","","","2","",""
"1051","fork","baboy,mgonjwa,paghago,gorisi","mgonjwa","v","4","html-keyboard-response","165","n","gorisi","false","","",""
"2618.5999999940395","","","","","4","html-slider-response","166","","","","2","",""
"1069","shoe","nyeusi,hatua,uyoga,kama","uyoga","j","4","html-keyboard-response","167","j","uyoga","true","","",""
"4862.100000008941","","","","","4","html-slider-response","168","","","","2","",""
"915","human","tinapay,bado,kikapu,punguza","tinapay","f","4","html-keyboard-response","169","v","bado","false","","",""
"3045.8999999910593","","","","","4","html-slider-response","170","","","","2","",""
"1193","cup","dagat,shimoni,jeraha,matumai","matumai","n","4","html-keyboard-response","171","f","dagat","false","","",""
"2638.2999999970198","","","","","4","html-slider-response","172","","","","2","",""
"1458","hammer","mekno,kitovu,napakyas,layag","napakyas","j","4","html-keyboard-response","173","n","layag","false","","",""
"4508.70000000298","","","","","4","html-slider-response","174","","","","2","",""
"1051","body","tindashan,nyundu,jibini,kununa","tindashan","f","4","html-keyboard-response","175","f","tindashan","true","","",""
"2771.9000000059605","","","","","4","html-slider-response","176","","","","2","",""
"829","page","wakala,wimbo,ishiri,skina","wimbo","v","4","html-keyboard-response","177","v","wimbo","true","","",""
"4180.0999999940395","","","","","4","html-slider-response","178","","","","2","",""
"895","triangle","kasadpan,kihozi,bentaha,liog","kasadpan","f","4","html-keyboard-response","179","n","liog","false","","",""
"3319.5","","","","","4","html-slider-response","180","","","","2","",""
"1142","berry","abogado,nogozi,kinywa,kofia","kofia","n","4","html-keyboard-response","181","f","abogado","false","","",""
"2598.7000000029802","","","","","4","html-slider-response","182","","","","2","",""
"1225","knee","mvuke,duka,kubale,bili","duka","v","4","html-keyboard-response","183","v","duka","true","","",""
"2630.2000000029802","","","","","4","html-slider-response","184","","","","2","",""
"2203","picture","kubwa,silya,chaki,asin","kubwa","f","5","html-keyboard-response","188","f","kubwa","true","","",""
"3002.7999999970198","","","","","5","html-slider-response","189","","","","2","",""
"3449","elephant","kito,petye,pagduol,suka","kito","f","5","html-keyboard-response","190","j","pagduol","false","","",""
"2837","","","","","5","html-slider-response","191","","","","2","",""
"1440","office","hazini,yatima,kuna,leso","leso","n","5","html-keyboard-response","192","v","yatima","false","","",""
"2642.7999999970198","","","","","5","html-slider-response","193","","","","2","",""
"1236","perfume","bino,sungura,katuyoan,ndogo","katuyoan","j","5","html-keyboard-response","194","n","ndogo","false","","",""
"3344.0999999940395","","","","","5","html-slider-response","195","","","","2","",""
"994","salmon","sensilyo,mzungu,seri,baharia","sensilyo","f","5","html-keyboard-response","196","n","baharia","false","","",""
"3065.7000000029802","","","","","5","html-slider-response","197","","","","2","",""
"1342","dog","lubi,washia,bahari,kalamu","bahari","j","5","html-keyboard-response","198","v","washia","false","","",""
"2538.2000000029802","","","","","5","html-slider-response","199","","","","2","",""
"1263","wheel","punda,bafuni,tawo,baadaye","bafuni","v","5","html-keyboard-response","200","j","tawo","false","","",""
"2513.1000000089407","","","","","5","html-slider-response","201","","","","2","",""
"1079","cat","neyemba,baki,paghukom,akili","paghukom","j","5","html-keyboard-response","202","v","baki","false","","",""
"2881.2000000029802","","","","","5","html-slider-response","203","","","","2","",""
"1421","curtain","lisud,bulwawan,chubani,mchanga","mchanga","n","5","html-keyboard-response","204","j","chubani","false","","",""
"2742.7999999970198","","","","","5","html-slider-response","205","","","","2","",""
"1357","flower","tamasha,lobo,usiku,bega","bega","n","5","html-keyboard-response","206","f","tamasha","false","","",""
"2734.7999999970198","","","","","5","html-slider-response","207","","","","2","",""
"1139","number","shule,kengele,mundamo,choori","mundamo","j","5","html-keyboard-response","208","v","kengele","false","","",""
"2555.2999999970198","","","","","5","html-slider-response","209","","","","2","",""
"1066","banana","kazi,kasamok,hagdan,twai","kazi","f","5","html-keyboard-response","210","j","hagdan","false","","",""
"3737.0999999940395","","","","","5","html-slider-response","211","","","","2","",""
"866","magazine","gundi,mchawi,bahandi,kiti","kiti","n","5","html-keyboard-response","212","n","kiti","true","","",""
"2553.9000000059605","","","","","5","html-slider-response","213","","","","2","",""
"1004","donkey","bloke,lalake,rombus,elfu","elfu","n","5","html-keyboard-response","214","j","rombus","false","","",""
"2344.9000000059605","","","","","5","html-slider-response","215","","","","2","",""
"1229","mosquito","isda,taras,martilyo,gutom","martilyo","j","5","html-keyboard-response","216","v","taras","false","","",""
"2818.0999999940395","","","","","5","html-slider-response","217","","","","2","",""
"1174","shoe","uyoga,nyeusi,hatua,kama","uyoga","f","5","html-keyboard-response","218","f","uyoga","true","","",""
"2898.9000000059605","","","","","5","html-slider-response","219","","","","2","",""
"1495","stone","wingi,ulimwengu,mkasi,asili","wingi","f","5","html-keyboard-response","220","j","mkasi","false","","",""
"2904.7999999970198","","","","","5","html-slider-response","221","","","","2","",""
"1556","tomato","chupi,chupa,mvua,takatak","mvua","j","5","html-keyboard-response","222","v","chupa","false","","",""
"2651.0999999940395","","","","","5","html-slider-response","223","","","","2","",""
"1397","ceiling","maua,kugita,kawaida,rayna","maua","f","5","html-keyboard-response","224","f","maua","true","","",""
"2677.800000011921","","","","","5","html-slider-response","225","","","","2","",""
"1653","mirror","rangi,kanding,sulagma,furaha","sulagma","j","5","html-keyboard-response","226","v","kanding","false","","",""
"2515.6000000089407","","","","","5","html-slider-response","227","","","","2","",""
"1139","coffin","kioo,barua,tubag,hulma","kioo","f","5","html-keyboard-response","228","n","hulma","false","","",""
"3228","","","","","5","html-slider-response","229","","","","2","",""
"414","spoon","betri,pagsulod,nzuri,ngazi","pagsulod","v","5","html-keyboard-response","230","n","ngazi","false","","",""
"2303.8999999910593","","","","","5","html-slider-response","231","","","","2","",""
"1401","marker","maji,mapafu,salita,atay","maji","f","5","html-keyboard-response","232","f","maji","true","","",""
"8384.20000000298","","","","","5","html-slider-response","233","","","","2","",""
"2810","list","alizeti,kuzama,kaso,wingu","wingu","n","5","html-keyboard-response","234","v","kuzama","false","","",""
"2653.0999999940395","","","","","5","html-slider-response","235","","","","2","",""
"1143","hill","kushoto,kukimba,matumbo,sweta","matumbo","j","5","html-keyboard-response","236","f","kushoto","false","","",""
"3874.4000000059605","","","","","5","html-slider-response","237","","","","2","",""
"1108","shelf","bungtod,pamahaw,kadaot,awit","pamahaw","v","5","html-keyboard-response","238","n","awit","false","","",""
"2777.7000000029802","","","","","5","html-slider-response","239","","","","2","",""
"1332","bucket","baga,kiatu,ijayo,init","kiatu","v","5","html-keyboard-response","240","j","ijayo","false","","",""
"3840.7999999970198","","","","","5","html-slider-response","241","","","","2","",""
"1147","ladder","mashua,mwanga,kamba,pangalan","pangalan","n","5","html-keyboard-response","242","v","mwanga","false","","",""
"2408.3999999910593","","","","","5","html-slider-response","243","","","","2","",""
"1477","human","bado,tinapay,kikapu,punguza","tinapay","v","5","html-keyboard-response","244","j","kikapu","false","","",""
"3080.5","","","","","5","html-slider-response","245","","","","2","",""
"991","tissue","lamigas,ugomvi,kisiwa,katika","ugomvi","v","5","html-keyboard-response","246","f","lamigas","false","","",""
"2861.6000000089407","","","","","5","html-slider-response","247","","","","2","",""
"974","finger","moyo,simu,sufuria,lima","moyo","f","5","html-keyboard-response","248","n","lima","false","","",""
"3312.7999999970198","","","","","5","html-slider-response","249","","","","2","",""
"1178","cave","ganti,kesho,maisha,nyundo","kesho","v","5","html-keyboard-response","250","f","ganti","false","","",""
"3083.4000000059605","","","","","5","html-slider-response","251","","","","2","",""
"1242","rose","paghalad,singizi,mwanake,amani","paghalad","f","5","html-keyboard-response","252","v","singizi","false","","",""
"2197.6000000089407","","","","","5","html-slider-response","253","","","","2","",""
"1127","lamp","daub,afya,bilaska,mbolea","afya","v","5","html-keyboard-response","254","n","mbolea","false","","",""
"2608.6000000089407","","","","","5","html-slider-response","255","","","","2","",""
"991","shoulder","kelele,ndaniya,mkuu,guruwe","mkuu","j","5","html-keyboard-response","256","f","kelele","false","","",""
"2389.2999999970198","","","","","5","html-slider-response","257","","","","2","",""
"1029","sock","ndoora,mamba,kimysa,mtirka","mamba","v","5","html-keyboard-response","258","j","kimysa","false","","",""
"2969.8999999910593","","","","","5","html-slider-response","259","","","","2","",""
"1165","mother","kahawa,mbuzi,babaye,jokofu","babaye","j","5","html-keyboard-response","260","n","jokofu","false","","",""
"3075.7999999970198","","","","","5","html-slider-response","261","","","","2","",""
"886","key","miaka,goma,chombo,ahos","chombo","j","5","html-keyboard-response","262","n","ahos","false","","",""
"2909.5","","","","","5","html-slider-response","263","","","","2","",""
"1279","squirrel","hofu,mahugaw,ukweli,kichwa","hofu","f","5","html-keyboard-response","264","f","hofu","true","","",""
"2348.8999999910593","","","","","5","html-slider-response","265","","","","2","",""
"1062","nose","gubat,kopa,sehemu,kidole","sehemu","j","5","html-keyboard-response","266","v","kopa","false","","",""
"2196.5999999940395","","","","","5","html-slider-response","267","","","","2","",""
"942","book","kuhesa,mali,picha,mara","mali","v","5","html-keyboard-response","268","n","mara","false","","",""
"5038.29999999702","","","","","5","html-slider-response","269","","","","2","",""
"1129","bank","kudhibi,tualya,ofisi,silingan","silingan","n","5","html-keyboard-response","270","v","tualya","false","","",""
"2458.4000000059605","","","","","5","html-slider-response","271","","","","2","",""
"1152","cup","dagat,shimoni,jeraha,matumai","matumai","n","5","html-keyboard-response","272","n","matumai","true","","",""
"3187.6000000089407","","","","","5","html-slider-response","273","","","","2","",""
"812","boat","hamsi,agalon,pombe,kitanda","agalon","v","5","html-keyboard-response","274","v","agalon","true","","",""
"3113.4000000059605","","","","","5","html-slider-response","275","","","","2","",""
"1013","letter","filimbi,kifua,chuma,uhuru","kifua","v","5","html-keyboard-response","276","j","chuma","false","","",""
"3083.2000000029802","","","","","5","html-slider-response","277","","","","2","",""
"1179","puppet","napulo,lamok,godoro,mazishi","mazishi","n","5","html-keyboard-response","278","v","lamok","false","","",""
"2665.199999988079","","","","","5","html-slider-response","279","","","","2","",""
"937","apple","ukame,estante,edad,kisu","kisu","n","5","html-keyboard-response","280","j","edad","false","","",""
"5018.70000000298","","","","","5","html-slider-response","281","","","","2","",""
"837","tooth","kijiko,uadui,pahiyum,kabalaka","kabalaka","n","5","html-keyboard-response","282","v","uadui","false","","",""
"3373.5999999940395","","","","","5","html-slider-response","283","","","","2","",""
"1293","shop","nopya,kerida,ndezu,samaki","samaki","n","5","html-keyboard-response","284","n","samaki","true","","",""
"3056.4000000059605","","","","","5","html-slider-response","285","","","","2","",""
"797","sun","bendi,basi,luha,uongo","basi","v","5","html-keyboard-response","286","v","basi","true","","",""
"2804.2000000029802","","","","","5","html-slider-response","287","","","","2","",""
"1101","knee","duka,mvuke,kubale,bili","duka","f","5","html-keyboard-response","288","j","kubale","false","","",""
"2383.6000000089407","","","","","5","html-slider-response","289","","","","2","",""
"966","fork","baboy,paghago,mgonjwa,gorisi","mgonjwa","j","5","html-keyboard-response","290","v","paghago","false","","",""
"2795.2000000029802","","","","","5","html-slider-response","291","","","","2","",""
"2022","wolf","kaburi,lugha,ndizi,mchuzi","lugha","v","5","html-keyboard-response","292","n","mchuzi","false","","",""
"2838.6000000089407","","","","","5","html-slider-response","293","","","","2","",""
"1258","sheet","juuya,watu,kamantis,bililhon","bililhon","n","5","html-keyboard-response","294","v","watu","false","","",""
"2298.2999999970198","","","","","5","html-slider-response","295","","","","2","",""
"1354","giraffe","daraja,mahitabo,jumatu,hangyo","mahitabo","v","5","html-keyboard-response","296","j","jumatu","false","","",""
"2656.1000000089407","","","","","5","html-slider-response","297","","","","2","",""
"1381","bread","kaili,dari,dizeli,bugas","dari","v","5","html-keyboard-response","298","v","dari","true","","",""
"2635.4000000059605","","","","","5","html-slider-response","299","","","","2","",""
"1135","box","kuacha,rafiki,adui,kitande","adui","j","5","html-keyboard-response","300","n","kitande","false","","",""
"2892.2000000029802","","","","","5","html-slider-response","301","","","","2","",""
"1118","cop","mechezo,bustani,jikoni,bakus","mechezo","f","5","html-keyboard-response","302","v","bustani","false","","",""
"4395.79999999702","","","","","5","html-slider-response","303","","","","2","",""
"2788","fish","bala,buli,baho,imani","buli","v","5","html-keyboard-response","304","f","bala","false","","",""
"3203.699999988079","","","","","5","html-slider-response","305","","","","2","",""
"1445","door","tena,surali,soko,nyota","surali","v","5","html-keyboard-response","306","j","soko","false","","",""
"2863.5","","","","","5","html-slider-response","307","","","","2","",""
"2479","woman","bandari,bituin,kovuli,pagtabon","pagtabon","n","5","html-keyboard-response","308","n","pagtabon","true","","",""
"2167.4000000059605","","","","","5","html-slider-response","309","","","","2","",""
"1358","clock","kartasi,mbwa,abang,osha","mbwa","v","5","html-keyboard-response","310","v","mbwa","true","","",""
"2972","","","","","5","html-slider-response","311","","","","2","",""
"1026","berry","abogado,nogozi,kinywa,kofia","kofia","n","5","html-keyboard-response","312","n","kofia","true","","",""
"2579.9000000059605","","","","","5","html-slider-response","313","","","","2","",""
"1957","towel","pagpalit,tembo,funzi,pito","pagpalit","f","5","html-keyboard-response","314","j","funzi","false","","",""
"3016.9000000059605","","","","","5","html-slider-response","315","","","","2","",""
"1269","pudding","abug,mpishi,iring,aibu","aibu","n","5","html-keyboard-response","316","v","mpishi","false","","",""
"2918.2000000029802","","","","","5","html-slider-response","317","","","","2","",""
"1664","park","bunifu,tambok,pwani,ihalas","bunifu","f","5","html-keyboard-response","318","v","tambok","false","","",""
"2641","","","","","5","html-slider-response","319","","","","2","",""
"1269","body","nyundu,jibini,kununa,tindashan","tindashan","n","5","html-keyboard-response","320","n","tindashan","true","","",""
"2366","","","","","5","html-slider-response","321","","","","2","",""
"1115","olive","bata,siagi,jiwe,welder","jiwe","j","5","html-keyboard-response","322","v","siagi","false","","",""
"2396.5","","","","","5","html-slider-response","323","","","","2","",""
"1109","poster","madungog,nchi,fedha,kasuko","madungog","f","5","html-keyboard-response","324","j","fedha","false","","",""
"2342.3999999910593","","","","","5","html-slider-response","325","","","","2","",""
"968","hammer","mekno,kitovu,layag,napakyas","napakyas","n","5","html-keyboard-response","326","v","kitovu","false","","",""
"2438.8999999910593","","","","","5","html-slider-response","327","","","","2","",""
"1064","train","itik,dakika,mungu,sayari","sayari","n","5","html-keyboard-response","328","n","sayari","true","","",""
"3887.6000000089407","","","","","5","html-slider-response","329","","","","2","",""
"1035","cigar","ndugu,kuta,mlango,adhabu","adhabu","n","5","html-keyboard-response","330","v","kuta","false","","",""
"2672.3999999910593","","","","","5","html-slider-response","331","","","","2","",""
"1010","spider","bunyag,kamwe,mkboa,atop","kamwe","v","5","html-keyboard-response","332","n","atop","false","","",""
"2805.8999999910593","","","","","5","html-slider-response","333","","","","2","",""
"1131","notebook","msitu,kila,mdudu,kemia","kemia","n","5","html-keyboard-response","334","j","mdudu","false","","",""
"4885.9000000059605","","","","","5","html-slider-response","335","","","","2","",""
"1080","candle","gabi,geza,farasi,kupanda","geza","v","5","html-keyboard-response","336","v","geza","true","","",""
"2565","","","","","5","html-slider-response","337","","","","2","",""
"1065","column","pundok,dila,pala,ufagio","ufagio","n","5","html-keyboard-response","338","v","dila","false","","",""
"2005.2999999970198","","","","","5","html-slider-response","339","","","","2","",""
"1162","basket","kumbuka,utepe,hasira,kumba","kumba","n","5","html-keyboard-response","340","j","hasira","false","","",""
"3421.4000000059605","","","","","5","html-slider-response","341","","","","2","",""
"867","page","wimbo,wakala,ishiri,skina","wimbo","f","5","html-keyboard-response","342","v","wakala","false","","",""
"2581.0999999940395","","","","","5","html-slider-response","343","","","","2","",""
"1050","bridge","sahani,daima,ngono,panya","sahani","f","5","html-keyboard-response","344","n","panya","false","","",""
"2851.2000000029802","","","","","5","html-slider-response","345","","","","2","",""
"1057","window","nanga,kujenga,umaga,kweli","kweli","n","5","html-keyboard-response","346","v","kujenga","false","","",""
"2267","","","","","5","html-slider-response","347","","","","2","",""
"927","snake","jansa,karon,pagtukod,mvringo","pagtukod","j","5","html-keyboard-response","348","n","mvringo","false","","",""
"2481","","","","","5","html-slider-response","349","","","","2","",""
"3764","flag","ndege,mkate,trekta,kawa","trekta","j","5","html-keyboard-response","350","v","mkate","false","","",""
"2479.2999999970198","","","","","5","html-slider-response","351","","","","2","",""
"1577","bed","kalipay,mapintas,haraka,starehe","mapintas","v","5","html-keyboard-response","352","v","mapintas","true","","",""
"3181.6000000089407","","","","","5","html-slider-response","353","","","","2","",""
"999","music","mraba,baiski,mageho,tumbo","baiski","v","5","html-keyboard-response","354","n","tumbo","false","","",""
"2581.7000000029802","","","","","5","html-slider-response","355","","","","2","",""
"1533","gift","baba,pagtawag,nyange,baso","pagtawag","v","5","html-keyboard-response","356","v","pagtawag","true","","",""
"3533.7000000029802","","","","","5","html-slider-response","357","","","","2","",""
"1118","bonfire","goti,mwezi,mfuko,kusanya","goti","f","5","html-keyboard-response","358","n","kusanya","false","","",""
"2913.7999999970198","","","","","5","html-slider-response","359","","","","2","",""
"947","scissors","duga,tanuri,mtawa,suga","tanuri","v","5","html-keyboard-response","360","j","mtawa","false","","",""
"2755.5999999940395","","","","","5","html-slider-response","361","","","","2","",""
"1164","eel","ishara,kunywa,kabuang,msumari","msumari","n","5","html-keyboard-response","362","j","kabuang","false","","",""
"3421.5999999940395","","","","","5","html-slider-response","363","","","","2","",""
"1046","pants","pintal,chuki,hari,haki","haki","n","5","html-keyboard-response","364","n","haki","true","","",""
"2725.5999999940395","","","","","5","html-slider-response","365","","","","2","",""
"1497","triangle","kihozi,kasadpan,bentaha,liog","kasadpan","v","5","html-keyboard-response","366","n","liog","false","","",""
"2768.9000000059605","","","","","5","html-slider-response","367","","","","2","",""
"9170.40000000596","","","","","6","html-slider-response","369","","","","","1",""
"5516","","","","","6","html-keyboard-response","370","","","","","","false"
