"rt","en_word","options","swa_word","correct_answer","phase","trial_type","trial_index","input_answer","input_word","accuracy","certainty","swahili_knowledge","previous_subject"
"3152","sun","bendi,basi,luha,uongo","basi","v","4","html-keyboard-response","5","v","basi","true","","",""
"3947.600000023842","","","","","4","html-slider-response","6","","","","2","",""
"3147","basket","kumba,kumbuka,utepe,hasira","kumba","f","4","html-keyboard-response","7","n","hasira","false","","",""
"2153.2000000476837","","","","","4","html-slider-response","8","","","","2","",""
"4603","curtain","lisud,bulwawan,chubani,mchanga","mchanga","n","4","html-keyboard-response","9","n","mchanga","true","","",""
"2026.3999999761581","","","","","4","html-slider-response","10","","","","4","",""
"6913","park","tambok,pwani,bunifu,ihalas","bunifu","j","4","html-keyboard-response","11","j","bunifu","true","","",""
"2340","","","","","4","html-slider-response","12","","","","1","",""
"6006","nose","sehemu,gubat,kopa,kidole","sehemu","f","4","html-keyboard-response","13","v","gubat","false","","",""
"2269.899999976158","","","","","4","html-slider-response","14","","","","1","",""
"6422","window","nanga,kujenga,umaga,kweli","kweli","n","4","html-keyboard-response","15","f","nanga","false","","",""
"2543.8000000715256","","","","","4","html-slider-response","16","","","","1","",""
"2649","cave","ganti,maisha,kesho,nyundo","kesho","j","4","html-keyboard-response","17","j","kesho","true","","",""
"2484","","","","","4","html-slider-response","18","","","","5","",""
"2028","woman","bandari,bituin,pagtabon,kovuli","pagtabon","j","4","html-keyboard-response","19","j","pagtabon","true","","",""
"1865.2999999523163","","","","","4","html-slider-response","20","","","","5","",""
"6204","bed","mapintas,kalipay,haraka,starehe","mapintas","f","4","html-keyboard-response","21","f","mapintas","true","","",""
"2297.6999999284744","","","","","4","html-slider-response","22","","","","1","",""
"3446","column","pundok,dila,pala,ufagio","ufagio","n","4","html-keyboard-response","23","n","ufagio","true","","",""
"2366.899999976158","","","","","4","html-slider-response","24","","","","1","",""
"3969","fish","bala,baho,buli,imani","buli","j","4","html-keyboard-response","25","j","buli","true","","",""
"2252.6999999284744","","","","","4","html-slider-response","26","","","","4","",""
"6841","boat","hamsi,pombe,kitanda,agalon","agalon","n","4","html-keyboard-response","27","f","hamsi","false","","",""
"2299.399999976158","","","","","4","html-slider-response","28","","","","2","",""
"4076","cop","mechezo,bustani,jikoni,bakus","mechezo","f","4","html-keyboard-response","29","v","bustani","false","","",""
"1616.5","","","","","4","html-slider-response","30","","","","5","",""
"5882","shoulder","kelele,ndaniya,mkuu,guruwe","mkuu","j","4","html-keyboard-response","31","f","kelele","false","","",""
"1930.2000000476837","","","","","4","html-slider-response","32","","","","2","",""
"6822","magazine","kiti,gundi,mchawi,bahandi","kiti","f","4","html-keyboard-response","33","n","bahandi","false","","",""
"2310.7999999523163","","","","","4","html-slider-response","34","","","","3","",""
"3814","gift","baba,nyange,baso,pagtawag","pagtawag","n","4","html-keyboard-response","35","n","pagtawag","true","","",""
"2023","","","","","4","html-slider-response","36","","","","4","",""
"2318","clock","kartasi,abang,osha,mbwa","mbwa","n","4","html-keyboard-response","37","n","mbwa","true","","",""
"1926.3999999761581","","","","","4","html-slider-response","38","","","","5","",""
"7034","squirrel","hofu,mahugaw,ukweli,kichwa","hofu","f","4","html-keyboard-response","39","f","hofu","true","","",""
"2473.7999999523163","","","","","4","html-slider-response","40","","","","5","",""
"2147","key","miaka,chombo,goma,ahos","chombo","v","4","html-keyboard-response","41","v","chombo","true","","",""
"1586.7999999523163","","","","","4","html-slider-response","42","","","","5","",""
"2127","salmon","mzungu,seri,baharia,sensilyo","sensilyo","n","4","html-keyboard-response","43","n","sensilyo","true","","",""
"1750.2000000476837","","","","","4","html-slider-response","44","","","","5","",""
"5698","puppet","napulo,mazishi,lamok,godoro","mazishi","v","4","html-keyboard-response","45","v","mazishi","true","","",""
"2347.7999999523163","","","","","4","html-slider-response","46","","","","1","",""
"4056","letter","kifua,filimbi,chuma,uhuru","kifua","f","4","html-keyboard-response","47","n","uhuru","false","","",""
"1893.2999999523163","","","","","4","html-slider-response","48","","","","4","",""
"2696","flag","ndege,mkate,kawa,trekta","trekta","n","4","html-keyboard-response","49","n","trekta","true","","",""
"2245.100000023842","","","","","4","html-slider-response","50","","","","4","",""
"2983","mother","kahawa,babaye,mbuzi,jokofu","babaye","v","4","html-keyboard-response","51","v","babaye","true","","",""
"1782.2000000476837","","","","","4","html-slider-response","52","","","","5","",""
"4907","ceiling","kugita,kawaida,maua,rayna","maua","j","4","html-keyboard-response","53","j","maua","true","","",""
"1786.1999999284744","","","","","4","html-slider-response","54","","","","1","",""
"2145","stone","ulimwengu,mkasi,asili,wingi","wingi","n","4","html-keyboard-response","55","n","wingi","true","","",""
"1435.5999999046326","","","","","4","html-slider-response","56","","","","5","",""
"5193","sock","ndoora,kimysa,mamba,mtirka","mamba","j","4","html-keyboard-response","57","j","mamba","true","","",""
"1699","","","","","4","html-slider-response","58","","","","1","",""
"4078","rose","paghalad,singizi,mwanake,amani","paghalad","f","4","html-keyboard-response","59","f","paghalad","true","","",""
"1926.9000000953674","","","","","4","html-slider-response","60","","","","4","",""
"3758","office","hazini,leso,yatima,kuna","leso","v","4","html-keyboard-response","61","v","leso","true","","",""
"2951.2000000476837","","","","","4","html-slider-response","62","","","","3","",""
"2046","number","shule,mundamo,kengele,choori","mundamo","v","4","html-keyboard-response","63","v","mundamo","true","","",""
"1839.2999999523163","","","","","4","html-slider-response","64","","","","5","",""
"5885","lamp","daub,bilaska,mbolea,afya","afya","n","4","html-keyboard-response","65","f","daub","false","","",""
"1719.1999999284744","","","","","4","html-slider-response","66","","","","1","",""
"2223","dog","lubi,washia,bahari,kalamu","bahari","j","4","html-keyboard-response","67","j","bahari","true","","",""
"1605.8000000715256","","","","","4","html-slider-response","68","","","","5","",""
"1918","mosquito","isda,taras,martilyo,gutom","martilyo","j","4","html-keyboard-response","69","j","martilyo","true","","",""
"1934.5","","","","","4","html-slider-response","70","","","","5","",""
"6951","notebook","msitu,kila,mdudu,kemia","kemia","n","4","html-keyboard-response","71","j","mdudu","false","","",""
"1766.5","","","","","4","html-slider-response","72","","","","2","",""
"3695","apple","ukame,estante,edad,kisu","kisu","n","4","html-keyboard-response","73","n","kisu","true","","",""
"1710.1999999284744","","","","","4","html-slider-response","74","","","","2","",""
"4287","cigar","adhabu,ndugu,kuta,mlango","adhabu","f","4","html-keyboard-response","75","v","ndugu","false","","",""
"1764.6000000238419","","","","","4","html-slider-response","76","","","","1","",""
"2909","coffin","barua,tubag,hulma,kioo","kioo","n","4","html-keyboard-response","77","n","kioo","true","","",""
"2223.2999999523163","","","","","4","html-slider-response","78","","","","5","",""
"3046","shelf","pamahaw,bungtod,kadaot,awit","pamahaw","f","4","html-keyboard-response","79","f","pamahaw","true","","",""
"3061.7000000476837","","","","","4","html-slider-response","80","","","","3","",""
"4717","bread","kaili,dizeli,bugas,dari","dari","n","4","html-keyboard-response","81","n","dari","true","","",""
"2039.5","","","","","4","html-slider-response","82","","","","2","",""
"2400","olive","bata,jiwe,siagi,welder","jiwe","v","4","html-keyboard-response","83","v","jiwe","true","","",""
"1788.2999999523163","","","","","4","html-slider-response","84","","","","5","",""
"3279","spider","bunyag,mkboa,kamwe,atop","kamwe","j","4","html-keyboard-response","85","j","kamwe","true","","",""
"1990.5","","","","","4","html-slider-response","86","","","","5","",""
"2770","cat","paghukom,neyemba,baki,akili","paghukom","f","4","html-keyboard-response","87","f","paghukom","true","","",""
"1907.0999999046326","","","","","4","html-slider-response","88","","","","5","",""
"4437","pudding","aibu,abug,mpishi,iring","aibu","f","4","html-keyboard-response","89","j","mpishi","false","","",""
"2271.399999976158","","","","","4","html-slider-response","90","","","","2","",""
"5338","towel","tembo,pagpalit,funzi,pito","pagpalit","v","4","html-keyboard-response","91","f","tembo","false","","",""
"1659.3999999761581","","","","","4","html-slider-response","92","","","","2","",""
"4377","bucket","baga,ijayo,kiatu,init","kiatu","j","4","html-keyboard-response","93","j","kiatu","true","","",""
"1947.3000000715256","","","","","4","html-slider-response","94","","","","2","",""
"7095","wheel","bafuni,punda,tawo,baadaye","bafuni","f","4","html-keyboard-response","95","n","baadaye","false","","",""
"1838.8000000715256","","","","","4","html-slider-response","96","","","","1","",""
"6069","ladder","mashua,mwanga,kamba,pangalan","pangalan","n","4","html-keyboard-response","97","j","kamba","false","","",""
"1974.5","","","","","4","html-slider-response","98","","","","2","",""
"4760","marker","mapafu,salita,atay,maji","maji","n","4","html-keyboard-response","99","n","maji","true","","",""
"1700.6999999284744","","","","","4","html-slider-response","100","","","","5","",""
"4314","tomato","chupi,chupa,mvua,takatak","mvua","j","4","html-keyboard-response","101","v","chupa","false","","",""
"1546.6000000238419","","","","","4","html-slider-response","102","","","","4","",""
"4828","door","tena,soko,surali,nyota","surali","j","4","html-keyboard-response","103","j","surali","true","","",""
"1704.0999999046326","","","","","4","html-slider-response","104","","","","2","",""
"4810","bonfire","mwezi,mfuko,kusanya,goti","goti","n","4","html-keyboard-response","105","n","goti","true","","",""
"1778.5","","","","","4","html-slider-response","106","","","","4","",""
"3919","mirror","rangi,kanding,furaha,sulagma","sulagma","n","4","html-keyboard-response","107","v","kanding","false","","",""
"1677.5","","","","","4","html-slider-response","108","","","","1","",""
"24806","giraffe","daraja,mahitabo,jumatu,hangyo","mahitabo","v","4","html-keyboard-response","109","v","mahitabo","true","","",""
"1599","","","","","4","html-slider-response","110","","","","2","",""
"6110","tissue","ugomvi,lamigas,kisiwa,katika","ugomvi","f","4","html-keyboard-response","111","j","kisiwa","false","","",""
"1574.8000000715256","","","","","4","html-slider-response","112","","","","2","",""
"5401","snake","pagtukod,jansa,karon,mvringo","pagtukod","f","4","html-keyboard-response","113","f","pagtukod","true","","",""
"1931.8999999761581","","","","","4","html-slider-response","114","","","","4","",""
"2314","finger","simu,sufuria,moyo,lima","moyo","j","4","html-keyboard-response","115","j","moyo","true","","",""
"2179.600000023842","","","","","4","html-slider-response","116","","","","4","",""
"7369","train","sayari,itik,dakika,mungu","sayari","f","4","html-keyboard-response","117","f","sayari","true","","",""
"2740.3000000715256","","","","","4","html-slider-response","118","","","","2","",""
"5874","candle","gabi,farasi,kupanda,geza","geza","n","4","html-keyboard-response","119","f","gabi","false","","",""
"1914.5","","","","","4","html-slider-response","120","","","","2","",""
"2922","book","kuhesa,picha,mali,mara","mali","j","4","html-keyboard-response","121","j","mali","true","","",""
"2330.7000000476837","","","","","4","html-slider-response","122","","","","2","",""
"2244","elephant","kito,petye,pagduol,suka","kito","f","4","html-keyboard-response","123","f","kito","true","","",""
"2265","","","","","4","html-slider-response","124","","","","5","",""
"4943","sheet","bililhon,juuya,watu,kamantis","bililhon","f","4","html-keyboard-response","125","f","bililhon","true","","",""
"5317.399999976158","","","","","4","html-slider-response","126","","","","3","",""
"4745","banana","kasamok,kazi,hagdan,twai","kazi","v","4","html-keyboard-response","127","v","kazi","true","","",""
"2980.2999999523163","","","","","4","html-slider-response","128","","","","2","",""
"6631","perfume","bino,sungura,katuyoan,ndogo","katuyoan","j","4","html-keyboard-response","129","v","sungura","false","","",""
"3445.600000023842","","","","","4","html-slider-response","130","","","","2","",""
"2989","bank","kudhibi,tualya,silingan,ofisi","silingan","j","4","html-keyboard-response","131","n","ofisi","false","","",""
"2376.5","","","","","4","html-slider-response","132","","","","4","",""
"5742","tooth","kijiko,uadui,pahiyum,kabalaka","kabalaka","n","4","html-keyboard-response","133","n","kabalaka","true","","",""
"1727.1999999284744","","","","","4","html-slider-response","134","","","","4","",""
"9606","hill","matumbo,kushoto,kukimba,sweta","matumbo","f","4","html-keyboard-response","135","f","matumbo","true","","",""
"1639.1000000238419","","","","","4","html-slider-response","136","","","","2","",""
"4681","music","mraba,baiski,mageho,tumbo","baiski","v","4","html-keyboard-response","137","v","baiski","true","","",""
"2059.399999976158","","","","","4","html-slider-response","138","","","","2","",""
"3564","pants","pintal,chuki,hari,haki","haki","n","4","html-keyboard-response","139","n","haki","true","","",""
"1656.2000000476837","","","","","4","html-slider-response","140","","","","4","",""
"2410","donkey","elfu,bloke,lalake,rombus","elfu","f","4","html-keyboard-response","141","f","elfu","true","","",""
"2098.5","","","","","4","html-slider-response","142","","","","5","",""
"7572","bridge","daima,sahani,ngono,panya","sahani","v","4","html-keyboard-response","143","f","daima","false","","",""
"2200.399999976158","","","","","4","html-slider-response","144","","","","2","",""
"3216","list","alizeti,kuzama,wingu,kaso","wingu","j","4","html-keyboard-response","145","j","wingu","true","","",""
"2356.5","","","","","4","html-slider-response","146","","","","5","",""
"2187","box","kuacha,rafiki,adui,kitande","adui","j","4","html-keyboard-response","147","j","adui","true","","",""
"2161.899999976158","","","","","4","html-slider-response","148","","","","5","",""
"7976","wolf","kaburi,ndizi,mchuzi,lugha","lugha","n","4","html-keyboard-response","149","f","kaburi","false","","",""
"3308.7999999523163","","","","","4","html-slider-response","150","","","","4","",""
"2856","poster","nchi,fedha,kasuko,madungog","madungog","n","4","html-keyboard-response","151","n","madungog","true","","",""
"2125.100000023842","","","","","4","html-slider-response","152","","","","4","",""
"16594","eel","ishara,kunywa,kabuang,msumari","msumari","n","4","html-keyboard-response","153","f","ishara","false","","",""
"15259.5","","","","","4","html-slider-response","154","","","","4","",""
"3700","scissors","duga,mtawa,tanuri,suga","tanuri","j","4","html-keyboard-response","155","v","mtawa","false","","",""
"2311.899999976158","","","","","4","html-slider-response","156","","","","4","",""
"20950","shop","nopya,kerida,ndezu,samaki","samaki","n","4","html-keyboard-response","157","n","samaki","true","","",""
"2206.100000023842","","","","","4","html-slider-response","158","","","","4","",""
"11526","flower","bega,tamasha,lobo,usiku","bega","f","4","html-keyboard-response","159","j","lobo","false","","",""
"2358.399999976158","","","","","4","html-slider-response","160","","","","4","",""
"5531","picture","kubwa,silya,chaki,asin","kubwa","f","4","html-keyboard-response","161","j","chaki","false","","",""
"2250","","","","","4","html-slider-response","162","","","","4","",""
"3884","spoon","betri,pagsulod,nzuri,ngazi","pagsulod","v","4","html-keyboard-response","163","v","pagsulod","true","","",""
"2329.100000023842","","","","","4","html-slider-response","164","","","","2","",""
"3418","fork","baboy,mgonjwa,paghago,gorisi","mgonjwa","v","4","html-keyboard-response","165","j","paghago","false","","",""
"1659.3999999761581","","","","","4","html-slider-response","166","","","","2","",""
"4720","shoe","nyeusi,hatua,kama,uyoga","uyoga","n","4","html-keyboard-response","167","n","uyoga","true","","",""
"2021.3000000715256","","","","","4","html-slider-response","168","","","","4","",""
"4912","human","tinapay,bado,kikapu,punguza","tinapay","f","4","html-keyboard-response","169","f","tinapay","true","","",""
"2437.600000023842","","","","","4","html-slider-response","170","","","","4","",""
"5673","cup","dagat,shimoni,matumai,jeraha","matumai","j","4","html-keyboard-response","171","j","matumai","true","","",""
"2092.2999999523163","","","","","4","html-slider-response","172","","","","2","",""
"4887","hammer","napakyas,mekno,kitovu,layag","napakyas","f","4","html-keyboard-response","173","f","napakyas","true","","",""
"1534","","","","","4","html-slider-response","174","","","","2","",""
"19199","body","nyundu,jibini,tindashan,kununa","tindashan","j","4","html-keyboard-response","175","n","kununa","false","","",""
"3133.600000023842","","","","","4","html-slider-response","176","","","","2","",""
"19742","page","wakala,ishiri,skina,wimbo","wimbo","n","4","html-keyboard-response","177","n","wimbo","true","","",""
"3389.899999976158","","","","","4","html-slider-response","178","","","","5","",""
"9655","triangle","kasadpan,kihozi,bentaha,liog","kasadpan","f","4","html-keyboard-response","179","f","kasadpan","true","","",""
"8717.600000023842","","","","","4","html-slider-response","180","","","","1","",""
"28799","berry","kofia,abogado,nogozi,kinywa","kofia","f","4","html-keyboard-response","181","f","kofia","true","","",""
"2821.2999999523163","","","","","4","html-slider-response","182","","","","5","",""
"5448","knee","mvuke,duka,kubale,bili","duka","v","4","html-keyboard-response","183","j","kubale","false","","",""
"2508.5","","","","","4","html-slider-response","184","","","","4","",""
"2993","picture","kubwa,silya,chaki,asin","kubwa","f","5","html-keyboard-response","188","f","kubwa","true","","",""
"2428.7999999523163","","","","","5","html-slider-response","189","","","","2","",""
"9275","elephant","petye,kito,pagduol,suka","kito","v","5","html-keyboard-response","190","v","kito","true","","",""
"2930.3000000715256","","","","","5","html-slider-response","191","","","","5","",""
"6780","office","hazini,yatima,kuna,leso","leso","n","5","html-keyboard-response","192","n","leso","true","","",""
"2336.600000023842","","","","","5","html-slider-response","193","","","","5","",""
"3070","perfume","bino,sungura,ndogo,katuyoan","katuyoan","n","5","html-keyboard-response","194","v","sungura","false","","",""
"1606.4000000953674","","","","","5","html-slider-response","195","","","","2","",""
"5303","salmon","mzungu,seri,baharia,sensilyo","sensilyo","n","5","html-keyboard-response","196","n","sensilyo","true","","",""
"1838.1000000238419","","","","","5","html-slider-response","197","","","","5","",""
"4172","dog","bahari,lubi,washia,kalamu","bahari","f","5","html-keyboard-response","198","f","bahari","true","","",""
"48498.199999928474","","","","","5","html-slider-response","199","","","","1","",""
"4033","wheel","punda,bafuni,tawo,baadaye","bafuni","v","5","html-keyboard-response","200","n","baadaye","false","","",""
"1642.8999999761581","","","","","5","html-slider-response","201","","","","1","",""
"3073","cat","neyemba,paghukom,baki,akili","paghukom","v","5","html-keyboard-response","202","v","paghukom","true","","",""
"3108.2999999523163","","","","","5","html-slider-response","203","","","","5","",""
"6799","curtain","lisud,mchanga,bulwawan,chubani","mchanga","v","5","html-keyboard-response","204","n","chubani","false","","",""
"3214.3000000715256","","","","","5","html-slider-response","205","","","","2","",""
"4156","flower","bega,tamasha,lobo,usiku","bega","f","5","html-keyboard-response","206","f","bega","true","","",""
"1617.2000000476837","","","","","5","html-slider-response","207","","","","2","",""
"2095","number","shule,mundamo,kengele,choori","mundamo","v","5","html-keyboard-response","208","v","mundamo","true","","",""
"2277.899999976158","","","","","5","html-slider-response","209","","","","5","",""
"5476","banana","kasamok,hagdan,twai,kazi","kazi","n","5","html-keyboard-response","210","n","kazi","true","","",""
"1440.6000000238419","","","","","5","html-slider-response","211","","","","2","",""
"4029","magazine","gundi,mchawi,bahandi,kiti","kiti","n","5","html-keyboard-response","212","j","bahandi","false","","",""
"2424","","","","","5","html-slider-response","213","","","","2","",""
"3233","donkey","bloke,elfu,lalake,rombus","elfu","v","5","html-keyboard-response","214","v","elfu","true","","",""
"2762.8000000715256","","","","","5","html-slider-response","215","","","","5","",""
"2261","mosquito","isda,martilyo,taras,gutom","martilyo","v","5","html-keyboard-response","216","v","martilyo","true","","",""
"1727.8999999761581","","","","","5","html-slider-response","217","","","","2","",""
"2756","shoe","nyeusi,uyoga,hatua,kama","uyoga","v","5","html-keyboard-response","218","n","kama","false","","",""
"3272.100000023842","","","","","5","html-slider-response","219","","","","1","",""
"2549","stone","ulimwengu,mkasi,wingi,asili","wingi","j","5","html-keyboard-response","220","j","wingi","true","","",""
"1656.2999999523163","","","","","5","html-slider-response","221","","","","5","",""
"2823","tomato","mvua,chupi,chupa,takatak","mvua","f","5","html-keyboard-response","222","j","chupa","false","","",""
"1710.2999999523163","","","","","5","html-slider-response","223","","","","5","",""
"3473","ceiling","kugita,maua,kawaida,rayna","maua","v","5","html-keyboard-response","224","j","kawaida","false","","",""
"2123.7999999523163","","","","","5","html-slider-response","225","","","","4","",""
"3897","mirror","rangi,kanding,sulagma,furaha","sulagma","j","5","html-keyboard-response","226","f","rangi","false","","",""
"2284.3000000715256","","","","","5","html-slider-response","227","","","","1","",""
"2479","coffin","barua,tubag,kioo,hulma","kioo","j","5","html-keyboard-response","228","j","kioo","true","","",""
"1574.2999999523163","","","","","5","html-slider-response","229","","","","5","",""
"2402","spoon","pagsulod,betri,nzuri,ngazi","pagsulod","f","5","html-keyboard-response","230","f","pagsulod","true","","",""
"1595.1999999284744","","","","","5","html-slider-response","231","","","","2","",""
"2287","marker","mapafu,salita,maji,atay","maji","j","5","html-keyboard-response","232","j","maji","true","","",""
"16870.600000023842","","","","","5","html-slider-response","233","","","","5","",""
"33796","list","alizeti,kuzama,kaso,wingu","wingu","n","5","html-keyboard-response","234","n","wingu","true","","",""
"1911.6999999284744","","","","","5","html-slider-response","235","","","","5","",""
"2628","hill","kushoto,matumbo,kukimba,sweta","matumbo","v","5","html-keyboard-response","236","v","matumbo","true","","",""
"1480","","","","","5","html-slider-response","237","","","","2","",""
"8306","shelf","bungtod,kadaot,awit,pamahaw","pamahaw","n","5","html-keyboard-response","238","n","pamahaw","true","","",""
"2002.5","","","","","5","html-slider-response","239","","","","2","",""
"2395","bucket","kiatu,baga,ijayo,init","kiatu","f","5","html-keyboard-response","240","j","ijayo","false","","",""
"2065.399999976158","","","","","5","html-slider-response","241","","","","4","",""
"4958","ladder","mashua,mwanga,kamba,pangalan","pangalan","n","5","html-keyboard-response","242","j","kamba","false","","",""
"1975.1999999284744","","","","","5","html-slider-response","243","","","","4","",""
"1880","human","bado,tinapay,kikapu,punguza","tinapay","v","5","html-keyboard-response","244","v","tinapay","true","","",""
"1445.7999999523163","","","","","5","html-slider-response","245","","","","5","",""
"5788","tissue","ugomvi,lamigas,kisiwa,katika","ugomvi","f","5","html-keyboard-response","246","j","kisiwa","false","","",""
"1769.2999999523163","","","","","5","html-slider-response","247","","","","1","",""
"2583","finger","moyo,simu,sufuria,lima","moyo","f","5","html-keyboard-response","248","f","moyo","true","","",""
"1606.7000000476837","","","","","5","html-slider-response","249","","","","5","",""
"5065","cave","ganti,kesho,maisha,nyundo","kesho","v","5","html-keyboard-response","250","v","kesho","true","","",""
"1363.1999999284744","","","","","5","html-slider-response","251","","","","4","",""
"2469","rose","singizi,mwanake,paghalad,amani","paghalad","j","5","html-keyboard-response","252","j","paghalad","true","","",""
"1431.7999999523163","","","","","5","html-slider-response","253","","","","5","",""
"3269","lamp","daub,afya,bilaska,mbolea","afya","v","5","html-keyboard-response","254","v","afya","true","","",""
"1416.3999999761581","","","","","5","html-slider-response","255","","","","2","",""
"3316","shoulder","kelele,mkuu,ndaniya,guruwe","mkuu","v","5","html-keyboard-response","256","f","kelele","false","","",""
"2535.0999999046326","","","","","5","html-slider-response","257","","","","2","",""
"5074","sock","ndoora,kimysa,mtirka,mamba","mamba","n","5","html-keyboard-response","258","n","mamba","true","","",""
"1490.2000000476837","","","","","5","html-slider-response","259","","","","4","",""
"2035","mother","kahawa,mbuzi,jokofu,babaye","babaye","n","5","html-keyboard-response","260","n","babaye","true","","",""
"1729.8999999761581","","","","","5","html-slider-response","261","","","","5","",""
"4723","key","miaka,goma,chombo,ahos","chombo","j","5","html-keyboard-response","262","j","chombo","true","","",""
"1729.6999999284744","","","","","5","html-slider-response","263","","","","5","",""
"1858","squirrel","mahugaw,ukweli,hofu,kichwa","hofu","j","5","html-keyboard-response","264","j","hofu","true","","",""
"1658.2999999523163","","","","","5","html-slider-response","265","","","","5","",""
"4606","nose","sehemu,gubat,kopa,kidole","sehemu","f","5","html-keyboard-response","266","n","kidole","false","","",""
"1790.8999999761581","","","","","5","html-slider-response","267","","","","2","",""
"2941","book","kuhesa,picha,mara,mali","mali","n","5","html-keyboard-response","268","n","mali","true","","",""
"1799.7999999523163","","","","","5","html-slider-response","269","","","","1","",""
"2937","bank","kudhibi,tualya,silingan,ofisi","silingan","j","5","html-keyboard-response","270","n","ofisi","false","","",""
"4619.799999952316","","","","","5","html-slider-response","271","","","","4","",""
"6008","cup","dagat,shimoni,jeraha,matumai","matumai","n","5","html-keyboard-response","272","j","jeraha","false","","",""
"2028","","","","","5","html-slider-response","273","","","","2","",""
"4023","boat","hamsi,pombe,kitanda,agalon","agalon","n","5","html-keyboard-response","274","f","hamsi","false","","",""
"1829.6999999284744","","","","","5","html-slider-response","275","","","","2","",""
"4617","letter","filimbi,chuma,uhuru,kifua","kifua","n","5","html-keyboard-response","276","j","uhuru","false","","",""
"2667.7000000476837","","","","","5","html-slider-response","277","","","","2","",""
"4829","puppet","napulo,lamok,godoro,mazishi","mazishi","n","5","html-keyboard-response","278","n","mazishi","true","","",""
"1655.6000000238419","","","","","5","html-slider-response","279","","","","2","",""
"2715","apple","ukame,estante,edad,kisu","kisu","n","5","html-keyboard-response","280","n","kisu","true","","",""
"1681.2999999523163","","","","","5","html-slider-response","281","","","","2","",""
"1741","tooth","kijiko,uadui,kabalaka,pahiyum","kabalaka","j","5","html-keyboard-response","282","j","kabalaka","true","","",""
"2103.600000023842","","","","","5","html-slider-response","283","","","","4","",""
"4833","shop","samaki,nopya,kerida,ndezu","samaki","f","5","html-keyboard-response","284","j","kerida","false","","",""
"2546.8000000715256","","","","","5","html-slider-response","285","","","","2","",""
"3021","sun","bendi,basi,luha,uongo","basi","v","5","html-keyboard-response","286","v","basi","true","","",""
"1335.8000000715256","","","","","5","html-slider-response","287","","","","4","",""
"4923","knee","mvuke,kubale,duka,bili","duka","j","5","html-keyboard-response","288","n","bili","false","","",""
"1810.6000000238419","","","","","5","html-slider-response","289","","","","2","",""
"2959","fork","baboy,mgonjwa,paghago,gorisi","mgonjwa","v","5","html-keyboard-response","290","j","paghago","false","","",""
"1926.5","","","","","5","html-slider-response","291","","","","2","",""
"6587","wolf","kaburi,ndizi,lugha,mchuzi","lugha","j","5","html-keyboard-response","292","f","kaburi","false","","",""
"2049.899999976158","","","","","5","html-slider-response","293","","","","2","",""
"1918","sheet","bililhon,juuya,watu,kamantis","bililhon","f","5","html-keyboard-response","294","f","bililhon","true","","",""
"1407","","","","","5","html-slider-response","295","","","","2","",""
"3198","giraffe","mahitabo,daraja,jumatu,hangyo","mahitabo","f","5","html-keyboard-response","296","f","mahitabo","true","","",""
"1638","","","","","5","html-slider-response","297","","","","4","",""
"3282","bread","kaili,dizeli,dari,bugas","dari","j","5","html-keyboard-response","298","j","dari","true","","",""
"2491.600000023842","","","","","5","html-slider-response","299","","","","4","",""
"3111","box","kuacha,rafiki,kitande,adui","adui","n","5","html-keyboard-response","300","n","adui","true","","",""
"2302","","","","","5","html-slider-response","301","","","","5","",""
"2077","cop","mechezo,bustani,jikoni,bakus","mechezo","f","5","html-keyboard-response","302","v","bustani","false","","",""
"2287.600000023842","","","","","5","html-slider-response","303","","","","5","",""
"3199","fish","bala,baho,imani,buli","buli","n","5","html-keyboard-response","304","n","buli","true","","",""
"1885.3999999761581","","","","","5","html-slider-response","305","","","","2","",""
"5630","door","tena,soko,nyota,surali","surali","n","5","html-keyboard-response","306","n","surali","true","","",""
"2062.399999976158","","","","","5","html-slider-response","307","","","","2","",""
"2695","woman","bandari,pagtabon,bituin,kovuli","pagtabon","v","5","html-keyboard-response","308","v","pagtabon","true","","",""
"2246.100000023842","","","","","5","html-slider-response","309","","","","5","",""
"2486","clock","kartasi,abang,mbwa,osha","mbwa","j","5","html-keyboard-response","310","j","mbwa","true","","",""
"1670.5","","","","","5","html-slider-response","311","","","","4","",""
"2585","berry","abogado,kofia,nogozi,kinywa","kofia","v","5","html-keyboard-response","312","v","kofia","true","","",""
"1572.1000000238419","","","","","5","html-slider-response","313","","","","5","",""
"3601","towel","pagpalit,tembo,funzi,pito","pagpalit","f","5","html-keyboard-response","314","v","tembo","false","","",""
"1700.6999999284744","","","","","5","html-slider-response","315","","","","2","",""
"5726","pudding","abug,mpishi,aibu,iring","aibu","j","5","html-keyboard-response","316","v","mpishi","false","","",""
"2015.7000000476837","","","","","5","html-slider-response","317","","","","2","",""
"8355","park","tambok,pwani,ihalas,bunifu","bunifu","n","5","html-keyboard-response","318","j","ihalas","false","","",""
"2178.600000023842","","","","","5","html-slider-response","319","","","","2","",""
"8442","body","nyundu,jibini,kununa,tindashan","tindashan","n","5","html-keyboard-response","320","j","kununa","false","","",""
"2283.3000000715256","","","","","5","html-slider-response","321","","","","1","",""
"2419","olive","bata,siagi,welder,jiwe","jiwe","n","5","html-keyboard-response","322","n","jiwe","true","","",""
"1441.8999999761581","","","","","5","html-slider-response","323","","","","5","",""
"3980","poster","nchi,madungog,fedha,kasuko","madungog","v","5","html-keyboard-response","324","v","madungog","true","","",""
"1928.7999999523163","","","","","5","html-slider-response","325","","","","5","",""
"2909","hammer","mekno,napakyas,kitovu,layag","napakyas","v","5","html-keyboard-response","326","v","napakyas","true","","",""
"1815.8999999761581","","","","","5","html-slider-response","327","","","","5","",""
"2684","train","sayari,itik,dakika,mungu","sayari","f","5","html-keyboard-response","328","f","sayari","true","","",""
"3895.899999976158","","","","","5","html-slider-response","329","","","","2","",""
"10209","cigar","ndugu,kuta,adhabu,mlango","adhabu","j","5","html-keyboard-response","330","n","mlango","false","","",""
"1955.7000000476837","","","","","5","html-slider-response","331","","","","2","",""
"2221","spider","bunyag,kamwe,mkboa,atop","kamwe","v","5","html-keyboard-response","332","v","kamwe","true","","",""
"3031.7000000476837","","","","","5","html-slider-response","333","","","","5","",""
"6794","notebook","kemia,msitu,kila,mdudu","kemia","f","5","html-keyboard-response","334","n","mdudu","false","","",""
"6331","","","","","5","html-slider-response","335","","","","1","",""
"3416","candle","gabi,geza,farasi,kupanda","geza","v","5","html-keyboard-response","336","f","gabi","false","","",""
"2147.899999976158","","","","","5","html-slider-response","337","","","","2","",""
"4853","column","pundok,dila,pala,ufagio","ufagio","n","5","html-keyboard-response","338","v","dila","false","","",""
"1775.6999999284744","","","","","5","html-slider-response","339","","","","2","",""
"22142","basket","kumbuka,kumba,utepe,hasira","kumba","v","5","html-keyboard-response","340","f","kumbuka","false","","",""
"3047.8000000715256","","","","","5","html-slider-response","341","","","","5","",""
"2781","page","wakala,ishiri,wimbo,skina","wimbo","j","5","html-keyboard-response","342","j","wimbo","true","","",""
"3143.399999976158","","","","","5","html-slider-response","343","","","","5","",""
"3650","bridge","daima,sahani,ngono,panya","sahani","v","5","html-keyboard-response","344","v","sahani","true","","",""
"2402.7999999523163","","","","","5","html-slider-response","345","","","","2","",""
"3668","window","nanga,kweli,kujenga,umaga","kweli","v","5","html-keyboard-response","346","f","nanga","false","","",""
"2248.600000023842","","","","","5","html-slider-response","347","","","","2","",""
"3842","snake","jansa,karon,pagtukod,mvringo","pagtukod","j","5","html-keyboard-response","348","j","pagtukod","true","","",""
"2313.5","","","","","5","html-slider-response","349","","","","4","",""
"3013","flag","ndege,trekta,mkate,kawa","trekta","v","5","html-keyboard-response","350","v","trekta","true","","",""
"1847.7999999523163","","","","","5","html-slider-response","351","","","","4","",""
"6619","bed","mapintas,kalipay,haraka,starehe","mapintas","f","5","html-keyboard-response","352","f","mapintas","true","","",""
"2178.3000000715256","","","","","5","html-slider-response","353","","","","5","",""
"2519","music","mraba,baiski,mageho,tumbo","baiski","v","5","html-keyboard-response","354","v","baiski","true","","",""
"1453","","","","","5","html-slider-response","355","","","","5","",""
"5986","gift","baba,nyange,pagtawag,baso","pagtawag","j","5","html-keyboard-response","356","j","pagtawag","true","","",""
"1835","","","","","5","html-slider-response","357","","","","4","",""
"1825","bonfire","goti,mwezi,mfuko,kusanya","goti","f","5","html-keyboard-response","358","f","goti","true","","",""
"1411.8000000715256","","","","","5","html-slider-response","359","","","","5","",""
"4725","scissors","duga,mtawa,suga,tanuri","tanuri","n","5","html-keyboard-response","360","n","tanuri","true","","",""
"1632.1000000238419","","","","","5","html-slider-response","361","","","","1","",""
"3981","eel","ishara,kunywa,kabuang,msumari","msumari","n","5","html-keyboard-response","362","n","msumari","true","","",""
"1559.8999999761581","","","","","5","html-slider-response","363","","","","1","",""
"4959","pants","pintal,chuki,haki,hari","haki","j","5","html-keyboard-response","364","j","haki","true","","",""
"2414.5","","","","","5","html-slider-response","365","","","","4","",""
"5143","triangle","kihozi,bentaha,liog,kasadpan","kasadpan","n","5","html-keyboard-response","366","n","kasadpan","true","","",""
"1670.2000000476837","","","","","5","html-slider-response","367","","","","1","",""
"10631.700000047684","","","","","6","html-slider-response","369","","","","","2",""
"10181","","","","","6","html-keyboard-response","370","","","","","","false"
