"rt","en_word","options","swa_word","correct_answer","phase","trial_type","trial_index","input_answer","input_word","accuracy","certainty","swahili_knowledge","previous_subject"
"2857","sun","bendi,luha,basi,uongo","basi","j","4","html-keyboard-response","5","f","bendi","false","","",""
"1994.1000000000931","","","","","4","html-slider-response","6","","","","4","",""
"4396","basket","kumba,kumbuka,utepe,hasira","kumba","f","4","html-keyboard-response","7","f","kumba","true","","",""
"1538.6000000000931","","","","","4","html-slider-response","8","","","","4","",""
"5240","curtain","lisud,bulwawan,chubani,mchanga","mchanga","n","4","html-keyboard-response","9","j","chubani","false","","",""
"1938.2000000001863","","","","","4","html-slider-response","10","","","","2","",""
"3610","park","tambok,pwani,bunifu,ihalas","bunifu","j","4","html-keyboard-response","11","v","pwani","false","","",""
"1887.5","","","","","4","html-slider-response","12","","","","2","",""
"3770","nose","gubat,kopa,kidole,sehemu","sehemu","n","4","html-keyboard-response","13","v","kopa","false","","",""
"1801.1000000000931","","","","","4","html-slider-response","14","","","","2","",""
"3564","window","kweli,nanga,kujenga,umaga","kweli","f","4","html-keyboard-response","15","n","umaga","false","","",""
"1695.2000000001863","","","","","4","html-slider-response","16","","","","2","",""
"9543","cave","ganti,maisha,kesho,nyundo","kesho","j","4","html-keyboard-response","17","v","maisha","false","","",""
"1981.1999999997206","","","","","4","html-slider-response","18","","","","2","",""
"3470","woman","pagtabon,bandari,bituin,kovuli","pagtabon","f","4","html-keyboard-response","19","f","pagtabon","true","","",""
"1883.5","","","","","4","html-slider-response","20","","","","2","",""
"3777","bed","kalipay,mapintas,haraka,starehe","mapintas","v","4","html-keyboard-response","21","j","haraka","false","","",""
"1817","","","","","4","html-slider-response","22","","","","2","",""
"5375","column","pundok,ufagio,dila,pala","ufagio","v","4","html-keyboard-response","23","f","pundok","false","","",""
"2093.399999999907","","","","","4","html-slider-response","24","","","","2","",""
"5132","fish","buli,bala,baho,imani","buli","f","4","html-keyboard-response","25","f","buli","true","","",""
"1994","","","","","4","html-slider-response","26","","","","2","",""
"2822","boat","agalon,hamsi,pombe,kitanda","agalon","f","4","html-keyboard-response","27","f","agalon","true","","",""
"1651.4000000003725","","","","","4","html-slider-response","28","","","","2","",""
"2559","cop","bustani,mechezo,jikoni,bakus","mechezo","v","4","html-keyboard-response","29","n","bakus","false","","",""
"1539.8999999999069","","","","","4","html-slider-response","30","","","","2","",""
"3471","shoulder","kelele,mkuu,ndaniya,guruwe","mkuu","v","4","html-keyboard-response","31","f","kelele","false","","",""
"1381.5","","","","","4","html-slider-response","32","","","","2","",""
"6731","magazine","kiti,gundi,mchawi,bahandi","kiti","f","4","html-keyboard-response","33","j","mchawi","false","","",""
"5003.199999999721","","","","","4","html-slider-response","34","","","","3","",""
"3429","gift","baba,pagtawag,nyange,baso","pagtawag","v","4","html-keyboard-response","35","j","nyange","false","","",""
"1598.3999999999069","","","","","4","html-slider-response","36","","","","4","",""
"3366","clock","kartasi,abang,osha,mbwa","mbwa","n","4","html-keyboard-response","37","j","osha","false","","",""
"1682.6000000000931","","","","","4","html-slider-response","38","","","","4","",""
"4121","squirrel","mahugaw,ukweli,kichwa,hofu","hofu","n","4","html-keyboard-response","39","n","hofu","true","","",""
"1564.5","","","","","4","html-slider-response","40","","","","4","",""
"5578","key","chombo,miaka,goma,ahos","chombo","f","4","html-keyboard-response","41","v","miaka","false","","",""
"3343.5","","","","","4","html-slider-response","42","","","","2","",""
"4457","salmon","mzungu,seri,baharia,sensilyo","sensilyo","n","4","html-keyboard-response","43","v","seri","false","","",""
"3807.899999999907","","","","","4","html-slider-response","44","","","","4","",""
"3057","puppet","napulo,lamok,mazishi,godoro","mazishi","j","4","html-keyboard-response","45","j","mazishi","true","","",""
"2629.100000000093","","","","","4","html-slider-response","46","","","","2","",""
"8109","letter","filimbi,chuma,uhuru,kifua","kifua","n","4","html-keyboard-response","47","j","uhuru","false","","",""
"11248.5","","","","","4","html-slider-response","48","","","","2","",""
"5664","flag","ndege,trekta,mkate,kawa","trekta","v","4","html-keyboard-response","49","j","mkate","false","","",""
"2954.2999999998137","","","","","4","html-slider-response","50","","","","4","",""
"4130","mother","kahawa,babaye,mbuzi,jokofu","babaye","v","4","html-keyboard-response","51","v","babaye","true","","",""
"4397.800000000279","","","","","4","html-slider-response","52","","","","4","",""
"9762","ceiling","kugita,maua,kawaida,rayna","maua","v","4","html-keyboard-response","53","v","maua","true","","",""
"23183.399999999907","","","","","4","html-slider-response","54","","","","4","",""
"2749","stone","ulimwengu,mkasi,asili,wingi","wingi","n","4","html-keyboard-response","55","n","wingi","true","","",""
"2196.100000000093","","","","","4","html-slider-response","56","","","","2","",""
"2836","sock","mamba,ndoora,kimysa,mtirka","mamba","f","4","html-keyboard-response","57","j","kimysa","false","","",""
"1718.2000000001863","","","","","4","html-slider-response","58","","","","2","",""
"2514","rose","paghalad,singizi,mwanake,amani","paghalad","f","4","html-keyboard-response","59","n","amani","false","","",""
"1588","","","","","4","html-slider-response","60","","","","2","",""
"3468","office","hazini,leso,yatima,kuna","leso","v","4","html-keyboard-response","61","v","leso","true","","",""
"1700.2000000001863","","","","","4","html-slider-response","62","","","","2","",""
"5021","number","shule,kengele,mundamo,choori","mundamo","j","4","html-keyboard-response","63","j","mundamo","true","","",""
"1564.1999999997206","","","","","4","html-slider-response","64","","","","4","",""
"14097","lamp","daub,bilaska,mbolea,afya","afya","n","4","html-keyboard-response","65","j","mbolea","false","","",""
"1656.7999999998137","","","","","4","html-slider-response","66","","","","4","",""
"3373","dog","lubi,washia,kalamu,bahari","bahari","n","4","html-keyboard-response","67","v","washia","false","","",""
"1524.5","","","","","4","html-slider-response","68","","","","4","",""
"2454","mosquito","isda,taras,gutom,martilyo","martilyo","n","4","html-keyboard-response","69","n","martilyo","true","","",""
"1453.6000000000931","","","","","4","html-slider-response","70","","","","4","",""
"1899","notebook","msitu,kemia,kila,mdudu","kemia","v","4","html-keyboard-response","71","n","mdudu","false","","",""
"1633.5","","","","","4","html-slider-response","72","","","","4","",""
"2193","apple","ukame,kisu,estante,edad","kisu","v","4","html-keyboard-response","73","v","kisu","true","","",""
"1555.1999999997206","","","","","4","html-slider-response","74","","","","4","",""
"1396","cigar","ndugu,kuta,adhabu,mlango","adhabu","j","4","html-keyboard-response","75","v","kuta","false","","",""
"1283.6000000000931","","","","","4","html-slider-response","76","","","","4","",""
"909","coffin","barua,tubag,hulma,kioo","kioo","n","4","html-keyboard-response","77","v","tubag","false","","",""
"1136.8000000002794","","","","","4","html-slider-response","78","","","","4","",""
"811","shelf","bungtod,pamahaw,kadaot,awit","pamahaw","v","4","html-keyboard-response","79","v","pamahaw","true","","",""
"1583.7000000001863","","","","","4","html-slider-response","80","","","","4","",""
"2570","bread","kaili,dizeli,bugas,dari","dari","n","4","html-keyboard-response","81","v","dizeli","false","","",""
"1923.6000000000931","","","","","4","html-slider-response","82","","","","2","",""
"3606","olive","bata,siagi,jiwe,welder","jiwe","j","4","html-keyboard-response","83","j","jiwe","true","","",""
"1893.7000000001863","","","","","4","html-slider-response","84","","","","2","",""
"13546","spider","bunyag,kamwe,mkboa,atop","kamwe","v","4","html-keyboard-response","85","v","kamwe","true","","",""
"4271.699999999721","","","","","4","html-slider-response","86","","","","2","",""
"2008","cat","paghukom,neyemba,baki,akili","paghukom","f","4","html-keyboard-response","87","v","neyemba","false","","",""
"1397.8000000002794","","","","","4","html-slider-response","88","","","","4","",""
"17417","pudding","abug,mpishi,aibu,iring","aibu","j","4","html-keyboard-response","89","n","iring","false","","",""
"2455.8000000002794","","","","","4","html-slider-response","90","","","","2","",""
"21658","towel","tembo,funzi,pagpalit,pito","pagpalit","j","4","html-keyboard-response","91","v","funzi","false","","",""
"2314.1999999997206","","","","","4","html-slider-response","92","","","","2","",""
"2387","bucket","baga,ijayo,kiatu,init","kiatu","j","4","html-keyboard-response","93","v","ijayo","false","","",""
"1513.5","","","","","4","html-slider-response","94","","","","2","",""
"3754","wheel","bafuni,punda,tawo,baadaye","bafuni","f","4","html-keyboard-response","95","v","punda","false","","",""
"1680.5","","","","","4","html-slider-response","96","","","","2","",""
"4370","ladder","mashua,mwanga,pangalan,kamba","pangalan","j","4","html-keyboard-response","97","v","mwanga","false","","",""
"3638.0999999996275","","","","","4","html-slider-response","98","","","","2","",""
"2270","marker","mapafu,salita,maji,atay","maji","j","4","html-keyboard-response","99","v","salita","false","","",""
"1852.5999999996275","","","","","4","html-slider-response","100","","","","2","",""
"1921","tomato","chupi,mvua,chupa,takatak","mvua","v","4","html-keyboard-response","101","j","chupa","false","","",""
"1674.8999999999069","","","","","4","html-slider-response","102","","","","2","",""
"1776","door","surali,tena,soko,nyota","surali","f","4","html-keyboard-response","103","j","soko","false","","",""
"1644.8999999999069","","","","","4","html-slider-response","104","","","","2","",""
"1561","bonfire","goti,mwezi,mfuko,kusanya","goti","f","4","html-keyboard-response","105","j","mfuko","false","","",""
"1537.5","","","","","4","html-slider-response","106","","","","2","",""
"1698","mirror","rangi,sulagma,kanding,furaha","sulagma","v","4","html-keyboard-response","107","j","kanding","false","","",""
"9558.399999999907","","","","","4","html-slider-response","108","","","","2","",""
"3762","giraffe","mahitabo,daraja,jumatu,hangyo","mahitabo","f","4","html-keyboard-response","109","j","jumatu","false","","",""
"1932.8000000002794","","","","","4","html-slider-response","110","","","","2","",""
"3644","tissue","lamigas,kisiwa,ugomvi,katika","ugomvi","j","4","html-keyboard-response","111","j","ugomvi","true","","",""
"1664.3999999999069","","","","","4","html-slider-response","112","","","","2","",""
"11317","snake","pagtukod,jansa,karon,mvringo","pagtukod","f","4","html-keyboard-response","113","j","karon","false","","",""
"1646.8999999999069","","","","","4","html-slider-response","114","","","","2","",""
"2037","finger","simu,sufuria,moyo,lima","moyo","j","4","html-keyboard-response","115","j","moyo","true","","",""
"1418.1999999997206","","","","","4","html-slider-response","116","","","","2","",""
"1646","train","itik,dakika,sayari,mungu","sayari","j","4","html-keyboard-response","117","n","mungu","false","","",""
"1303.5999999996275","","","","","4","html-slider-response","118","","","","2","",""
"1927","candle","gabi,farasi,kupanda,geza","geza","n","4","html-keyboard-response","119","v","farasi","false","","",""
"1447","","","","","4","html-slider-response","120","","","","2","",""
"1980","book","kuhesa,picha,mara,mali","mali","n","4","html-keyboard-response","121","v","picha","false","","",""
"2147.5","","","","","4","html-slider-response","122","","","","2","",""
"3718","elephant","petye,pagduol,suka,kito","kito","n","4","html-keyboard-response","123","n","kito","true","","",""
"10565.400000000373","","","","","4","html-slider-response","124","","","","4","",""
"5831","sheet","bililhon,juuya,watu,kamantis","bililhon","f","4","html-keyboard-response","125","j","watu","false","","",""
"3347.2000000001863","","","","","4","html-slider-response","126","","","","2","",""
"3446","banana","kasamok,hagdan,twai,kazi","kazi","n","4","html-keyboard-response","127","v","hagdan","false","","",""
"3816.2000000001863","","","","","4","html-slider-response","128","","","","2","",""
"6402","perfume","bino,sungura,ndogo,katuyoan","katuyoan","n","4","html-keyboard-response","129","j","ndogo","false","","",""
"79616.90000000037","","","","","4","html-slider-response","130","","","","2","",""
"1990","bank","kudhibi,tualya,ofisi,silingan","silingan","n","4","html-keyboard-response","131","n","silingan","true","","",""
"1539.1000000000931","","","","","4","html-slider-response","132","","","","2","",""
"1762","tooth","kijiko,kabalaka,uadui,pahiyum","kabalaka","v","4","html-keyboard-response","133","n","pahiyum","false","","",""
"1368.7000000001863","","","","","4","html-slider-response","134","","","","2","",""
"1957","hill","matumbo,kushoto,kukimba,sweta","matumbo","f","4","html-keyboard-response","135","v","kushoto","false","","",""
"1477.5","","","","","4","html-slider-response","136","","","","2","",""
"3582","music","mraba,mageho,tumbo,baiski","baiski","n","4","html-keyboard-response","137","j","tumbo","false","","",""
"1380","","","","","4","html-slider-response","138","","","","2","",""
"4316","pants","pintal,chuki,haki,hari","haki","j","4","html-keyboard-response","139","v","chuki","false","","",""
"2517.0999999996275","","","","","4","html-slider-response","140","","","","2","",""
"185901","donkey","bloke,elfu,lalake,rombus","elfu","v","4","html-keyboard-response","141","j","lalake","false","","",""
"2197.899999999907","","","","","4","html-slider-response","142","","","","2","",""
"23554","bridge","sahani,daima,ngono,panya","sahani","f","4","html-keyboard-response","143","v","daima","false","","",""
"82990.6000000001","","","","","4","html-slider-response","144","","","","2","",""
"3754","list","alizeti,kuzama,kaso,wingu","wingu","n","4","html-keyboard-response","145","j","kaso","false","","",""
"6414.799999999814","","","","","4","html-slider-response","146","","","","2","",""
"86214","box","kuacha,rafiki,kitande,adui","adui","n","4","html-keyboard-response","147","j","kitande","false","","",""
"3507.2999999998137","","","","","4","html-slider-response","148","","","","2","",""
"4794","wolf","lugha,kaburi,ndizi,mchuzi","lugha","f","4","html-keyboard-response","149","j","ndizi","false","","",""
"3472.899999999907","","","","","4","html-slider-response","150","","","","2","",""
"6180","poster","nchi,fedha,madungog,kasuko","madungog","j","4","html-keyboard-response","151","j","madungog","true","","",""
"2883.0999999996275","","","","","4","html-slider-response","152","","","","2","",""
"3007","eel","ishara,kunywa,kabuang,msumari","msumari","n","4","html-keyboard-response","153","j","kabuang","false","","",""
"3433.6999999997206","","","","","4","html-slider-response","154","","","","2","",""
"25826","scissors","tanuri,duga,mtawa,suga","tanuri","f","4","html-keyboard-response","155","f","tanuri","true","","",""
"3086.100000000093","","","","","4","html-slider-response","156","","","","4","",""
"4847","shop","nopya,samaki,kerida,ndezu","samaki","v","4","html-keyboard-response","157","f","nopya","false","","",""
"4658.800000000279","","","","","4","html-slider-response","158","","","","4","",""
"2497","flower","tamasha,bega,lobo,usiku","bega","v","4","html-keyboard-response","159","f","tamasha","false","","",""
"2823.2000000001863","","","","","4","html-slider-response","160","","","","4","",""
"3034","picture","silya,kubwa,chaki,asin","kubwa","v","4","html-keyboard-response","161","n","asin","false","","",""
"2751.100000000093","","","","","4","html-slider-response","162","","","","2","",""
"9525","spoon","betri,nzuri,pagsulod,ngazi","pagsulod","j","4","html-keyboard-response","163","n","ngazi","false","","",""
"3458.8000000002794","","","","","4","html-slider-response","164","","","","2","",""
"1647","fork","baboy,mgonjwa,paghago,gorisi","mgonjwa","v","4","html-keyboard-response","165","n","gorisi","false","","",""
"2736.2999999998137","","","","","4","html-slider-response","166","","","","2","",""
"1722","shoe","nyeusi,hatua,uyoga,kama","uyoga","j","4","html-keyboard-response","167","j","uyoga","true","","",""
"2761.399999999907","","","","","4","html-slider-response","168","","","","2","",""
"1555","human","bado,kikapu,punguza,tinapay","tinapay","n","4","html-keyboard-response","169","j","punguza","false","","",""
"2539.7000000001863","","","","","4","html-slider-response","170","","","","2","",""
"1598","cup","dagat,shimoni,jeraha,matumai","matumai","n","4","html-keyboard-response","171","n","matumai","true","","",""
"3081.1999999997206","","","","","4","html-slider-response","172","","","","2","",""
"1557","hammer","mekno,kitovu,napakyas,layag","napakyas","j","4","html-keyboard-response","173","j","napakyas","true","","",""
"2677.5","","","","","4","html-slider-response","174","","","","2","",""
"2018","body","nyundu,jibini,kununa,tindashan","tindashan","n","4","html-keyboard-response","175","n","tindashan","true","","",""
"2667.2000000001863","","","","","4","html-slider-response","176","","","","2","",""
"1446","page","wakala,wimbo,ishiri,skina","wimbo","v","4","html-keyboard-response","177","j","ishiri","false","","",""
"2535.899999999907","","","","","4","html-slider-response","178","","","","2","",""
"1389","triangle","kihozi,bentaha,liog,kasadpan","kasadpan","n","4","html-keyboard-response","179","n","kasadpan","true","","",""
"3452.5","","","","","4","html-slider-response","180","","","","2","",""
"20169","berry","kofia,abogado,nogozi,kinywa","kofia","f","4","html-keyboard-response","181","j","nogozi","false","","",""
"2754.399999999907","","","","","4","html-slider-response","182","","","","2","",""
"89078","knee","mvuke,duka,kubale,bili","duka","v","4","html-keyboard-response","183","j","kubale","false","","",""
"1860.8999999999069","","","","","4","html-slider-response","184","","","","2","",""
"3579","picture","silya,chaki,asin,kubwa","kubwa","n","5","html-keyboard-response","188","j","asin","false","","",""
"3099.100000000093","","","","","5","html-slider-response","189","","","","2","",""
"13009","elephant","petye,pagduol,kito,suka","kito","j","5","html-keyboard-response","190","j","kito","true","","",""
"3624.899999999907","","","","","5","html-slider-response","191","","","","4","",""
"5556","office","hazini,yatima,leso,kuna","leso","j","5","html-keyboard-response","192","n","kuna","false","","",""
"3170.2000000001863","","","","","5","html-slider-response","193","","","","2","",""
"4598","perfume","katuyoan,bino,sungura,ndogo","katuyoan","f","5","html-keyboard-response","194","j","sungura","false","","",""
"3211.4000000003725","","","","","5","html-slider-response","195","","","","2","",""
"5272","salmon","sensilyo,mzungu,seri,baharia","sensilyo","f","5","html-keyboard-response","196","v","mzungu","false","","",""
"4662.800000000279","","","","","5","html-slider-response","197","","","","2","",""
"10459","dog","lubi,washia,bahari,kalamu","bahari","j","5","html-keyboard-response","198","f","lubi","false","","",""
"3007.399999999907","","","","","5","html-slider-response","199","","","","2","",""
"2678","wheel","punda,tawo,bafuni,baadaye","bafuni","j","5","html-keyboard-response","200","j","bafuni","true","","",""
"2778","","","","","5","html-slider-response","201","","","","2","",""
"1779","cat","neyemba,baki,paghukom,akili","paghukom","j","5","html-keyboard-response","202","j","paghukom","true","","",""
"3061.5999999996275","","","","","5","html-slider-response","203","","","","2","",""
"2088","curtain","mchanga,lisud,bulwawan,chubani","mchanga","f","5","html-keyboard-response","204","j","bulwawan","false","","",""
"2697.7999999998137","","","","","5","html-slider-response","205","","","","2","",""
"12071","flower","tamasha,lobo,bega,usiku","bega","j","5","html-keyboard-response","206","v","lobo","false","","",""
"3416","","","","","5","html-slider-response","207","","","","2","",""
"2039","number","shule,mundamo,kengele,choori","mundamo","v","5","html-keyboard-response","208","j","kengele","false","","",""
"2892.7999999998137","","","","","5","html-slider-response","209","","","","2","",""
"2602","banana","kasamok,hagdan,kazi,twai","kazi","j","5","html-keyboard-response","210","f","kasamok","false","","",""
"2989.399999999907","","","","","5","html-slider-response","211","","","","2","",""
"1792","magazine","gundi,mchawi,kiti,bahandi","kiti","j","5","html-keyboard-response","212","j","kiti","true","","",""
"2731","","","","","5","html-slider-response","213","","","","2","",""
"2341","donkey","elfu,bloke,lalake,rombus","elfu","f","5","html-keyboard-response","214","n","rombus","false","","",""
"5922","","","","","5","html-slider-response","215","","","","2","",""
"4035","mosquito","isda,taras,gutom,martilyo","martilyo","n","5","html-keyboard-response","216","j","gutom","false","","",""
"3379.3000000002794","","","","","5","html-slider-response","217","","","","2","",""
"1758","shoe","nyeusi,uyoga,hatua,kama","uyoga","v","5","html-keyboard-response","218","j","hatua","false","","",""
"2713.2000000001863","","","","","5","html-slider-response","219","","","","2","",""
"2852","stone","ulimwengu,mkasi,asili,wingi","wingi","n","5","html-keyboard-response","220","j","asili","false","","",""
"2945.2999999998137","","","","","5","html-slider-response","221","","","","2","",""
"1879","tomato","mvua,chupi,chupa,takatak","mvua","f","5","html-keyboard-response","222","j","chupa","false","","",""
"3031.5","","","","","5","html-slider-response","223","","","","2","",""
"1603","ceiling","kugita,kawaida,maua,rayna","maua","j","5","html-keyboard-response","224","j","maua","true","","",""
"2701.600000000093","","","","","5","html-slider-response","225","","","","2","",""
"1505","mirror","rangi,kanding,furaha,sulagma","sulagma","n","5","html-keyboard-response","226","j","furaha","false","","",""
"2370.5","","","","","5","html-slider-response","227","","","","2","",""
"2334","coffin","barua,tubag,hulma,kioo","kioo","n","5","html-keyboard-response","228","j","hulma","false","","",""
"2514.4000000003725","","","","","5","html-slider-response","229","","","","2","",""
"1511","spoon","betri,pagsulod,nzuri,ngazi","pagsulod","v","5","html-keyboard-response","230","j","nzuri","false","","",""
"2759.5","","","","","5","html-slider-response","231","","","","2","",""
"6670","marker","mapafu,salita,maji,atay","maji","j","5","html-keyboard-response","232","j","maji","true","","",""
"5151.800000000279","","","","","5","html-slider-response","233","","","","2","",""
"2569","list","alizeti,kuzama,kaso,wingu","wingu","n","5","html-keyboard-response","234","j","kaso","false","","",""
"2961.7999999998137","","","","","5","html-slider-response","235","","","","2","",""
"3481","hill","kushoto,kukimba,matumbo,sweta","matumbo","j","5","html-keyboard-response","236","j","matumbo","true","","",""
"3279.899999999907","","","","","5","html-slider-response","237","","","","2","",""
"6244","shelf","pamahaw,bungtod,kadaot,awit","pamahaw","f","5","html-keyboard-response","238","j","kadaot","false","","",""
"4203.899999999907","","","","","5","html-slider-response","239","","","","2","",""
"5480","bucket","baga,kiatu,ijayo,init","kiatu","v","5","html-keyboard-response","240","v","kiatu","true","","",""
"3215.7000000001863","","","","","5","html-slider-response","241","","","","2","",""
"5581","ladder","mashua,mwanga,pangalan,kamba","pangalan","j","5","html-keyboard-response","242","j","pangalan","true","","",""
"2934.1999999997206","","","","","5","html-slider-response","243","","","","2","",""
"2320","human","bado,kikapu,tinapay,punguza","tinapay","j","5","html-keyboard-response","244","j","tinapay","true","","",""
"2444.1999999997206","","","","","5","html-slider-response","245","","","","2","",""
"2233","tissue","lamigas,ugomvi,kisiwa,katika","ugomvi","v","5","html-keyboard-response","246","j","kisiwa","false","","",""
"3119.2999999998137","","","","","5","html-slider-response","247","","","","2","",""
"1448","finger","simu,moyo,sufuria,lima","moyo","v","5","html-keyboard-response","248","j","sufuria","false","","",""
"2688.2999999998137","","","","","5","html-slider-response","249","","","","2","",""
"1545","cave","kesho,ganti,maisha,nyundo","kesho","f","5","html-keyboard-response","250","j","maisha","false","","",""
"2901.600000000093","","","","","5","html-slider-response","251","","","","2","",""
"1545","rose","paghalad,singizi,mwanake,amani","paghalad","f","5","html-keyboard-response","252","j","mwanake","false","","",""
"3290.600000000093","","","","","5","html-slider-response","253","","","","2","",""
"1420","lamp","daub,afya,bilaska,mbolea","afya","v","5","html-keyboard-response","254","j","bilaska","false","","",""
"3153.100000000093","","","","","5","html-slider-response","255","","","","2","",""
"2010","shoulder","kelele,mkuu,ndaniya,guruwe","mkuu","v","5","html-keyboard-response","256","v","mkuu","true","","",""
"2766.2000000001863","","","","","5","html-slider-response","257","","","","2","",""
"1618","sock","ndoora,mamba,kimysa,mtirka","mamba","v","5","html-keyboard-response","258","j","kimysa","false","","",""
"2582.399999999907","","","","","5","html-slider-response","259","","","","2","",""
"1581","mother","kahawa,mbuzi,babaye,jokofu","babaye","j","5","html-keyboard-response","260","j","babaye","true","","",""
"2282","","","","","5","html-slider-response","261","","","","2","",""
"18036","key","miaka,goma,chombo,ahos","chombo","j","5","html-keyboard-response","262","j","chombo","true","","",""
"3755.1999999997206","","","","","5","html-slider-response","263","","","","2","",""
"2910","squirrel","mahugaw,ukweli,kichwa,hofu","hofu","n","5","html-keyboard-response","264","j","kichwa","false","","",""
"2815.2000000001863","","","","","5","html-slider-response","265","","","","4","",""
"3002","nose","gubat,kopa,kidole,sehemu","sehemu","n","5","html-keyboard-response","266","v","kopa","false","","",""
"3210.7000000001863","","","","","5","html-slider-response","267","","","","2","",""
"2326","book","kuhesa,mali,picha,mara","mali","v","5","html-keyboard-response","268","j","picha","false","","",""
"2852.899999999907","","","","","5","html-slider-response","269","","","","4","",""
"1999","bank","kudhibi,tualya,silingan,ofisi","silingan","j","5","html-keyboard-response","270","f","kudhibi","false","","",""
"2629.7999999998137","","","","","5","html-slider-response","271","","","","2","",""
"3848","cup","matumai,dagat,shimoni,jeraha","matumai","f","5","html-keyboard-response","272","n","jeraha","false","","",""
"2702.4000000003725","","","","","5","html-slider-response","273","","","","4","",""
"1600","boat","hamsi,agalon,pombe,kitanda","agalon","v","5","html-keyboard-response","274","n","kitanda","false","","",""
"2617.600000000093","","","","","5","html-slider-response","275","","","","4","",""
"2239","letter","filimbi,kifua,chuma,uhuru","kifua","v","5","html-keyboard-response","276","v","kifua","true","","",""
"2836.899999999907","","","","","5","html-slider-response","277","","","","4","",""
"4325","puppet","napulo,lamok,godoro,mazishi","mazishi","n","5","html-keyboard-response","278","j","godoro","false","","",""
"3535.6999999997206","","","","","5","html-slider-response","279","","","","4","",""
"2679","apple","ukame,estante,kisu,edad","kisu","j","5","html-keyboard-response","280","n","edad","false","","",""
"35707.89999999991","","","","","5","html-slider-response","281","","","","2","",""
"67828","tooth","kijiko,kabalaka,uadui,pahiyum","kabalaka","v","5","html-keyboard-response","282","j","uadui","false","","",""
"4059.0999999996275","","","","","5","html-slider-response","283","","","","2","",""
"16649","shop","nopya,kerida,ndezu,samaki","samaki","n","5","html-keyboard-response","284","f","nopya","false","","",""
"6818.0999999996275","","","","","5","html-slider-response","285","","","","2","",""
"5575","sun","bendi,basi,luha,uongo","basi","v","5","html-keyboard-response","286","f","bendi","false","","",""
"2913.100000000559","","","","","5","html-slider-response","287","","","","4","",""
"8083","knee","mvuke,kubale,duka,bili","duka","j","5","html-keyboard-response","288","f","mvuke","false","","",""
"8867.400000000373","","","","","5","html-slider-response","289","","","","4","",""
"3147","fork","baboy,paghago,gorisi,mgonjwa","mgonjwa","n","5","html-keyboard-response","290","j","gorisi","false","","",""
"7531.300000000745","","","","","5","html-slider-response","291","","","","2","",""
"2637","wolf","kaburi,ndizi,mchuzi,lugha","lugha","n","5","html-keyboard-response","292","n","lugha","true","","",""
"2966","","","","","5","html-slider-response","293","","","","2","",""
"2898","sheet","bililhon,juuya,watu,kamantis","bililhon","f","5","html-keyboard-response","294","j","watu","false","","",""
"2952.2000000001863","","","","","5","html-slider-response","295","","","","2","",""
"1969","giraffe","daraja,mahitabo,jumatu,hangyo","mahitabo","v","5","html-keyboard-response","296","v","mahitabo","true","","",""
"2302.5","","","","","5","html-slider-response","297","","","","2","",""
"2387","bread","dari,kaili,dizeli,bugas","dari","f","5","html-keyboard-response","298","n","bugas","false","","",""
"2716.5","","","","","5","html-slider-response","299","","","","2","",""
"2250","box","kuacha,rafiki,kitande,adui","adui","n","5","html-keyboard-response","300","v","rafiki","false","","",""
"2407.2000000001863","","","","","5","html-slider-response","301","","","","2","",""
"21377","cop","bustani,jikoni,bakus,mechezo","mechezo","n","5","html-keyboard-response","302","j","bakus","false","","",""
"3051.9000000003725","","","","","5","html-slider-response","303","","","","2","",""
"1718","fish","bala,buli,baho,imani","buli","v","5","html-keyboard-response","304","f","bala","false","","",""
"3045.399999999441","","","","","5","html-slider-response","305","","","","2","",""
"4019","door","tena,soko,nyota,surali","surali","n","5","html-keyboard-response","306","v","soko","false","","",""
"4120.0999999996275","","","","","5","html-slider-response","307","","","","2","",""
"3668","woman","bandari,bituin,kovuli,pagtabon","pagtabon","n","5","html-keyboard-response","308","f","bandari","false","","",""
"2721.699999999255","","","","","5","html-slider-response","309","","","","2","",""
"2019","clock","kartasi,abang,mbwa,osha","mbwa","j","5","html-keyboard-response","310","n","osha","false","","",""
"6606.799999999814","","","","","5","html-slider-response","311","","","","2","",""
"2381","berry","abogado,nogozi,kinywa,kofia","kofia","n","5","html-keyboard-response","312","n","kofia","true","","",""
"4295.600000000559","","","","","5","html-slider-response","313","","","","2","",""
"6661","towel","tembo,pagpalit,funzi,pito","pagpalit","v","5","html-keyboard-response","314","n","pito","false","","",""
"2729.4000000003725","","","","","5","html-slider-response","315","","","","2","",""
"1709","pudding","abug,mpishi,iring,aibu","aibu","n","5","html-keyboard-response","316","n","aibu","true","","",""
"2338.0999999996275","","","","","5","html-slider-response","317","","","","2","",""
"1546","park","bunifu,tambok,pwani,ihalas","bunifu","f","5","html-keyboard-response","318","n","ihalas","false","","",""
"2648.899999999441","","","","","5","html-slider-response","319","","","","2","",""
"1455","body","nyundu,jibini,kununa,tindashan","tindashan","n","5","html-keyboard-response","320","v","jibini","false","","",""
"3034.4000000003725","","","","","5","html-slider-response","321","","","","2","",""
"1707","olive","jiwe,bata,siagi,welder","jiwe","f","5","html-keyboard-response","322","v","bata","false","","",""
"3002.4000000003725","","","","","5","html-slider-response","323","","","","2","",""
"1815","poster","nchi,fedha,kasuko,madungog","madungog","n","5","html-keyboard-response","324","f","nchi","false","","",""
"2326.5999999996275","","","","","5","html-slider-response","325","","","","2","",""
"1312","hammer","mekno,napakyas,kitovu,layag","napakyas","v","5","html-keyboard-response","326","f","mekno","false","","",""
"2399.100000000559","","","","","5","html-slider-response","327","","","","2","",""
"1865","train","itik,dakika,mungu,sayari","sayari","n","5","html-keyboard-response","328","v","dakika","false","","",""
"2245.7000000001863","","","","","5","html-slider-response","329","","","","2","",""
"1279","cigar","adhabu,ndugu,kuta,mlango","adhabu","f","5","html-keyboard-response","330","v","ndugu","false","","",""
"2091.899999999441","","","","","5","html-slider-response","331","","","","2","",""
"1253","spider","bunyag,mkboa,atop,kamwe","kamwe","n","5","html-keyboard-response","332","v","mkboa","false","","",""
"3079.7999999998137","","","","","5","html-slider-response","333","","","","2","",""
"1428","notebook","kemia,msitu,kila,mdudu","kemia","f","5","html-keyboard-response","334","v","msitu","false","","",""
"2790.9000000003725","","","","","5","html-slider-response","335","","","","2","",""
"1468","candle","geza,gabi,farasi,kupanda","geza","f","5","html-keyboard-response","336","v","gabi","false","","",""
"2627.800000000745","","","","","5","html-slider-response","337","","","","2","",""
"4240","column","pundok,dila,pala,ufagio","ufagio","n","5","html-keyboard-response","338","v","dila","false","","",""
"2424.5999999996275","","","","","5","html-slider-response","339","","","","2","",""
"19127","basket","kumba,kumbuka,utepe,hasira","kumba","f","5","html-keyboard-response","340","f","kumba","true","","",""
"6073.0999999996275","","","","","5","html-slider-response","341","","","","2","",""
"2293","page","wimbo,wakala,ishiri,skina","wimbo","f","5","html-keyboard-response","342","v","wakala","false","","",""
"2493.9000000003725","","","","","5","html-slider-response","343","","","","2","",""
"1387","bridge","daima,sahani,ngono,panya","sahani","v","5","html-keyboard-response","344","v","sahani","true","","",""
"2479.5999999996275","","","","","5","html-slider-response","345","","","","2","",""
"3579","window","kweli,nanga,kujenga,umaga","kweli","f","5","html-keyboard-response","346","n","umaga","false","","",""
"2341.7000000001863","","","","","5","html-slider-response","347","","","","2","",""
"7334","snake","jansa,pagtukod,karon,mvringo","pagtukod","v","5","html-keyboard-response","348","v","pagtukod","true","","",""
"3000.5","","","","","5","html-slider-response","349","","","","2","",""
"1546","flag","ndege,mkate,kawa,trekta","trekta","n","5","html-keyboard-response","350","n","trekta","true","","",""
"2936.7999999998137","","","","","5","html-slider-response","351","","","","2","",""
"1614","bed","kalipay,haraka,starehe,mapintas","mapintas","n","5","html-keyboard-response","352","v","haraka","false","","",""
"2569.5","","","","","5","html-slider-response","353","","","","2","",""
"1492","music","mraba,mageho,baiski,tumbo","baiski","j","5","html-keyboard-response","354","v","mageho","false","","",""
"2581.5","","","","","5","html-slider-response","355","","","","2","",""
"2171","gift","baba,pagtawag,nyange,baso","pagtawag","v","5","html-keyboard-response","356","v","pagtawag","true","","",""
"3046.7000000001863","","","","","5","html-slider-response","357","","","","2","",""
"20934","bonfire","mwezi,mfuko,goti,kusanya","goti","j","5","html-keyboard-response","358","j","goti","true","","",""
"2292","","","","","5","html-slider-response","359","","","","2","",""
"238217","scissors","duga,tanuri,mtawa,suga","tanuri","v","5","html-keyboard-response","360","v","tanuri","true","","",""
"2782.4000000003725","","","","","5","html-slider-response","361","","","","2","",""
"2368","eel","ishara,msumari,kunywa,kabuang","msumari","v","5","html-keyboard-response","362","v","msumari","true","","",""
"1366.7999999998137","","","","","5","html-slider-response","363","","","","2","",""
"2083","pants","pintal,chuki,haki,hari","haki","j","5","html-keyboard-response","364","n","hari","false","","",""
"1233.2000000001863","","","","","5","html-slider-response","365","","","","2","",""
"1978","triangle","kasadpan,kihozi,bentaha,liog","kasadpan","f","5","html-keyboard-response","366","n","liog","false","","",""
"1346.6000000005588","","","","","5","html-slider-response","367","","","","2","",""
"7701.200000000186","","","","","6","html-slider-response","369","","","","","1",""
"8308","","","","","6","html-keyboard-response","370","","","","","","false"
