"rt","en_word","options","swa_word","correct_answer","phase","trial_type","trial_index","input_answer","input_word","accuracy","certainty","swahili_knowledge","previous_subject"
"2831","sun","basi,bendi,luha,uongo","basi","f","4","html-keyboard-response","5","n","uongo","false","","",""
"3591.600000023842","","","","","4","html-slider-response","6","","","","2","",""
"3153","basket","kumbuka,utepe,hasira,kumba","kumba","n","4","html-keyboard-response","7","v","utepe","false","","",""
"2465.800000011921","","","","","4","html-slider-response","8","","","","3","",""
"2900","curtain","mchanga,lisud,bulwawan,chubani","mchanga","f","4","html-keyboard-response","9","j","bulwawan","false","","",""
"2291.7999999821186","","","","","4","html-slider-response","10","","","","2","",""
"3269","park","bunifu,tambok,pwani,ihalas","bunifu","f","4","html-keyboard-response","11","v","tambok","false","","",""
"1894.300000011921","","","","","4","html-slider-response","12","","","","4","",""
"4853","nose","gubat,sehemu,kopa,kidole","sehemu","v","4","html-keyboard-response","13","f","gubat","false","","",""
"2489.7000000178814","","","","","4","html-slider-response","14","","","","1","",""
"4194","window","nanga,kujenga,umaga,kweli","kweli","n","4","html-keyboard-response","15","j","umaga","false","","",""
"2184.699999988079","","","","","4","html-slider-response","16","","","","2","",""
"2794","cave","ganti,maisha,kesho,nyundo","kesho","j","4","html-keyboard-response","17","n","nyundo","false","","",""
"2112.4000000059605","","","","","4","html-slider-response","18","","","","2","",""
"3036","woman","bandari,bituin,pagtabon,kovuli","pagtabon","j","4","html-keyboard-response","19","j","pagtabon","true","","",""
"1658.5999999940395","","","","","4","html-slider-response","20","","","","4","",""
"2671","bed","kalipay,haraka,starehe,mapintas","mapintas","n","4","html-keyboard-response","21","v","haraka","false","","",""
"2476.4000000059605","","","","","4","html-slider-response","22","","","","1","",""
"3536","column","pundok,dila,ufagio,pala","ufagio","j","4","html-keyboard-response","23","v","dila","false","","",""
"2431.5999999940395","","","","","4","html-slider-response","24","","","","2","",""
"3602","fish","bala,baho,imani,buli","buli","n","4","html-keyboard-response","25","n","buli","true","","",""
"3756","","","","","4","html-slider-response","26","","","","4","",""
"1887","boat","hamsi,agalon,pombe,kitanda","agalon","v","4","html-keyboard-response","27","j","pombe","false","","",""
"2139.0999999940395","","","","","4","html-slider-response","28","","","","2","",""
"2760","cop","bustani,jikoni,bakus,mechezo","mechezo","n","4","html-keyboard-response","29","n","mechezo","true","","",""
"1740.4000000059605","","","","","4","html-slider-response","30","","","","2","",""
"3583","shoulder","mkuu,kelele,ndaniya,guruwe","mkuu","f","4","html-keyboard-response","31","f","mkuu","true","","",""
"3152.5","","","","","4","html-slider-response","32","","","","1","",""
"4522","magazine","kiti,gundi,mchawi,bahandi","kiti","f","4","html-keyboard-response","33","f","kiti","true","","",""
"2006.5999999940395","","","","","4","html-slider-response","34","","","","4","",""
"3213","gift","baba,nyange,pagtawag,baso","pagtawag","j","4","html-keyboard-response","35","j","pagtawag","true","","",""
"2133.9000000059605","","","","","4","html-slider-response","36","","","","5","",""
"2860","clock","mbwa,kartasi,abang,osha","mbwa","f","4","html-keyboard-response","37","v","kartasi","false","","",""
"2475","","","","","4","html-slider-response","38","","","","2","",""
"3624","squirrel","mahugaw,hofu,ukweli,kichwa","hofu","v","4","html-keyboard-response","39","f","mahugaw","false","","",""
"2292.899999976158","","","","","4","html-slider-response","40","","","","2","",""
"2848","key","miaka,goma,ahos,chombo","chombo","n","4","html-keyboard-response","41","n","chombo","true","","",""
"2970.9000000059605","","","","","4","html-slider-response","42","","","","1","",""
"3568","salmon","mzungu,sensilyo,seri,baharia","sensilyo","v","4","html-keyboard-response","43","v","sensilyo","true","","",""
"2030","","","","","4","html-slider-response","44","","","","4","",""
"2995","puppet","napulo,lamok,godoro,mazishi","mazishi","n","4","html-keyboard-response","45","n","mazishi","true","","",""
"1953.5","","","","","4","html-slider-response","46","","","","1","",""
"3036","letter","filimbi,chuma,kifua,uhuru","kifua","j","4","html-keyboard-response","47","n","uhuru","false","","",""
"2209.600000023842","","","","","4","html-slider-response","48","","","","4","",""
"2855","flag","ndege,mkate,kawa,trekta","trekta","n","4","html-keyboard-response","49","j","kawa","false","","",""
"2022.0999999940395","","","","","4","html-slider-response","50","","","","2","",""
"3847","mother","kahawa,babaye,mbuzi,jokofu","babaye","v","4","html-keyboard-response","51","f","kahawa","false","","",""
"1817.9000000059605","","","","","4","html-slider-response","52","","","","2","",""
"2249","ceiling","kugita,kawaida,rayna,maua","maua","n","4","html-keyboard-response","53","v","kawaida","false","","",""
"3303.699999988079","","","","","4","html-slider-response","54","","","","3","",""
"3069","stone","ulimwengu,mkasi,wingi,asili","wingi","j","4","html-keyboard-response","55","n","asili","false","","",""
"1784","","","","","4","html-slider-response","56","","","","1","",""
"2779","sock","ndoora,kimysa,mamba,mtirka","mamba","j","4","html-keyboard-response","57","j","mamba","true","","",""
"1576","","","","","4","html-slider-response","58","","","","2","",""
"4499","rose","singizi,paghalad,mwanake,amani","paghalad","v","4","html-keyboard-response","59","v","paghalad","true","","",""
"1744.800000011921","","","","","4","html-slider-response","60","","","","1","",""
"3858","office","hazini,yatima,kuna,leso","leso","n","4","html-keyboard-response","61","n","leso","true","","",""
"2873.5999999940395","","","","","4","html-slider-response","62","","","","5","",""
"2457","number","shule,kengele,choori,mundamo","mundamo","n","4","html-keyboard-response","63","n","mundamo","true","","",""
"2522","","","","","4","html-slider-response","64","","","","4","",""
"3282","lamp","daub,bilaska,mbolea,afya","afya","n","4","html-keyboard-response","65","v","bilaska","false","","",""
"2392.4000000059605","","","","","4","html-slider-response","66","","","","2","",""
"6371","dog","lubi,washia,bahari,kalamu","bahari","j","4","html-keyboard-response","67","f","lubi","false","","",""
"3180","","","","","4","html-slider-response","68","","","","1","",""
"2293","mosquito","isda,taras,martilyo,gutom","martilyo","j","4","html-keyboard-response","69","j","martilyo","true","","",""
"2396.0999999940395","","","","","4","html-slider-response","70","","","","5","",""
"3096","notebook","msitu,kemia,kila,mdudu","kemia","v","4","html-keyboard-response","71","v","kemia","true","","",""
"1841.7999999821186","","","","","4","html-slider-response","72","","","","2","",""
"3040","apple","ukame,estante,edad,kisu","kisu","n","4","html-keyboard-response","73","f","ukame","false","","",""
"2756.399999976158","","","","","4","html-slider-response","74","","","","1","",""
"4559","cigar","adhabu,ndugu,kuta,mlango","adhabu","f","4","html-keyboard-response","75","n","mlango","false","","",""
"1892.8999999761581","","","","","4","html-slider-response","76","","","","2","",""
"2110","coffin","kioo,barua,tubag,hulma","kioo","f","4","html-keyboard-response","77","f","kioo","true","","",""
"1813.5999999940395","","","","","4","html-slider-response","78","","","","5","",""
"3109","shelf","bungtod,kadaot,pamahaw,awit","pamahaw","j","4","html-keyboard-response","79","j","pamahaw","true","","",""
"1994","","","","","4","html-slider-response","80","","","","2","",""
"4187","bread","dari,kaili,dizeli,bugas","dari","f","4","html-keyboard-response","81","v","kaili","false","","",""
"1676.5999999940395","","","","","4","html-slider-response","82","","","","2","",""
"3093","olive","jiwe,bata,siagi,welder","jiwe","f","4","html-keyboard-response","83","f","jiwe","true","","",""
"2364.800000011921","","","","","4","html-slider-response","84","","","","5","",""
"3361","spider","bunyag,mkboa,kamwe,atop","kamwe","j","4","html-keyboard-response","85","v","mkboa","false","","",""
"1744.8999999761581","","","","","4","html-slider-response","86","","","","1","",""
"3050","cat","neyemba,baki,paghukom,akili","paghukom","j","4","html-keyboard-response","87","j","paghukom","true","","",""
"2617.4000000059605","","","","","4","html-slider-response","88","","","","4","",""
"5201","pudding","abug,mpishi,iring,aibu","aibu","n","4","html-keyboard-response","89","n","aibu","true","","",""
"2018.300000011921","","","","","4","html-slider-response","90","","","","1","",""
"3241","towel","tembo,pagpalit,funzi,pito","pagpalit","v","4","html-keyboard-response","91","j","funzi","false","","",""
"2186.5999999940395","","","","","4","html-slider-response","92","","","","2","",""
"2431","bucket","baga,ijayo,kiatu,init","kiatu","j","4","html-keyboard-response","93","j","kiatu","true","","",""
"1510.2999999821186","","","","","4","html-slider-response","94","","","","2","",""
"3620","wheel","punda,tawo,bafuni,baadaye","bafuni","j","4","html-keyboard-response","95","f","punda","false","","",""
"1702.5999999940395","","","","","4","html-slider-response","96","","","","1","",""
"2740","ladder","mashua,mwanga,pangalan,kamba","pangalan","j","4","html-keyboard-response","97","f","mashua","false","","",""
"2198.5999999940395","","","","","4","html-slider-response","98","","","","1","",""
"4863","marker","mapafu,salita,maji,atay","maji","j","4","html-keyboard-response","99","j","maji","true","","",""
"1495.7000000178814","","","","","4","html-slider-response","100","","","","4","",""
"3162","tomato","chupi,mvua,chupa,takatak","mvua","v","4","html-keyboard-response","101","v","mvua","true","","",""
"2213.699999988079","","","","","4","html-slider-response","102","","","","2","",""
"3574","door","tena,surali,soko,nyota","surali","v","4","html-keyboard-response","103","f","tena","false","","",""
"1225.0999999940395","","","","","4","html-slider-response","104","","","","2","",""
"2753","bonfire","mwezi,goti,mfuko,kusanya","goti","v","4","html-keyboard-response","105","v","goti","true","","",""
"2178.5999999940395","","","","","4","html-slider-response","106","","","","5","",""
"3648","mirror","rangi,sulagma,kanding,furaha","sulagma","v","4","html-keyboard-response","107","n","furaha","false","","",""
"1838.5","","","","","4","html-slider-response","108","","","","2","",""
"4644","giraffe","daraja,jumatu,mahitabo,hangyo","mahitabo","j","4","html-keyboard-response","109","v","jumatu","false","","",""
"3417.399999976158","","","","","4","html-slider-response","110","","","","1","",""
"3136","tissue","lamigas,kisiwa,katika,ugomvi","ugomvi","n","4","html-keyboard-response","111","v","kisiwa","false","","",""
"1507.7999999821186","","","","","4","html-slider-response","112","","","","1","",""
"2960","snake","jansa,karon,mvringo,pagtukod","pagtukod","n","4","html-keyboard-response","113","n","pagtukod","true","","",""
"2026.1000000238419","","","","","4","html-slider-response","114","","","","4","",""
"3842","finger","simu,moyo,sufuria,lima","moyo","v","4","html-keyboard-response","115","n","lima","false","","",""
"1803.8999999761581","","","","","4","html-slider-response","116","","","","4","",""
"4903","train","itik,sayari,dakika,mungu","sayari","v","4","html-keyboard-response","117","f","itik","false","","",""
"1841.4000000059605","","","","","4","html-slider-response","118","","","","2","",""
"2986","candle","gabi,geza,farasi,kupanda","geza","v","4","html-keyboard-response","119","n","kupanda","false","","",""
"3208.5999999940395","","","","","4","html-slider-response","120","","","","1","",""
"2659","book","kuhesa,picha,mara,mali","mali","n","4","html-keyboard-response","121","v","picha","false","","",""
"2826.800000011921","","","","","4","html-slider-response","122","","","","4","",""
"3905","elephant","petye,pagduol,suka,kito","kito","n","4","html-keyboard-response","123","v","pagduol","false","","",""
"1598.5","","","","","4","html-slider-response","124","","","","2","",""
"2107","sheet","juuya,watu,bililhon,kamantis","bililhon","j","4","html-keyboard-response","125","j","bililhon","true","","",""
"1977.699999988079","","","","","4","html-slider-response","126","","","","5","",""
"4714","banana","kasamok,hagdan,kazi,twai","kazi","j","4","html-keyboard-response","127","v","hagdan","false","","",""
"1858.0999999940395","","","","","4","html-slider-response","128","","","","1","",""
"2833","perfume","bino,katuyoan,sungura,ndogo","katuyoan","v","4","html-keyboard-response","129","f","bino","false","","",""
"1817.8999999761581","","","","","4","html-slider-response","130","","","","4","",""
"3409","bank","kudhibi,tualya,silingan,ofisi","silingan","j","4","html-keyboard-response","131","j","silingan","true","","",""
"2108.9000000059605","","","","","4","html-slider-response","132","","","","1","",""
"3319","tooth","kijiko,kabalaka,uadui,pahiyum","kabalaka","v","4","html-keyboard-response","133","f","kijiko","false","","",""
"1942.5","","","","","4","html-slider-response","134","","","","2","",""
"5092","hill","kushoto,kukimba,matumbo,sweta","matumbo","j","4","html-keyboard-response","135","v","kukimba","false","","",""
"2174","","","","","4","html-slider-response","136","","","","1","",""
"4237","music","baiski,mraba,mageho,tumbo","baiski","f","4","html-keyboard-response","137","j","mageho","false","","",""
"2454.2000000178814","","","","","4","html-slider-response","138","","","","1","",""
"3421","pants","haki,pintal,chuki,hari","haki","f","4","html-keyboard-response","139","f","haki","true","","",""
"1812.7000000178814","","","","","4","html-slider-response","140","","","","2","",""
"3278","donkey","bloke,lalake,rombus,elfu","elfu","n","4","html-keyboard-response","141","n","elfu","true","","",""
"2366.7000000178814","","","","","4","html-slider-response","142","","","","4","",""
"3566","bridge","daima,ngono,panya,sahani","sahani","n","4","html-keyboard-response","143","j","panya","false","","",""
"1716.7000000178814","","","","","4","html-slider-response","144","","","","2","",""
"3766","list","alizeti,wingu,kuzama,kaso","wingu","v","4","html-keyboard-response","145","v","wingu","true","","",""
"1891.5","","","","","4","html-slider-response","146","","","","5","",""
"3504","box","adui,kuacha,rafiki,kitande","adui","f","4","html-keyboard-response","147","j","rafiki","false","","",""
"2357.699999988079","","","","","4","html-slider-response","148","","","","1","",""
"3901","wolf","kaburi,ndizi,mchuzi,lugha","lugha","n","4","html-keyboard-response","149","v","ndizi","false","","",""
"2462","","","","","4","html-slider-response","150","","","","1","",""
"4486","poster","nchi,madungog,fedha,kasuko","madungog","v","4","html-keyboard-response","151","v","madungog","true","","",""
"1693","","","","","4","html-slider-response","152","","","","2","",""
"2517","eel","msumari,ishara,kunywa,kabuang","msumari","f","4","html-keyboard-response","153","f","msumari","true","","",""
"2123.300000011921","","","","","4","html-slider-response","154","","","","4","",""
"4222","scissors","duga,mtawa,suga,tanuri","tanuri","n","4","html-keyboard-response","155","v","mtawa","false","","",""
"2078.5","","","","","4","html-slider-response","156","","","","1","",""
"3884","shop","samaki,nopya,kerida,ndezu","samaki","f","4","html-keyboard-response","157","n","ndezu","false","","",""
"2238.199999988079","","","","","4","html-slider-response","158","","","","1","",""
"2044","flower","bega,tamasha,lobo,usiku","bega","f","4","html-keyboard-response","159","f","bega","true","","",""
"1985.7000000178814","","","","","4","html-slider-response","160","","","","4","",""
"2898","picture","silya,chaki,kubwa,asin","kubwa","j","4","html-keyboard-response","161","j","kubwa","true","","",""
"1572","","","","","4","html-slider-response","162","","","","4","",""
"3126","spoon","betri,nzuri,ngazi,pagsulod","pagsulod","n","4","html-keyboard-response","163","n","pagsulod","true","","",""
"2386.7000000178814","","","","","4","html-slider-response","164","","","","2","",""
"3808","fork","mgonjwa,baboy,paghago,gorisi","mgonjwa","f","4","html-keyboard-response","165","j","paghago","false","","",""
"1668.199999988079","","","","","4","html-slider-response","166","","","","2","",""
"3167","shoe","nyeusi,hatua,kama,uyoga","uyoga","n","4","html-keyboard-response","167","n","uyoga","true","","",""
"2087.5","","","","","4","html-slider-response","168","","","","1","",""
"2506","human","tinapay,bado,kikapu,punguza","tinapay","f","4","html-keyboard-response","169","f","tinapay","true","","",""
"2219.300000011921","","","","","4","html-slider-response","170","","","","5","",""
"2344","cup","dagat,shimoni,matumai,jeraha","matumai","j","4","html-keyboard-response","171","j","matumai","true","","",""
"2786.4000000059605","","","","","4","html-slider-response","172","","","","1","",""
"2313","hammer","mekno,kitovu,layag,napakyas","napakyas","n","4","html-keyboard-response","173","n","napakyas","true","","",""
"1978.1000000238419","","","","","4","html-slider-response","174","","","","1","",""
"3584","body","nyundu,tindashan,jibini,kununa","tindashan","v","4","html-keyboard-response","175","v","tindashan","true","","",""
"1927.199999988079","","","","","4","html-slider-response","176","","","","1","",""
"3636","page","wakala,ishiri,skina,wimbo","wimbo","n","4","html-keyboard-response","177","n","wimbo","true","","",""
"1945.0999999940395","","","","","4","html-slider-response","178","","","","2","",""
"3825","triangle","kihozi,bentaha,liog,kasadpan","kasadpan","n","4","html-keyboard-response","179","v","bentaha","false","","",""
"1861.5999999940395","","","","","4","html-slider-response","180","","","","1","",""
"3717","berry","abogado,kofia,nogozi,kinywa","kofia","v","4","html-keyboard-response","181","v","kofia","true","","",""
"2300.2999999821186","","","","","4","html-slider-response","182","","","","5","",""
"2292","knee","mvuke,kubale,bili,duka","duka","n","4","html-keyboard-response","183","v","kubale","false","","",""
"1963","","","","","4","html-slider-response","184","","","","2","",""
"3848","picture","silya,kubwa,chaki,asin","kubwa","v","5","html-keyboard-response","188","f","silya","false","","",""
"2007","","","","","5","html-slider-response","189","","","","2","",""
"2731","elephant","petye,pagduol,kito,suka","kito","j","5","html-keyboard-response","190","v","pagduol","false","","",""
"2166.0999999940395","","","","","5","html-slider-response","191","","","","2","",""
"1773","office","hazini,yatima,kuna,leso","leso","n","5","html-keyboard-response","192","n","leso","true","","",""
"1994.199999988079","","","","","5","html-slider-response","193","","","","5","",""
"1328","perfume","bino,katuyoan,sungura,ndogo","katuyoan","v","5","html-keyboard-response","194","f","bino","false","","",""
"2226.5999999940395","","","","","5","html-slider-response","195","","","","4","",""
"1849","salmon","sensilyo,mzungu,seri,baharia","sensilyo","f","5","html-keyboard-response","196","f","sensilyo","true","","",""
"1602.800000011921","","","","","5","html-slider-response","197","","","","5","",""
"2374","dog","lubi,bahari,washia,kalamu","bahari","v","5","html-keyboard-response","198","n","kalamu","false","","",""
"2054.899999976158","","","","","5","html-slider-response","199","","","","1","",""
"2596","wheel","bafuni,punda,tawo,baadaye","bafuni","f","5","html-keyboard-response","200","j","tawo","false","","",""
"1723.3999999761581","","","","","5","html-slider-response","201","","","","2","",""
"1992","cat","neyemba,paghukom,baki,akili","paghukom","v","5","html-keyboard-response","202","v","paghukom","true","","",""
"1433.2999999821186","","","","","5","html-slider-response","203","","","","1","",""
"2578","curtain","mchanga,lisud,bulwawan,chubani","mchanga","f","5","html-keyboard-response","204","n","chubani","false","","",""
"2630.699999988079","","","","","5","html-slider-response","205","","","","1","",""
"1564","flower","bega,tamasha,lobo,usiku","bega","f","5","html-keyboard-response","206","f","bega","true","","",""
"2046.199999988079","","","","","5","html-slider-response","207","","","","4","",""
"2155","number","shule,mundamo,kengele,choori","mundamo","v","5","html-keyboard-response","208","v","mundamo","true","","",""
"2204.7000000178814","","","","","5","html-slider-response","209","","","","4","",""
"2205","banana","kasamok,hagdan,kazi,twai","kazi","j","5","html-keyboard-response","210","v","hagdan","false","","",""
"2370.5","","","","","5","html-slider-response","211","","","","1","",""
"1920","magazine","gundi,kiti,mchawi,bahandi","kiti","v","5","html-keyboard-response","212","v","kiti","true","","",""
"2209.300000011921","","","","","5","html-slider-response","213","","","","4","",""
"1850","donkey","elfu,bloke,lalake,rombus","elfu","f","5","html-keyboard-response","214","f","elfu","true","","",""
"1942.199999988079","","","","","5","html-slider-response","215","","","","5","",""
"1580","mosquito","martilyo,isda,taras,gutom","martilyo","f","5","html-keyboard-response","216","f","martilyo","true","","",""
"1472","","","","","5","html-slider-response","217","","","","5","",""
"2123","shoe","uyoga,nyeusi,hatua,kama","uyoga","f","5","html-keyboard-response","218","n","kama","false","","",""
"1941.0999999940395","","","","","5","html-slider-response","219","","","","1","",""
"2101","stone","wingi,ulimwengu,mkasi,asili","wingi","f","5","html-keyboard-response","220","f","wingi","true","","",""
"2580.9000000059605","","","","","5","html-slider-response","221","","","","4","",""
"2375","tomato","mvua,chupi,chupa,takatak","mvua","f","5","html-keyboard-response","222","f","mvua","true","","",""
"1460.699999988079","","","","","5","html-slider-response","223","","","","2","",""
"2326","ceiling","maua,kugita,kawaida,rayna","maua","f","5","html-keyboard-response","224","j","kawaida","false","","",""
"3403.2000000178814","","","","","5","html-slider-response","225","","","","1","",""
"2718","mirror","sulagma,rangi,kanding,furaha","sulagma","f","5","html-keyboard-response","226","j","kanding","false","","",""
"1777.7000000178814","","","","","5","html-slider-response","227","","","","1","",""
"2281","coffin","barua,tubag,kioo,hulma","kioo","j","5","html-keyboard-response","228","j","kioo","true","","",""
"2948.4000000059605","","","","","5","html-slider-response","229","","","","4","",""
"2535","spoon","betri,nzuri,pagsulod,ngazi","pagsulod","j","5","html-keyboard-response","230","j","pagsulod","true","","",""
"3685.300000011921","","","","","5","html-slider-response","231","","","","1","",""
"2724","marker","mapafu,salita,atay,maji","maji","n","5","html-keyboard-response","232","f","mapafu","false","","",""
"1581.1000000238419","","","","","5","html-slider-response","233","","","","2","",""
"2903","list","alizeti,kuzama,wingu,kaso","wingu","j","5","html-keyboard-response","234","j","wingu","true","","",""
"1974.199999988079","","","","","5","html-slider-response","235","","","","5","",""
"2925","hill","matumbo,kushoto,kukimba,sweta","matumbo","f","5","html-keyboard-response","236","j","kukimba","false","","",""
"2980.7999999821186","","","","","5","html-slider-response","237","","","","2","",""
"2205","shelf","bungtod,kadaot,pamahaw,awit","pamahaw","j","5","html-keyboard-response","238","j","pamahaw","true","","",""
"1869.300000011921","","","","","5","html-slider-response","239","","","","4","",""
"3303","bucket","baga,kiatu,ijayo,init","kiatu","v","5","html-keyboard-response","240","v","kiatu","true","","",""
"1781.4000000059605","","","","","5","html-slider-response","241","","","","2","",""
"3372","ladder","mashua,mwanga,kamba,pangalan","pangalan","n","5","html-keyboard-response","242","v","mwanga","false","","",""
"1645.4000000059605","","","","","5","html-slider-response","243","","","","1","",""
"2470","human","bado,kikapu,punguza,tinapay","tinapay","n","5","html-keyboard-response","244","n","tinapay","true","","",""
"1706","","","","","5","html-slider-response","245","","","","5","",""
"2256","tissue","lamigas,kisiwa,katika,ugomvi","ugomvi","n","5","html-keyboard-response","246","f","lamigas","false","","",""
"1833.300000011921","","","","","5","html-slider-response","247","","","","2","",""
"2503","finger","simu,moyo,sufuria,lima","moyo","v","5","html-keyboard-response","248","n","lima","false","","",""
"1928.300000011921","","","","","5","html-slider-response","249","","","","4","",""
"2541","cave","ganti,maisha,nyundo,kesho","kesho","n","5","html-keyboard-response","250","j","nyundo","false","","",""
"1706.199999988079","","","","","5","html-slider-response","251","","","","2","",""
"2782","rose","paghalad,singizi,mwanake,amani","paghalad","f","5","html-keyboard-response","252","f","paghalad","true","","",""
"1899.5","","","","","5","html-slider-response","253","","","","4","",""
"2047","lamp","daub,bilaska,afya,mbolea","afya","j","5","html-keyboard-response","254","v","bilaska","false","","",""
"2816.399999976158","","","","","5","html-slider-response","255","","","","1","",""
"2051","shoulder","kelele,ndaniya,mkuu,guruwe","mkuu","j","5","html-keyboard-response","256","f","kelele","false","","",""
"2007.5","","","","","5","html-slider-response","257","","","","4","",""
"2243","sock","ndoora,kimysa,mtirka,mamba","mamba","n","5","html-keyboard-response","258","f","ndoora","false","","",""
"1848","","","","","5","html-slider-response","259","","","","2","",""
"3916","mother","babaye,kahawa,mbuzi,jokofu","babaye","f","5","html-keyboard-response","260","f","babaye","true","","",""
"1894.9000000059605","","","","","5","html-slider-response","261","","","","1","",""
"3484","key","chombo,miaka,goma,ahos","chombo","f","5","html-keyboard-response","262","f","chombo","true","","",""
"2936.7000000178814","","","","","5","html-slider-response","263","","","","1","",""
"2921","squirrel","hofu,mahugaw,ukweli,kichwa","hofu","f","5","html-keyboard-response","264","v","mahugaw","false","","",""
"1635.4000000059605","","","","","5","html-slider-response","265","","","","4","",""
"3479","nose","sehemu,gubat,kopa,kidole","sehemu","f","5","html-keyboard-response","266","j","kopa","false","","",""
"1572.199999988079","","","","","5","html-slider-response","267","","","","2","",""
"2117","book","kuhesa,picha,mali,mara","mali","j","5","html-keyboard-response","268","v","picha","false","","",""
"1697.6000000238419","","","","","5","html-slider-response","269","","","","5","",""
"3410","bank","silingan,kudhibi,tualya,ofisi","silingan","f","5","html-keyboard-response","270","f","silingan","true","","",""
"1757.5999999940395","","","","","5","html-slider-response","271","","","","4","",""
"2565","cup","dagat,matumai,shimoni,jeraha","matumai","v","5","html-keyboard-response","272","v","matumai","true","","",""
"1950.6000000238419","","","","","5","html-slider-response","273","","","","1","",""
"2892","boat","hamsi,pombe,agalon,kitanda","agalon","j","5","html-keyboard-response","274","v","pombe","false","","",""
"1956.5","","","","","5","html-slider-response","275","","","","1","",""
"3294","letter","filimbi,chuma,kifua,uhuru","kifua","j","5","html-keyboard-response","276","f","filimbi","false","","",""
"1726.4000000059605","","","","","5","html-slider-response","277","","","","1","",""
"2803","puppet","napulo,mazishi,lamok,godoro","mazishi","v","5","html-keyboard-response","278","n","godoro","false","","",""
"1816.4000000059605","","","","","5","html-slider-response","279","","","","4","",""
"3675","apple","ukame,estante,kisu,edad","kisu","j","5","html-keyboard-response","280","n","edad","false","","",""
"2375.399999976158","","","","","5","html-slider-response","281","","","","5","",""
"1699","tooth","kijiko,kabalaka,uadui,pahiyum","kabalaka","v","5","html-keyboard-response","282","f","kijiko","false","","",""
"2426.9000000059605","","","","","5","html-slider-response","283","","","","4","",""
"3144","shop","nopya,kerida,ndezu,samaki","samaki","n","5","html-keyboard-response","284","j","ndezu","false","","",""
"2074","","","","","5","html-slider-response","285","","","","1","",""
"2872","sun","bendi,luha,uongo,basi","basi","n","5","html-keyboard-response","286","j","uongo","false","","",""
"1577.0999999940395","","","","","5","html-slider-response","287","","","","4","",""
"2570","knee","duka,mvuke,kubale,bili","duka","f","5","html-keyboard-response","288","v","mvuke","false","","",""
"2037.0999999940395","","","","","5","html-slider-response","289","","","","1","",""
"2460","fork","baboy,paghago,mgonjwa,gorisi","mgonjwa","j","5","html-keyboard-response","290","f","baboy","false","","",""
"1663.300000011921","","","","","5","html-slider-response","291","","","","4","",""
"1938","wolf","kaburi,ndizi,lugha,mchuzi","lugha","j","5","html-keyboard-response","292","j","lugha","true","","",""
"2196.5","","","","","5","html-slider-response","293","","","","4","",""
"2367","sheet","juuya,watu,kamantis,bililhon","bililhon","n","5","html-keyboard-response","294","n","bililhon","true","","",""
"1873.4000000059605","","","","","5","html-slider-response","295","","","","5","",""
"3643","giraffe","daraja,mahitabo,jumatu,hangyo","mahitabo","v","5","html-keyboard-response","296","v","mahitabo","true","","",""
"2084","","","","","5","html-slider-response","297","","","","1","",""
"2638","bread","kaili,dizeli,dari,bugas","dari","j","5","html-keyboard-response","298","n","bugas","false","","",""
"2100","","","","","5","html-slider-response","299","","","","2","",""
"3287","box","kuacha,adui,rafiki,kitande","adui","v","5","html-keyboard-response","300","j","rafiki","false","","",""
"2633.5","","","","","5","html-slider-response","301","","","","1","",""
"2801","cop","bustani,mechezo,jikoni,bakus","mechezo","v","5","html-keyboard-response","302","v","mechezo","true","","",""
"1814.6000000238419","","","","","5","html-slider-response","303","","","","1","",""
"3580","fish","bala,buli,baho,imani","buli","v","5","html-keyboard-response","304","f","bala","false","","",""
"2727.4000000059605","","","","","5","html-slider-response","305","","","","2","",""
"1875","door","tena,soko,surali,nyota","surali","j","5","html-keyboard-response","306","n","nyota","false","","",""
"2222.300000011921","","","","","5","html-slider-response","307","","","","1","",""
"2988","woman","pagtabon,bandari,bituin,kovuli","pagtabon","f","5","html-keyboard-response","308","f","pagtabon","true","","",""
"1890.699999988079","","","","","5","html-slider-response","309","","","","4","",""
"2168","clock","mbwa,kartasi,abang,osha","mbwa","f","5","html-keyboard-response","310","n","osha","false","","",""
"1534.4000000059605","","","","","5","html-slider-response","311","","","","4","",""
"2213","berry","abogado,nogozi,kofia,kinywa","kofia","j","5","html-keyboard-response","312","j","kofia","true","","",""
"2058.300000011921","","","","","5","html-slider-response","313","","","","5","",""
"2192","towel","tembo,pagpalit,funzi,pito","pagpalit","v","5","html-keyboard-response","314","f","tembo","false","","",""
"2237.4000000059605","","","","","5","html-slider-response","315","","","","1","",""
"2510","pudding","aibu,abug,mpishi,iring","aibu","f","5","html-keyboard-response","316","j","mpishi","false","","",""
"2011.300000011921","","","","","5","html-slider-response","317","","","","2","",""
"1905","park","bunifu,tambok,pwani,ihalas","bunifu","f","5","html-keyboard-response","318","v","tambok","false","","",""
"1977.0999999940395","","","","","5","html-slider-response","319","","","","1","",""
"4265","body","nyundu,jibini,kununa,tindashan","tindashan","n","5","html-keyboard-response","320","n","tindashan","true","","",""
"1786.300000011921","","","","","5","html-slider-response","321","","","","4","",""
"1705","olive","bata,siagi,jiwe,welder","jiwe","j","5","html-keyboard-response","322","j","jiwe","true","","",""
"1441.4000000059605","","","","","5","html-slider-response","323","","","","5","",""
"2224","poster","nchi,fedha,madungog,kasuko","madungog","j","5","html-keyboard-response","324","j","madungog","true","","",""
"3270.0999999940395","","","","","5","html-slider-response","325","","","","4","",""
"2155","hammer","mekno,kitovu,napakyas,layag","napakyas","j","5","html-keyboard-response","326","j","napakyas","true","","",""
"1620","","","","","5","html-slider-response","327","","","","1","",""
"2231","train","itik,sayari,dakika,mungu","sayari","v","5","html-keyboard-response","328","v","sayari","true","","",""
"1250.199999988079","","","","","5","html-slider-response","329","","","","2","",""
"2272","cigar","ndugu,kuta,mlango,adhabu","adhabu","n","5","html-keyboard-response","330","f","ndugu","false","","",""
"1486.2999999821186","","","","","5","html-slider-response","331","","","","1","",""
"3333","spider","bunyag,kamwe,mkboa,atop","kamwe","v","5","html-keyboard-response","332","f","bunyag","false","","",""
"2714.4000000059605","","","","","5","html-slider-response","333","","","","1","",""
"3305","notebook","kemia,msitu,kila,mdudu","kemia","f","5","html-keyboard-response","334","j","kila","false","","",""
"1896.5","","","","","5","html-slider-response","335","","","","4","",""
"2944","candle","gabi,geza,farasi,kupanda","geza","v","5","html-keyboard-response","336","n","kupanda","false","","",""
"2204.2999999821186","","","","","5","html-slider-response","337","","","","2","",""
"2190","column","pundok,dila,pala,ufagio","ufagio","n","5","html-keyboard-response","338","n","ufagio","true","","",""
"1920.300000011921","","","","","5","html-slider-response","339","","","","4","",""
"2819","basket","kumbuka,utepe,hasira,kumba","kumba","n","5","html-keyboard-response","340","n","kumba","true","","",""
"2759.899999976158","","","","","5","html-slider-response","341","","","","2","",""
"3098","page","wakala,ishiri,skina,wimbo","wimbo","n","5","html-keyboard-response","342","n","wimbo","true","","",""
"2368.4000000059605","","","","","5","html-slider-response","343","","","","4","",""
"2515","bridge","daima,sahani,ngono,panya","sahani","v","5","html-keyboard-response","344","f","daima","false","","",""
"2032.2000000178814","","","","","5","html-slider-response","345","","","","1","",""
"2721","window","nanga,kweli,kujenga,umaga","kweli","v","5","html-keyboard-response","346","n","umaga","false","","",""
"2265.800000011921","","","","","5","html-slider-response","347","","","","4","",""
"2160","snake","jansa,pagtukod,karon,mvringo","pagtukod","v","5","html-keyboard-response","348","v","pagtukod","true","","",""
"1674.7999999821186","","","","","5","html-slider-response","349","","","","2","",""
"2199","flag","ndege,mkate,trekta,kawa","trekta","j","5","html-keyboard-response","350","j","trekta","true","","",""
"1735","","","","","5","html-slider-response","351","","","","2","",""
"2875","bed","kalipay,haraka,mapintas,starehe","mapintas","j","5","html-keyboard-response","352","j","mapintas","true","","",""
"2979.7000000178814","","","","","5","html-slider-response","353","","","","1","",""
"3085","music","mraba,baiski,mageho,tumbo","baiski","v","5","html-keyboard-response","354","n","tumbo","false","","",""
"1802.6000000238419","","","","","5","html-slider-response","355","","","","1","",""
"2528","gift","baba,nyange,pagtawag,baso","pagtawag","j","5","html-keyboard-response","356","j","pagtawag","true","","",""
"1909.5","","","","","5","html-slider-response","357","","","","5","",""
"2517","bonfire","mwezi,goti,mfuko,kusanya","goti","v","5","html-keyboard-response","358","v","goti","true","","",""
"2411","","","","","5","html-slider-response","359","","","","5","",""
"2615","scissors","duga,mtawa,tanuri,suga","tanuri","j","5","html-keyboard-response","360","j","tanuri","true","","",""
"1998.6000000238419","","","","","5","html-slider-response","361","","","","1","",""
"3356","eel","msumari,ishara,kunywa,kabuang","msumari","f","5","html-keyboard-response","362","f","msumari","true","","",""
"2759.5","","","","","5","html-slider-response","363","","","","1","",""
"2388","pants","pintal,haki,chuki,hari","haki","v","5","html-keyboard-response","364","v","haki","true","","",""
"1666.4000000059605","","","","","5","html-slider-response","365","","","","1","",""
"2623","triangle","kihozi,bentaha,liog,kasadpan","kasadpan","n","5","html-keyboard-response","366","v","bentaha","false","","",""
"1981.7000000178814","","","","","5","html-slider-response","367","","","","2","",""
"7182.399999976158","","","","","6","html-slider-response","369","","","","","1",""
"4931","","","","","6","html-keyboard-response","370","","","","","","false"
