"rt","en_word","options","swa_word","correct_answer","phase","trial_type","trial_index","input_answer","input_word","accuracy","certainty","swahili_knowledge","previous_subject"
"5280","sun","basi,bendi,luha,uongo","basi","f","4","html-keyboard-response","5","f","basi","true","","",""
"4929.399999999994","","","","","4","html-slider-response","6","","","","4","",""
"3250","basket","kumbuka,utepe,hasira,kumba","kumba","n","4","html-keyboard-response","7","n","kumba","true","","",""
"3838","","","","","4","html-slider-response","8","","","","4","",""
"2647","curtain","lisud,bulwawan,mchanga,chubani","mchanga","j","4","html-keyboard-response","9","j","mchanga","true","","",""
"3838.6999999999825","","","","","4","html-slider-response","10","","","","4","",""
"4255","park","tambok,pwani,bunifu,ihalas","bunifu","j","4","html-keyboard-response","11","n","ihalas","false","","",""
"2834.7000000000116","","","","","4","html-slider-response","12","","","","2","",""
"2306","nose","gubat,kopa,kidole,sehemu","sehemu","n","4","html-keyboard-response","13","n","sehemu","true","","",""
"3266.899999999994","","","","","4","html-slider-response","14","","","","4","",""
"3905","window","nanga,kweli,kujenga,umaga","kweli","v","4","html-keyboard-response","15","v","kweli","true","","",""
"6102.5","","","","","4","html-slider-response","16","","","","3","",""
"4903","cave","ganti,maisha,nyundo,kesho","kesho","n","4","html-keyboard-response","17","n","kesho","true","","",""
"3170.5","","","","","4","html-slider-response","18","","","","2","",""
"6409","woman","bandari,pagtabon,bituin,kovuli","pagtabon","v","4","html-keyboard-response","19","v","pagtabon","true","","",""
"2543.9000000000233","","","","","4","html-slider-response","20","","","","4","",""
"3626","bed","kalipay,haraka,starehe,mapintas","mapintas","n","4","html-keyboard-response","21","v","haraka","false","","",""
"4673.200000000012","","","","","4","html-slider-response","22","","","","3","",""
"5149","column","pundok,dila,pala,ufagio","ufagio","n","4","html-keyboard-response","23","f","pundok","false","","",""
"3717.7999999999884","","","","","4","html-slider-response","24","","","","3","",""
"4964","fish","bala,buli,baho,imani","buli","v","4","html-keyboard-response","25","v","buli","true","","",""
"3006.899999999965","","","","","4","html-slider-response","26","","","","5","",""
"2440","boat","agalon,hamsi,pombe,kitanda","agalon","f","4","html-keyboard-response","27","f","agalon","true","","",""
"2685.7999999999884","","","","","4","html-slider-response","28","","","","4","",""
"7735","cop","bustani,jikoni,bakus,mechezo","mechezo","n","4","html-keyboard-response","29","f","bustani","false","","",""
"4336.600000000035","","","","","4","html-slider-response","30","","","","2","",""
"4467","shoulder","kelele,mkuu,ndaniya,guruwe","mkuu","v","4","html-keyboard-response","31","j","ndaniya","false","","",""
"3292.8000000000466","","","","","4","html-slider-response","32","","","","2","",""
"4292","magazine","gundi,mchawi,bahandi,kiti","kiti","n","4","html-keyboard-response","33","n","kiti","true","","",""
"3033.7000000000116","","","","","4","html-slider-response","34","","","","5","",""
"3237","gift","baba,nyange,baso,pagtawag","pagtawag","n","4","html-keyboard-response","35","j","baso","false","","",""
"3091","","","","","4","html-slider-response","36","","","","2","",""
"3561","clock","mbwa,kartasi,abang,osha","mbwa","f","4","html-keyboard-response","37","f","mbwa","true","","",""
"3968.399999999965","","","","","4","html-slider-response","38","","","","5","",""
"3730","squirrel","mahugaw,ukweli,kichwa,hofu","hofu","n","4","html-keyboard-response","39","f","mahugaw","false","","",""
"5167.700000000012","","","","","4","html-slider-response","40","","","","3","",""
"4728","key","chombo,miaka,goma,ahos","chombo","f","4","html-keyboard-response","41","f","chombo","true","","",""
"5178.100000000035","","","","","4","html-slider-response","42","","","","3","",""
"3100","salmon","sensilyo,mzungu,seri,baharia","sensilyo","f","4","html-keyboard-response","43","f","sensilyo","true","","",""
"4049.9000000000233","","","","","4","html-slider-response","44","","","","3","",""
"3244","puppet","napulo,mazishi,lamok,godoro","mazishi","v","4","html-keyboard-response","45","j","lamok","false","","",""
"3090.3000000000466","","","","","4","html-slider-response","46","","","","2","",""
"3497","letter","filimbi,chuma,kifua,uhuru","kifua","j","4","html-keyboard-response","47","n","uhuru","false","","",""
"2916.0999999999767","","","","","4","html-slider-response","48","","","","2","",""
"5466","flag","ndege,mkate,trekta,kawa","trekta","j","4","html-keyboard-response","49","j","trekta","true","","",""
"2428.70000000007","","","","","4","html-slider-response","50","","","","2","",""
"2639","mother","babaye,kahawa,mbuzi,jokofu","babaye","f","4","html-keyboard-response","51","f","babaye","true","","",""
"2893","","","","","4","html-slider-response","52","","","","5","",""
"4990","ceiling","kugita,kawaida,rayna,maua","maua","n","4","html-keyboard-response","53","v","kawaida","false","","",""
"3154.79999999993","","","","","4","html-slider-response","54","","","","2","",""
"3096","stone","ulimwengu,wingi,mkasi,asili","wingi","v","4","html-keyboard-response","55","v","wingi","true","","",""
"3305","","","","","4","html-slider-response","56","","","","5","",""
"2345","sock","ndoora,kimysa,mtirka,mamba","mamba","n","4","html-keyboard-response","57","n","mamba","true","","",""
"2730.9000000000233","","","","","4","html-slider-response","58","","","","5","",""
"7236","rose","singizi,paghalad,mwanake,amani","paghalad","v","4","html-keyboard-response","59","v","paghalad","true","","",""
"2540.0999999999767","","","","","4","html-slider-response","60","","","","4","",""
"2538","office","hazini,yatima,leso,kuna","leso","j","4","html-keyboard-response","61","j","leso","true","","",""
"2888.1999999999534","","","","","4","html-slider-response","62","","","","5","",""
"1850","number","shule,kengele,choori,mundamo","mundamo","n","4","html-keyboard-response","63","n","mundamo","true","","",""
"2636.4000000000233","","","","","4","html-slider-response","64","","","","5","",""
"7401","lamp","daub,bilaska,afya,mbolea","afya","j","4","html-keyboard-response","65","n","mbolea","false","","",""
"2250.6999999999534","","","","","4","html-slider-response","66","","","","2","",""
"3502","dog","lubi,washia,bahari,kalamu","bahari","j","4","html-keyboard-response","67","j","bahari","true","","",""
"2665.79999999993","","","","","4","html-slider-response","68","","","","4","",""
"4181","mosquito","martilyo,isda,taras,gutom","martilyo","f","4","html-keyboard-response","69","f","martilyo","true","","",""
"3020.3000000000466","","","","","4","html-slider-response","70","","","","4","",""
"5571","notebook","kemia,msitu,kila,mdudu","kemia","f","4","html-keyboard-response","71","f","kemia","true","","",""
"5428","","","","","4","html-slider-response","72","","","","3","",""
"2541","apple","kisu,ukame,estante,edad","kisu","f","4","html-keyboard-response","73","f","kisu","true","","",""
"2654.1999999999534","","","","","4","html-slider-response","74","","","","5","",""
"6160","cigar","adhabu,ndugu,kuta,mlango","adhabu","f","4","html-keyboard-response","75","v","ndugu","false","","",""
"2453.9000000000233","","","","","4","html-slider-response","76","","","","2","",""
"7619","coffin","barua,kioo,tubag,hulma","kioo","v","4","html-keyboard-response","77","j","tubag","false","","",""
"2514.9000000000233","","","","","4","html-slider-response","78","","","","2","",""
"3639","shelf","bungtod,pamahaw,kadaot,awit","pamahaw","v","4","html-keyboard-response","79","v","pamahaw","true","","",""
"3564.1999999999534","","","","","4","html-slider-response","80","","","","4","",""
"3105","bread","kaili,dizeli,bugas,dari","dari","n","4","html-keyboard-response","81","n","dari","true","","",""
"2789","","","","","4","html-slider-response","82","","","","5","",""
"2365","olive","bata,siagi,welder,jiwe","jiwe","n","4","html-keyboard-response","83","n","jiwe","true","","",""
"2850.100000000093","","","","","4","html-slider-response","84","","","","5","",""
"4198","spider","bunyag,kamwe,mkboa,atop","kamwe","v","4","html-keyboard-response","85","v","kamwe","true","","",""
"3015","","","","","4","html-slider-response","86","","","","5","",""
"2638","cat","neyemba,baki,paghukom,akili","paghukom","j","4","html-keyboard-response","87","j","paghukom","true","","",""
"3252.0999999999767","","","","","4","html-slider-response","88","","","","5","",""
"5656","pudding","abug,aibu,mpishi,iring","aibu","v","4","html-keyboard-response","89","v","aibu","true","","",""
"4121.800000000047","","","","","4","html-slider-response","90","","","","3","",""
"6594","towel","tembo,funzi,pagpalit,pito","pagpalit","j","4","html-keyboard-response","91","v","funzi","false","","",""
"3175.9000000000233","","","","","4","html-slider-response","92","","","","2","",""
"5051","bucket","baga,ijayo,kiatu,init","kiatu","j","4","html-keyboard-response","93","j","kiatu","true","","",""
"3660.0999999999767","","","","","4","html-slider-response","94","","","","4","",""
"6065","wheel","punda,tawo,bafuni,baadaye","bafuni","j","4","html-keyboard-response","95","v","tawo","false","","",""
"2752.0999999999767","","","","","4","html-slider-response","96","","","","2","",""
"2491","ladder","pangalan,mashua,mwanga,kamba","pangalan","f","4","html-keyboard-response","97","f","pangalan","true","","",""
"3253.5999999999767","","","","","4","html-slider-response","98","","","","5","",""
"5909","marker","mapafu,salita,atay,maji","maji","n","4","html-keyboard-response","99","n","maji","true","","",""
"2385.9000000000233","","","","","4","html-slider-response","100","","","","2","",""
"7220","tomato","mvua,chupi,chupa,takatak","mvua","f","4","html-keyboard-response","101","j","chupa","false","","",""
"3285.5","","","","","4","html-slider-response","102","","","","2","",""
"4200","door","tena,soko,nyota,surali","surali","n","4","html-keyboard-response","103","n","surali","true","","",""
"2912.79999999993","","","","","4","html-slider-response","104","","","","2","",""
"1943","bonfire","mwezi,mfuko,kusanya,goti","goti","n","4","html-keyboard-response","105","n","goti","true","","",""
"7853.5","","","","","4","html-slider-response","106","","","","5","",""
"3965","mirror","rangi,sulagma,kanding,furaha","sulagma","v","4","html-keyboard-response","107","v","sulagma","true","","",""
"3488.5999999999767","","","","","4","html-slider-response","108","","","","4","",""
"5026","giraffe","mahitabo,daraja,jumatu,hangyo","mahitabo","f","4","html-keyboard-response","109","j","jumatu","false","","",""
"3780","","","","","4","html-slider-response","110","","","","2","",""
"4983","tissue","lamigas,ugomvi,kisiwa,katika","ugomvi","v","4","html-keyboard-response","111","v","ugomvi","true","","",""
"3373.20000000007","","","","","4","html-slider-response","112","","","","2","",""
"4106","snake","pagtukod,jansa,karon,mvringo","pagtukod","f","4","html-keyboard-response","113","f","pagtukod","true","","",""
"5319.70000000007","","","","","4","html-slider-response","114","","","","3","",""
"4673","finger","simu,moyo,sufuria,lima","moyo","v","4","html-keyboard-response","115","f","simu","false","","",""
"3481.5999999999767","","","","","4","html-slider-response","116","","","","2","",""
"5017","train","itik,dakika,mungu,sayari","sayari","n","4","html-keyboard-response","117","n","sayari","true","","",""
"3061.0999999999767","","","","","4","html-slider-response","118","","","","2","",""
"1896","candle","gabi,farasi,kupanda,geza","geza","n","4","html-keyboard-response","119","n","geza","true","","",""
"4080.20000000007","","","","","4","html-slider-response","120","","","","5","",""
"3000","book","kuhesa,mali,picha,mara","mali","v","4","html-keyboard-response","121","v","mali","true","","",""
"3530.5","","","","","4","html-slider-response","122","","","","5","",""
"5373","elephant","petye,pagduol,kito,suka","kito","j","4","html-keyboard-response","123","j","kito","true","","",""
"2982.29999999993","","","","","4","html-slider-response","124","","","","5","",""
"5963","sheet","juuya,watu,kamantis,bililhon","bililhon","n","4","html-keyboard-response","125","n","bililhon","true","","",""
"3761.6999999999534","","","","","4","html-slider-response","126","","","","4","",""
"2634","banana","kasamok,hagdan,twai,kazi","kazi","n","4","html-keyboard-response","127","n","kazi","true","","",""
"2585.79999999993","","","","","4","html-slider-response","128","","","","5","",""
"5334","perfume","katuyoan,bino,sungura,ndogo","katuyoan","f","4","html-keyboard-response","129","f","katuyoan","true","","",""
"3067.70000000007","","","","","4","html-slider-response","130","","","","2","",""
"6298","bank","kudhibi,tualya,ofisi,silingan","silingan","n","4","html-keyboard-response","131","n","silingan","true","","",""
"2937.29999999993","","","","","4","html-slider-response","132","","","","2","",""
"5205","tooth","kijiko,uadui,kabalaka,pahiyum","kabalaka","j","4","html-keyboard-response","133","j","kabalaka","true","","",""
"2835.70000000007","","","","","4","html-slider-response","134","","","","4","",""
"3657","hill","kushoto,kukimba,sweta,matumbo","matumbo","n","4","html-keyboard-response","135","f","kushoto","false","","",""
"3929.3000000000466","","","","","4","html-slider-response","136","","","","2","",""
"3169","music","baiski,mraba,mageho,tumbo","baiski","f","4","html-keyboard-response","137","f","baiski","true","","",""
"2250.20000000007","","","","","4","html-slider-response","138","","","","4","",""
"3689","pants","pintal,haki,chuki,hari","haki","v","4","html-keyboard-response","139","n","hari","false","","",""
"2889.9000000000233","","","","","4","html-slider-response","140","","","","4","",""
"4388","donkey","bloke,lalake,elfu,rombus","elfu","j","4","html-keyboard-response","141","j","elfu","true","","",""
"2774.1999999999534","","","","","4","html-slider-response","142","","","","4","",""
"3059","bridge","daima,ngono,panya,sahani","sahani","n","4","html-keyboard-response","143","n","sahani","true","","",""
"2625.9000000000233","","","","","4","html-slider-response","144","","","","5","",""
"5489","list","wingu,alizeti,kuzama,kaso","wingu","f","4","html-keyboard-response","145","n","kaso","false","","",""
"2993.0999999999767","","","","","4","html-slider-response","146","","","","2","",""
"5290","box","kuacha,rafiki,adui,kitande","adui","j","4","html-keyboard-response","147","n","kitande","false","","",""
"3067.70000000007","","","","","4","html-slider-response","148","","","","2","",""
"5018","wolf","lugha,kaburi,ndizi,mchuzi","lugha","f","4","html-keyboard-response","149","f","lugha","true","","",""
"2899.0999999999767","","","","","4","html-slider-response","150","","","","2","",""
"4352","poster","madungog,nchi,fedha,kasuko","madungog","f","4","html-keyboard-response","151","f","madungog","true","","",""
"4187.20000000007","","","","","4","html-slider-response","152","","","","3","",""
"4700","eel","ishara,kunywa,msumari,kabuang","msumari","j","4","html-keyboard-response","153","f","ishara","false","","",""
"3736.0999999999767","","","","","4","html-slider-response","154","","","","2","",""
"6920","scissors","tanuri,duga,mtawa,suga","tanuri","f","4","html-keyboard-response","155","j","mtawa","false","","",""
"3057.5","","","","","4","html-slider-response","156","","","","2","",""
"4024","shop","samaki,nopya,kerida,ndezu","samaki","f","4","html-keyboard-response","157","f","samaki","true","","",""
"2472.9000000000233","","","","","4","html-slider-response","158","","","","5","",""
"4877","flower","tamasha,bega,lobo,usiku","bega","v","4","html-keyboard-response","159","f","tamasha","false","","",""
"4647.5","","","","","4","html-slider-response","160","","","","3","",""
"5409","picture","silya,chaki,asin,kubwa","kubwa","n","4","html-keyboard-response","161","v","chaki","false","","",""
"2305","","","","","4","html-slider-response","162","","","","2","",""
"2868","spoon","betri,nzuri,ngazi,pagsulod","pagsulod","n","4","html-keyboard-response","163","n","pagsulod","true","","",""
"2339.5999999999767","","","","","4","html-slider-response","164","","","","4","",""
"4640","fork","mgonjwa,baboy,paghago,gorisi","mgonjwa","f","4","html-keyboard-response","165","j","paghago","false","","",""
"2489.0999999999767","","","","","4","html-slider-response","166","","","","4","",""
"3187","shoe","nyeusi,uyoga,hatua,kama","uyoga","v","4","html-keyboard-response","167","v","uyoga","true","","",""
"2808.0999999999767","","","","","4","html-slider-response","168","","","","4","",""
"3317","human","bado,tinapay,kikapu,punguza","tinapay","v","4","html-keyboard-response","169","v","tinapay","true","","",""
"3216.0999999999767","","","","","4","html-slider-response","170","","","","5","",""
"3909","cup","matumai,dagat,shimoni,jeraha","matumai","f","4","html-keyboard-response","171","v","dagat","false","","",""
"2368.399999999907","","","","","4","html-slider-response","172","","","","2","",""
"4379","hammer","napakyas,mekno,kitovu,layag","napakyas","f","4","html-keyboard-response","173","v","mekno","false","","",""
"3857","","","","","4","html-slider-response","174","","","","2","",""
"7595","body","nyundu,jibini,tindashan,kununa","tindashan","j","4","html-keyboard-response","175","j","tindashan","true","","",""
"3045.1999999999534","","","","","4","html-slider-response","176","","","","4","",""
"5955","page","wakala,wimbo,ishiri,skina","wimbo","v","4","html-keyboard-response","177","f","wakala","false","","",""
"2783.5999999999767","","","","","4","html-slider-response","178","","","","2","",""
"3040","triangle","kihozi,bentaha,liog,kasadpan","kasadpan","n","4","html-keyboard-response","179","n","kasadpan","true","","",""
"3147.1999999999534","","","","","4","html-slider-response","180","","","","4","",""
"3061","berry","abogado,nogozi,kofia,kinywa","kofia","j","4","html-keyboard-response","181","j","kofia","true","","",""
"2370.8000000000466","","","","","4","html-slider-response","182","","","","4","",""
"2851","knee","mvuke,kubale,duka,bili","duka","j","4","html-keyboard-response","183","j","duka","true","","",""
"3132.29999999993","","","","","4","html-slider-response","184","","","","5","",""
"5662","picture","silya,kubwa,chaki,asin","kubwa","v","5","html-keyboard-response","188","j","chaki","false","","",""
"4519.199999999953","","","","","5","html-slider-response","189","","","","2","",""
"2284","elephant","kito,petye,pagduol,suka","kito","f","5","html-keyboard-response","190","f","kito","true","","",""
"3179.4000000000233","","","","","5","html-slider-response","191","","","","5","",""
"4991","office","hazini,leso,yatima,kuna","leso","v","5","html-keyboard-response","192","v","leso","true","","",""
"4644.300000000047","","","","","5","html-slider-response","193","","","","5","",""
"3932","perfume","bino,sungura,katuyoan,ndogo","katuyoan","j","5","html-keyboard-response","194","j","katuyoan","true","","",""
"2959.100000000093","","","","","5","html-slider-response","195","","","","2","",""
"2031","salmon","mzungu,sensilyo,seri,baharia","sensilyo","v","5","html-keyboard-response","196","v","sensilyo","true","","",""
"2767.20000000007","","","","","5","html-slider-response","197","","","","4","",""
"2355","dog","lubi,washia,bahari,kalamu","bahari","j","5","html-keyboard-response","198","j","bahari","true","","",""
"2487.0999999999767","","","","","5","html-slider-response","199","","","","4","",""
"4271","wheel","punda,tawo,bafuni,baadaye","bafuni","j","5","html-keyboard-response","200","j","bafuni","true","","",""
"3402.29999999993","","","","","5","html-slider-response","201","","","","3","",""
"5370","cat","neyemba,paghukom,baki,akili","paghukom","v","5","html-keyboard-response","202","v","paghukom","true","","",""
"4950.699999999953","","","","","5","html-slider-response","203","","","","4","",""
"11509","curtain","lisud,mchanga,bulwawan,chubani","mchanga","v","5","html-keyboard-response","204","v","mchanga","true","","",""
"3261.6999999999534","","","","","5","html-slider-response","205","","","","5","",""
"12424","flower","tamasha,bega,lobo,usiku","bega","v","5","html-keyboard-response","206","f","tamasha","false","","",""
"7379.400000000023","","","","","5","html-slider-response","207","","","","2","",""
"10597","number","shule,kengele,mundamo,choori","mundamo","j","5","html-keyboard-response","208","j","mundamo","true","","",""
"8578.400000000023","","","","","5","html-slider-response","209","","","","4","",""
"3633","banana","kasamok,hagdan,kazi,twai","kazi","j","5","html-keyboard-response","210","j","kazi","true","","",""
"4323.699999999953","","","","","5","html-slider-response","211","","","","4","",""
"10689","magazine","gundi,mchawi,bahandi,kiti","kiti","n","5","html-keyboard-response","212","n","kiti","true","","",""
"4117.800000000047","","","","","5","html-slider-response","213","","","","5","",""
"3695","donkey","bloke,elfu,lalake,rombus","elfu","v","5","html-keyboard-response","214","v","elfu","true","","",""
"2223.1999999999534","","","","","5","html-slider-response","215","","","","5","",""
"7509","mosquito","isda,taras,gutom,martilyo","martilyo","n","5","html-keyboard-response","216","n","martilyo","true","","",""
"7013.300000000047","","","","","5","html-slider-response","217","","","","5","",""
"10180","shoe","nyeusi,hatua,kama,uyoga","uyoga","n","5","html-keyboard-response","218","n","uyoga","true","","",""
"2613.7000000001863","","","","","5","html-slider-response","219","","","","4","",""
"2557","stone","ulimwengu,mkasi,wingi,asili","wingi","j","5","html-keyboard-response","220","j","wingi","true","","",""
"2296.2999999998137","","","","","5","html-slider-response","221","","","","5","",""
"5941","tomato","mvua,chupi,chupa,takatak","mvua","f","5","html-keyboard-response","222","f","mvua","true","","",""
"2417.4000000001397","","","","","5","html-slider-response","223","","","","2","",""
"8939","ceiling","kugita,kawaida,maua,rayna","maua","j","5","html-keyboard-response","224","v","kawaida","false","","",""
"2761.100000000093","","","","","5","html-slider-response","225","","","","2","",""
"2579","mirror","rangi,sulagma,kanding,furaha","sulagma","v","5","html-keyboard-response","226","v","sulagma","true","","",""
"2363.100000000093","","","","","5","html-slider-response","227","","","","5","",""
"4259","coffin","barua,tubag,kioo,hulma","kioo","j","5","html-keyboard-response","228","v","tubag","false","","",""
"3209.5","","","","","5","html-slider-response","229","","","","2","",""
"2268","spoon","betri,nzuri,ngazi,pagsulod","pagsulod","n","5","html-keyboard-response","230","n","pagsulod","true","","",""
"3684.3000000000466","","","","","5","html-slider-response","231","","","","4","",""
"4095","marker","mapafu,salita,atay,maji","maji","n","5","html-keyboard-response","232","n","maji","true","","",""
"2338.8000000000466","","","","","5","html-slider-response","233","","","","2","",""
"4403","list","alizeti,wingu,kuzama,kaso","wingu","v","5","html-keyboard-response","234","v","wingu","true","","",""
"2435.3000000000466","","","","","5","html-slider-response","235","","","","2","",""
"3772","hill","kushoto,matumbo,kukimba,sweta","matumbo","v","5","html-keyboard-response","236","v","matumbo","true","","",""
"3097.4000000001397","","","","","5","html-slider-response","237","","","","2","",""
"2611","shelf","pamahaw,bungtod,kadaot,awit","pamahaw","f","5","html-keyboard-response","238","f","pamahaw","true","","",""
"2602.6000000002095","","","","","5","html-slider-response","239","","","","5","",""
"5455","bucket","baga,kiatu,ijayo,init","kiatu","v","5","html-keyboard-response","240","v","kiatu","true","","",""
"2492.0999999998603","","","","","5","html-slider-response","241","","","","4","",""
"2002","ladder","pangalan,mashua,mwanga,kamba","pangalan","f","5","html-keyboard-response","242","f","pangalan","true","","",""
"3734.8000000000466","","","","","5","html-slider-response","243","","","","5","",""
"2133","human","bado,tinapay,kikapu,punguza","tinapay","v","5","html-keyboard-response","244","v","tinapay","true","","",""
"2719.8000000000466","","","","","5","html-slider-response","245","","","","5","",""
"6546","tissue","lamigas,kisiwa,ugomvi,katika","ugomvi","j","5","html-keyboard-response","246","n","katika","false","","",""
"2085","","","","","5","html-slider-response","247","","","","2","",""
"6915","finger","simu,moyo,sufuria,lima","moyo","v","5","html-keyboard-response","248","j","sufuria","false","","",""
"2341.9000000001397","","","","","5","html-slider-response","249","","","","2","",""
"7238","cave","ganti,kesho,maisha,nyundo","kesho","v","5","html-keyboard-response","250","v","kesho","true","","",""
"2574.3000000000466","","","","","5","html-slider-response","251","","","","4","",""
"2107","rose","singizi,mwanake,amani,paghalad","paghalad","n","5","html-keyboard-response","252","n","paghalad","true","","",""
"2429","","","","","5","html-slider-response","253","","","","4","",""
"2700","lamp","daub,afya,bilaska,mbolea","afya","v","5","html-keyboard-response","254","f","daub","false","","",""
"3631.8000000000466","","","","","5","html-slider-response","255","","","","2","",""
"4211","shoulder","kelele,ndaniya,guruwe,mkuu","mkuu","n","5","html-keyboard-response","256","v","ndaniya","false","","",""
"3296.9000000001397","","","","","5","html-slider-response","257","","","","2","",""
"2196","sock","ndoora,kimysa,mamba,mtirka","mamba","j","5","html-keyboard-response","258","j","mamba","true","","",""
"3215.4000000001397","","","","","5","html-slider-response","259","","","","5","",""
"2765","mother","babaye,kahawa,mbuzi,jokofu","babaye","f","5","html-keyboard-response","260","f","babaye","true","","",""
"3251.899999999907","","","","","5","html-slider-response","261","","","","5","",""
"3372","key","miaka,goma,ahos,chombo","chombo","n","5","html-keyboard-response","262","n","chombo","true","","",""
"4520.699999999953","","","","","5","html-slider-response","263","","","","3","",""
"5777","squirrel","hofu,mahugaw,ukweli,kichwa","hofu","f","5","html-keyboard-response","264","v","mahugaw","false","","",""
"3170","","","","","5","html-slider-response","265","","","","4","",""
"2251","nose","gubat,sehemu,kopa,kidole","sehemu","v","5","html-keyboard-response","266","v","sehemu","true","","",""
"2884.899999999907","","","","","5","html-slider-response","267","","","","5","",""
"1704","book","kuhesa,picha,mara,mali","mali","n","5","html-keyboard-response","268","n","mali","true","","",""
"2757.5","","","","","5","html-slider-response","269","","","","5","",""
"7123","bank","kudhibi,tualya,silingan,ofisi","silingan","j","5","html-keyboard-response","270","n","ofisi","false","","",""
"2251.5","","","","","5","html-slider-response","271","","","","2","",""
"3243","cup","dagat,shimoni,jeraha,matumai","matumai","n","5","html-keyboard-response","272","f","dagat","false","","",""
"2551","","","","","5","html-slider-response","273","","","","2","",""
"2890","boat","hamsi,pombe,kitanda,agalon","agalon","n","5","html-keyboard-response","274","f","hamsi","false","","",""
"4419.600000000093","","","","","5","html-slider-response","275","","","","1","",""
"7759","letter","filimbi,chuma,kifua,uhuru","kifua","j","5","html-keyboard-response","276","f","filimbi","false","","",""
"3375.899999999907","","","","","5","html-slider-response","277","","","","2","",""
"4009","puppet","napulo,mazishi,lamok,godoro","mazishi","v","5","html-keyboard-response","278","v","mazishi","true","","",""
"2072.3000000000466","","","","","5","html-slider-response","279","","","","2","",""
"2394","apple","ukame,estante,kisu,edad","kisu","j","5","html-keyboard-response","280","j","kisu","true","","",""
"2984.1999999999534","","","","","5","html-slider-response","281","","","","5","",""
"2065","tooth","kijiko,uadui,kabalaka,pahiyum","kabalaka","j","5","html-keyboard-response","282","j","kabalaka","true","","",""
"3188.399999999907","","","","","5","html-slider-response","283","","","","5","",""
"2956","shop","nopya,kerida,samaki,ndezu","samaki","j","5","html-keyboard-response","284","j","samaki","true","","",""
"2857.0999999998603","","","","","5","html-slider-response","285","","","","5","",""
"6540","sun","bendi,luha,uongo,basi","basi","n","5","html-keyboard-response","286","n","basi","true","","",""
"4043.9000000001397","","","","","5","html-slider-response","287","","","","4","",""
"2646","knee","mvuke,duka,kubale,bili","duka","v","5","html-keyboard-response","288","v","duka","true","","",""
"4598.399999999907","","","","","5","html-slider-response","289","","","","4","",""
"6749","fork","mgonjwa,baboy,paghago,gorisi","mgonjwa","f","5","html-keyboard-response","290","j","paghago","false","","",""
"3418","","","","","5","html-slider-response","291","","","","4","",""
"5930","wolf","kaburi,ndizi,lugha,mchuzi","lugha","j","5","html-keyboard-response","292","f","kaburi","false","","",""
"2225.4000000001397","","","","","5","html-slider-response","293","","","","4","",""
"1957","sheet","juuya,watu,kamantis,bililhon","bililhon","n","5","html-keyboard-response","294","n","bililhon","true","","",""
"3047","","","","","5","html-slider-response","295","","","","5","",""
"6346","giraffe","daraja,jumatu,hangyo,mahitabo","mahitabo","n","5","html-keyboard-response","296","v","jumatu","false","","",""
"3628.4000000001397","","","","","5","html-slider-response","297","","","","4","",""
"2366","bread","kaili,dizeli,bugas,dari","dari","n","5","html-keyboard-response","298","n","dari","true","","",""
"3758.6999999999534","","","","","5","html-slider-response","299","","","","5","",""
"5328","box","kuacha,rafiki,adui,kitande","adui","j","5","html-keyboard-response","300","f","kuacha","false","","",""
"3319.100000000093","","","","","5","html-slider-response","301","","","","4","",""
"8095","cop","bustani,jikoni,bakus,mechezo","mechezo","n","5","html-keyboard-response","302","n","mechezo","true","","",""
"2784.3000000000466","","","","","5","html-slider-response","303","","","","2","",""
"1912","fish","bala,buli,baho,imani","buli","v","5","html-keyboard-response","304","v","buli","true","","",""
"3389.9000000001397","","","","","5","html-slider-response","305","","","","5","",""
"4680","door","surali,tena,soko,nyota","surali","f","5","html-keyboard-response","306","f","surali","true","","",""
"4335.799999999814","","","","","5","html-slider-response","307","","","","4","",""
"4924","woman","pagtabon,bandari,bituin,kovuli","pagtabon","f","5","html-keyboard-response","308","f","pagtabon","true","","",""
"3355.600000000093","","","","","5","html-slider-response","309","","","","4","",""
"2737","clock","kartasi,abang,mbwa,osha","mbwa","j","5","html-keyboard-response","310","j","mbwa","true","","",""
"3298.100000000093","","","","","5","html-slider-response","311","","","","5","",""
"3300","berry","abogado,nogozi,kofia,kinywa","kofia","j","5","html-keyboard-response","312","j","kofia","true","","",""
"6982.399999999907","","","","","5","html-slider-response","313","","","","5","",""
"5920","towel","tembo,pagpalit,funzi,pito","pagpalit","v","5","html-keyboard-response","314","f","tembo","false","","",""
"3887.5999999998603","","","","","5","html-slider-response","315","","","","2","",""
"4885","pudding","abug,aibu,mpishi,iring","aibu","v","5","html-keyboard-response","316","n","iring","false","","",""
"3184.5999999998603","","","","","5","html-slider-response","317","","","","2","",""
"6345","park","tambok,bunifu,pwani,ihalas","bunifu","v","5","html-keyboard-response","318","n","ihalas","false","","",""
"2657.4000000001397","","","","","5","html-slider-response","319","","","","2","",""
"2532","body","nyundu,tindashan,jibini,kununa","tindashan","v","5","html-keyboard-response","320","v","tindashan","true","","",""
"2604.0999999998603","","","","","5","html-slider-response","321","","","","4","",""
"1892","olive","jiwe,bata,siagi,welder","jiwe","f","5","html-keyboard-response","322","f","jiwe","true","","",""
"3425.4000000001397","","","","","5","html-slider-response","323","","","","5","",""
"3649","poster","nchi,madungog,fedha,kasuko","madungog","v","5","html-keyboard-response","324","v","madungog","true","","",""
"6292.199999999953","","","","","5","html-slider-response","325","","","","3","",""
"5803","hammer","mekno,napakyas,kitovu,layag","napakyas","v","5","html-keyboard-response","326","f","mekno","false","","",""
"7821.5","","","","","5","html-slider-response","327","","","","2","",""
"4104","train","sayari,itik,dakika,mungu","sayari","f","5","html-keyboard-response","328","f","sayari","true","","",""
"3046.8000000000466","","","","","5","html-slider-response","329","","","","2","",""
"3149","cigar","adhabu,ndugu,kuta,mlango","adhabu","f","5","html-keyboard-response","330","v","ndugu","false","","",""
"2240.8000000000466","","","","","5","html-slider-response","331","","","","2","",""
"3290","spider","bunyag,kamwe,mkboa,atop","kamwe","v","5","html-keyboard-response","332","v","kamwe","true","","",""
"2318.3000000000466","","","","","5","html-slider-response","333","","","","5","",""
"3287","notebook","msitu,kila,kemia,mdudu","kemia","j","5","html-keyboard-response","334","j","kemia","true","","",""
"3337.5","","","","","5","html-slider-response","335","","","","3","",""
"2955","candle","gabi,farasi,geza,kupanda","geza","j","5","html-keyboard-response","336","j","geza","true","","",""
"3941.5","","","","","5","html-slider-response","337","","","","5","",""
"28633","column","ufagio,pundok,dila,pala","ufagio","f","5","html-keyboard-response","338","n","pala","false","","",""
"5576.899999999907","","","","","5","html-slider-response","339","","","","4","",""
"7477","basket","kumbuka,utepe,kumba,hasira","kumba","j","5","html-keyboard-response","340","j","kumba","true","","",""
"2890.3000000000466","","","","","5","html-slider-response","341","","","","4","",""
"4120","page","wakala,ishiri,skina,wimbo","wimbo","n","5","html-keyboard-response","342","f","wakala","false","","",""
"2901.6999999999534","","","","","5","html-slider-response","343","","","","2","",""
"5331","bridge","daima,sahani,ngono,panya","sahani","v","5","html-keyboard-response","344","v","sahani","true","","",""
"3274.600000000093","","","","","5","html-slider-response","345","","","","5","",""
"4471","window","nanga,kujenga,umaga,kweli","kweli","n","5","html-keyboard-response","346","n","kweli","true","","",""
"2334.899999999907","","","","","5","html-slider-response","347","","","","2","",""
"3381","snake","jansa,karon,pagtukod,mvringo","pagtukod","j","5","html-keyboard-response","348","j","pagtukod","true","","",""
"3150.899999999907","","","","","5","html-slider-response","349","","","","4","",""
"3743","flag","ndege,trekta,mkate,kawa","trekta","v","5","html-keyboard-response","350","v","trekta","true","","",""
"3747.100000000093","","","","","5","html-slider-response","351","","","","2","",""
"5147","bed","kalipay,haraka,starehe,mapintas","mapintas","n","5","html-keyboard-response","352","v","haraka","false","","",""
"4155.5","","","","","5","html-slider-response","353","","","","2","",""
"3009","music","mraba,mageho,tumbo,baiski","baiski","n","5","html-keyboard-response","354","n","baiski","true","","",""
"3928","","","","","5","html-slider-response","355","","","","5","",""
"4939","gift","baba,nyange,pagtawag,baso","pagtawag","j","5","html-keyboard-response","356","n","baso","false","","",""
"2889.899999999907","","","","","5","html-slider-response","357","","","","2","",""
"10156","bonfire","mwezi,mfuko,kusanya,goti","goti","n","5","html-keyboard-response","358","n","goti","true","","",""
"2903.5","","","","","5","html-slider-response","359","","","","5","",""
"4071","scissors","duga,mtawa,suga,tanuri","tanuri","n","5","html-keyboard-response","360","v","mtawa","false","","",""
"2984.8000000000466","","","","","5","html-slider-response","361","","","","2","",""
"2742","eel","msumari,ishara,kunywa,kabuang","msumari","f","5","html-keyboard-response","362","v","ishara","false","","",""
"3523.5","","","","","5","html-slider-response","363","","","","3","",""
"2403","pants","pintal,chuki,haki,hari","haki","j","5","html-keyboard-response","364","n","hari","false","","",""
"2672.4000000001397","","","","","5","html-slider-response","365","","","","4","",""
"1981","triangle","kihozi,bentaha,liog,kasadpan","kasadpan","n","5","html-keyboard-response","366","n","kasadpan","true","","",""
"2282.7000000001863","","","","","5","html-slider-response","367","","","","4","",""
"27773.199999999953","","","","","6","html-slider-response","369","","","","","1",""
"15543","","","","","6","html-keyboard-response","370","","","","","","false"
