"rt","en_word","options","swa_word","correct_answer","phase","trial_type","trial_index","input_answer","input_word","accuracy","certainty","swahili_knowledge","previous_subject"
"5815","sun","bendi,luha,uongo,basi","basi","n","4","html-keyboard-response","5","f","bendi","false","","",""
"2851.5","","","","","4","html-slider-response","6","","","","2","",""
"6146","basket","kumba,kumbuka,utepe,hasira","kumba","f","4","html-keyboard-response","7","n","hasira","false","","",""
"2062.6999999997206","","","","","4","html-slider-response","8","","","","2","",""
"2378","curtain","lisud,bulwawan,chubani,mchanga","mchanga","n","4","html-keyboard-response","9","n","mchanga","true","","",""
"1424.4000000003725","","","","","4","html-slider-response","10","","","","4","",""
"4314","park","tambok,pwani,bunifu,ihalas","bunifu","j","4","html-keyboard-response","11","j","bunifu","true","","",""
"1143.2999999998137","","","","","4","html-slider-response","12","","","","2","",""
"4754","nose","gubat,kopa,kidole,sehemu","sehemu","n","4","html-keyboard-response","13","v","kopa","false","","",""
"1817.7999999998137","","","","","4","html-slider-response","14","","","","2","",""
"5737","window","kweli,nanga,kujenga,umaga","kweli","f","4","html-keyboard-response","15","f","kweli","true","","",""
"1348.2999999998137","","","","","4","html-slider-response","16","","","","2","",""
"3957","cave","kesho,ganti,maisha,nyundo","kesho","f","4","html-keyboard-response","17","f","kesho","true","","",""
"1109","","","","","4","html-slider-response","18","","","","4","",""
"11650","woman","bandari,bituin,kovuli,pagtabon","pagtabon","n","4","html-keyboard-response","19","n","pagtabon","true","","",""
"1184.3999999999069","","","","","4","html-slider-response","20","","","","2","",""
"5211","bed","kalipay,haraka,starehe,mapintas","mapintas","n","4","html-keyboard-response","21","v","haraka","false","","",""
"1352","","","","","4","html-slider-response","22","","","","1","",""
"5064","column","pundok,ufagio,dila,pala","ufagio","v","4","html-keyboard-response","23","v","ufagio","true","","",""
"1246","","","","","4","html-slider-response","24","","","","2","",""
"7008","fish","bala,baho,imani,buli","buli","n","4","html-keyboard-response","25","f","bala","false","","",""
"1029.7999999998137","","","","","4","html-slider-response","26","","","","2","",""
"1385","boat","agalon,hamsi,pombe,kitanda","agalon","f","4","html-keyboard-response","27","f","agalon","true","","",""
"1343.6000000000931","","","","","4","html-slider-response","28","","","","4","",""
"4910","cop","mechezo,bustani,jikoni,bakus","mechezo","f","4","html-keyboard-response","29","f","mechezo","true","","",""
"981.3000000002794","","","","","4","html-slider-response","30","","","","2","",""
"3163","shoulder","kelele,ndaniya,mkuu,guruwe","mkuu","j","4","html-keyboard-response","31","j","mkuu","true","","",""
"1094","","","","","4","html-slider-response","32","","","","2","",""
"4356","magazine","gundi,mchawi,kiti,bahandi","kiti","j","4","html-keyboard-response","33","v","mchawi","false","","",""
"996.8999999999069","","","","","4","html-slider-response","34","","","","2","",""
"5432","gift","pagtawag,baba,nyange,baso","pagtawag","f","4","html-keyboard-response","35","f","pagtawag","true","","",""
"1128.6000000000931","","","","","4","html-slider-response","36","","","","1","",""
"2884","clock","kartasi,abang,mbwa,osha","mbwa","j","4","html-keyboard-response","37","n","osha","false","","",""
"1177.7000000001863","","","","","4","html-slider-response","38","","","","4","",""
"2371","squirrel","mahugaw,hofu,ukweli,kichwa","hofu","v","4","html-keyboard-response","39","v","hofu","true","","",""
"1968","","","","","4","html-slider-response","40","","","","4","",""
"5251","key","miaka,goma,chombo,ahos","chombo","j","4","html-keyboard-response","41","j","chombo","true","","",""
"2187.8000000002794","","","","","4","html-slider-response","42","","","","3","",""
"4116","salmon","sensilyo,mzungu,seri,baharia","sensilyo","f","4","html-keyboard-response","43","f","sensilyo","true","","",""
"1255.8999999999069","","","","","4","html-slider-response","44","","","","2","",""
"4623","puppet","napulo,mazishi,lamok,godoro","mazishi","v","4","html-keyboard-response","45","v","mazishi","true","","",""
"1029.1000000000931","","","","","4","html-slider-response","46","","","","2","",""
"2503","letter","filimbi,kifua,chuma,uhuru","kifua","v","4","html-keyboard-response","47","f","filimbi","false","","",""
"1334.8999999999069","","","","","4","html-slider-response","48","","","","2","",""
"18392","flag","ndege,mkate,kawa,trekta","trekta","n","4","html-keyboard-response","49","n","trekta","true","","",""
"1055.8999999999069","","","","","4","html-slider-response","50","","","","2","",""
"4391","mother","kahawa,babaye,mbuzi,jokofu","babaye","v","4","html-keyboard-response","51","j","mbuzi","false","","",""
"1331.2999999998137","","","","","4","html-slider-response","52","","","","1","",""
"3832","ceiling","kugita,kawaida,rayna,maua","maua","n","4","html-keyboard-response","53","n","maua","true","","",""
"980.3000000002794","","","","","4","html-slider-response","54","","","","2","",""
"3452","stone","ulimwengu,mkasi,wingi,asili","wingi","j","4","html-keyboard-response","55","n","asili","false","","",""
"938.3999999999069","","","","","4","html-slider-response","56","","","","2","",""
"4226","sock","ndoora,kimysa,mtirka,mamba","mamba","n","4","html-keyboard-response","57","f","ndoora","false","","",""
"743.3000000002794","","","","","4","html-slider-response","58","","","","2","",""
"4708","rose","singizi,paghalad,mwanake,amani","paghalad","v","4","html-keyboard-response","59","v","paghalad","true","","",""
"1042.3999999999069","","","","","4","html-slider-response","60","","","","2","",""
"3073","office","leso,hazini,yatima,kuna","leso","f","4","html-keyboard-response","61","f","leso","true","","",""
"1199","","","","","4","html-slider-response","62","","","","2","",""
"4855","number","mundamo,shule,kengele,choori","mundamo","f","4","html-keyboard-response","63","f","mundamo","true","","",""
"1043.7000000001863","","","","","4","html-slider-response","64","","","","2","",""
"2807","lamp","afya,daub,bilaska,mbolea","afya","f","4","html-keyboard-response","65","f","afya","true","","",""
"1136.8000000002794","","","","","4","html-slider-response","66","","","","4","",""
"4051","dog","lubi,washia,bahari,kalamu","bahari","j","4","html-keyboard-response","67","f","lubi","false","","",""
"1046.9000000003725","","","","","4","html-slider-response","68","","","","2","",""
"1606","mosquito","isda,martilyo,taras,gutom","martilyo","v","4","html-keyboard-response","69","v","martilyo","true","","",""
"1047.2000000001863","","","","","4","html-slider-response","70","","","","4","",""
"6359","notebook","msitu,kila,kemia,mdudu","kemia","j","4","html-keyboard-response","71","v","kila","false","","",""
"1720.2000000001863","","","","","4","html-slider-response","72","","","","3","",""
"2185","apple","kisu,ukame,estante,edad","kisu","f","4","html-keyboard-response","73","f","kisu","true","","",""
"937.1000000000931","","","","","4","html-slider-response","74","","","","4","",""
"3433","cigar","adhabu,ndugu,kuta,mlango","adhabu","f","4","html-keyboard-response","75","f","adhabu","true","","",""
"1150.9000000003725","","","","","4","html-slider-response","76","","","","4","",""
"5065","coffin","barua,tubag,hulma,kioo","kioo","n","4","html-keyboard-response","77","n","kioo","true","","",""
"970.8999999999069","","","","","4","html-slider-response","78","","","","2","",""
"4834","shelf","bungtod,kadaot,awit,pamahaw","pamahaw","n","4","html-keyboard-response","79","j","awit","false","","",""
"1181.1000000000931","","","","","4","html-slider-response","80","","","","2","",""
"1725","bread","dari,kaili,dizeli,bugas","dari","f","4","html-keyboard-response","81","f","dari","true","","",""
"971.3999999999069","","","","","4","html-slider-response","82","","","","4","",""
"2229","olive","bata,siagi,jiwe,welder","jiwe","j","4","html-keyboard-response","83","j","jiwe","true","","",""
"1347.6999999997206","","","","","4","html-slider-response","84","","","","4","",""
"5040","spider","bunyag,kamwe,mkboa,atop","kamwe","v","4","html-keyboard-response","85","v","kamwe","true","","",""
"1447.8999999999069","","","","","4","html-slider-response","86","","","","2","",""
"5803","cat","neyemba,paghukom,baki,akili","paghukom","v","4","html-keyboard-response","87","v","paghukom","true","","",""
"1015.5999999996275","","","","","4","html-slider-response","88","","","","2","",""
"5126","pudding","abug,mpishi,iring,aibu","aibu","n","4","html-keyboard-response","89","v","mpishi","false","","",""
"1250","","","","","4","html-slider-response","90","","","","1","",""
"4465","towel","tembo,funzi,pagpalit,pito","pagpalit","j","4","html-keyboard-response","91","f","tembo","false","","",""
"1087","","","","","4","html-slider-response","92","","","","2","",""
"12182","bucket","baga,ijayo,init,kiatu","kiatu","n","4","html-keyboard-response","93","n","kiatu","true","","",""
"1364.1999999997206","","","","","4","html-slider-response","94","","","","2","",""
"12379","wheel","punda,tawo,baadaye,bafuni","bafuni","n","4","html-keyboard-response","95","n","bafuni","true","","",""
"1407.5","","","","","4","html-slider-response","96","","","","1","",""
"3446","ladder","mashua,pangalan,mwanga,kamba","pangalan","v","4","html-keyboard-response","97","v","pangalan","true","","",""
"1240.8999999999069","","","","","4","html-slider-response","98","","","","2","",""
"4013","marker","mapafu,maji,salita,atay","maji","v","4","html-keyboard-response","99","f","mapafu","false","","",""
"972","","","","","4","html-slider-response","100","","","","2","",""
"5299","tomato","chupi,mvua,chupa,takatak","mvua","v","4","html-keyboard-response","101","n","takatak","false","","",""
"1326.3999999999069","","","","","4","html-slider-response","102","","","","1","",""
"1398","door","surali,tena,soko,nyota","surali","f","4","html-keyboard-response","103","f","surali","true","","",""
"1034.1999999997206","","","","","4","html-slider-response","104","","","","4","",""
"5528","bonfire","mwezi,mfuko,goti,kusanya","goti","j","4","html-keyboard-response","105","f","mwezi","false","","",""
"848.6000000000931","","","","","4","html-slider-response","106","","","","2","",""
"6773","mirror","rangi,kanding,sulagma,furaha","sulagma","j","4","html-keyboard-response","107","n","furaha","false","","",""
"1022.5","","","","","4","html-slider-response","108","","","","2","",""
"6013","giraffe","mahitabo,daraja,jumatu,hangyo","mahitabo","f","4","html-keyboard-response","109","v","daraja","false","","",""
"1223.3999999999069","","","","","4","html-slider-response","110","","","","1","",""
"4776","tissue","ugomvi,lamigas,kisiwa,katika","ugomvi","f","4","html-keyboard-response","111","j","kisiwa","false","","",""
"1408.2999999998137","","","","","4","html-slider-response","112","","","","2","",""
"6110","snake","pagtukod,jansa,karon,mvringo","pagtukod","f","4","html-keyboard-response","113","f","pagtukod","true","","",""
"923","","","","","4","html-slider-response","114","","","","2","",""
"2864","finger","moyo,simu,sufuria,lima","moyo","f","4","html-keyboard-response","115","f","moyo","true","","",""
"1080.7999999998137","","","","","4","html-slider-response","116","","","","2","",""
"4816","train","itik,dakika,sayari,mungu","sayari","j","4","html-keyboard-response","117","j","sayari","true","","",""
"1135.2999999998137","","","","","4","html-slider-response","118","","","","2","",""
"4900","candle","geza,gabi,farasi,kupanda","geza","f","4","html-keyboard-response","119","f","geza","true","","",""
"932.5","","","","","4","html-slider-response","120","","","","2","",""
"3407","book","mali,kuhesa,picha,mara","mali","f","4","html-keyboard-response","121","n","mara","false","","",""
"1093.2000000001863","","","","","4","html-slider-response","122","","","","2","",""
"7525","elephant","petye,pagduol,kito,suka","kito","j","4","html-keyboard-response","123","j","kito","true","","",""
"1196.1000000000931","","","","","4","html-slider-response","124","","","","4","",""
"3185","sheet","juuya,watu,bililhon,kamantis","bililhon","j","4","html-keyboard-response","125","j","bililhon","true","","",""
"1119.5","","","","","4","html-slider-response","126","","","","4","",""
"6192","banana","kasamok,kazi,hagdan,twai","kazi","v","4","html-keyboard-response","127","j","hagdan","false","","",""
"1687.5","","","","","4","html-slider-response","128","","","","2","",""
"5301","perfume","bino,sungura,katuyoan,ndogo","katuyoan","j","4","html-keyboard-response","129","v","sungura","false","","",""
"1471.7999999998137","","","","","4","html-slider-response","130","","","","1","",""
"1658","bank","silingan,kudhibi,tualya,ofisi","silingan","f","4","html-keyboard-response","131","f","silingan","true","","",""
"1380.5","","","","","4","html-slider-response","132","","","","5","",""
"5545","tooth","kabalaka,kijiko,uadui,pahiyum","kabalaka","f","4","html-keyboard-response","133","j","uadui","false","","",""
"1535.6000000000931","","","","","4","html-slider-response","134","","","","2","",""
"8846","hill","kushoto,matumbo,kukimba,sweta","matumbo","v","4","html-keyboard-response","135","v","matumbo","true","","",""
"12571","","","","","4","html-slider-response","136","","","","2","",""
"3262","music","mraba,mageho,tumbo,baiski","baiski","n","4","html-keyboard-response","137","n","baiski","true","","",""
"4220.700000000186","","","","","4","html-slider-response","138","","","","4","",""
"24768","pants","pintal,haki,chuki,hari","haki","v","4","html-keyboard-response","139","v","haki","true","","",""
"2049.0999999996275","","","","","4","html-slider-response","140","","","","2","",""
"8766","donkey","bloke,lalake,rombus,elfu","elfu","n","4","html-keyboard-response","141","j","rombus","false","","",""
"2827.2000000001863","","","","","4","html-slider-response","142","","","","1","",""
"7920","bridge","daima,ngono,sahani,panya","sahani","j","4","html-keyboard-response","143","v","ngono","false","","",""
"4027.6999999997206","","","","","4","html-slider-response","144","","","","2","",""
"2887","list","alizeti,wingu,kuzama,kaso","wingu","v","4","html-keyboard-response","145","v","wingu","true","","",""
"2457.600000000093","","","","","4","html-slider-response","146","","","","4","",""
"6397","box","kuacha,adui,rafiki,kitande","adui","v","4","html-keyboard-response","147","v","adui","true","","",""
"2155.899999999907","","","","","4","html-slider-response","148","","","","4","",""
"1888","wolf","kaburi,ndizi,lugha,mchuzi","lugha","j","4","html-keyboard-response","149","j","lugha","true","","",""
"3189.1999999997206","","","","","4","html-slider-response","150","","","","4","",""
"6023","poster","nchi,fedha,madungog,kasuko","madungog","j","4","html-keyboard-response","151","v","fedha","false","","",""
"2428.3000000002794","","","","","4","html-slider-response","152","","","","2","",""
"3271","eel","ishara,msumari,kunywa,kabuang","msumari","v","4","html-keyboard-response","153","f","ishara","false","","",""
"1070.2000000001863","","","","","4","html-slider-response","154","","","","2","",""
"2808","scissors","duga,mtawa,suga,tanuri","tanuri","n","4","html-keyboard-response","155","n","tanuri","true","","",""
"5042.299999999814","","","","","4","html-slider-response","156","","","","4","",""
"3662","shop","nopya,kerida,samaki,ndezu","samaki","j","4","html-keyboard-response","157","j","samaki","true","","",""
"3051.600000000093","","","","","4","html-slider-response","158","","","","4","",""
"11222","flower","bega,tamasha,lobo,usiku","bega","f","4","html-keyboard-response","159","n","usiku","false","","",""
"4599.5","","","","","4","html-slider-response","160","","","","2","",""
"3361","picture","kubwa,silya,chaki,asin","kubwa","f","4","html-keyboard-response","161","f","kubwa","true","","",""
"3018.5","","","","","4","html-slider-response","162","","","","1","",""
"5827","spoon","pagsulod,betri,nzuri,ngazi","pagsulod","f","4","html-keyboard-response","163","v","betri","false","","",""
"1521.5","","","","","4","html-slider-response","164","","","","2","",""
"6540","fork","baboy,mgonjwa,paghago,gorisi","mgonjwa","v","4","html-keyboard-response","165","j","paghago","false","","",""
"2012.7000000001863","","","","","4","html-slider-response","166","","","","2","",""
"3894","shoe","uyoga,nyeusi,hatua,kama","uyoga","f","4","html-keyboard-response","167","f","uyoga","true","","",""
"2084.7999999998137","","","","","4","html-slider-response","168","","","","1","",""
"2159","human","bado,kikapu,punguza,tinapay","tinapay","n","4","html-keyboard-response","169","n","tinapay","true","","",""
"2199.7999999998137","","","","","4","html-slider-response","170","","","","4","",""
"5950","cup","matumai,dagat,shimoni,jeraha","matumai","f","4","html-keyboard-response","171","v","dagat","false","","",""
"1916.5","","","","","4","html-slider-response","172","","","","2","",""
"3803","hammer","mekno,kitovu,napakyas,layag","napakyas","j","4","html-keyboard-response","173","j","napakyas","true","","",""
"3095.1999999997206","","","","","4","html-slider-response","174","","","","2","",""
"36182","body","tindashan,nyundu,jibini,kununa","tindashan","f","4","html-keyboard-response","175","j","jibini","false","","",""
"2368.2000000001863","","","","","4","html-slider-response","176","","","","1","",""
"4417","page","wimbo,wakala,ishiri,skina","wimbo","f","4","html-keyboard-response","177","f","wimbo","true","","",""
"3181.600000000093","","","","","4","html-slider-response","178","","","","2","",""
"3440","triangle","kihozi,bentaha,liog,kasadpan","kasadpan","n","4","html-keyboard-response","179","n","kasadpan","true","","",""
"2780.8000000002794","","","","","4","html-slider-response","180","","","","3","",""
"3809","berry","abogado,nogozi,kinywa,kofia","kofia","n","4","html-keyboard-response","181","n","kofia","true","","",""
"10149.69999999972","","","","","4","html-slider-response","182","","","","3","",""
"4482","knee","mvuke,duka,kubale,bili","duka","v","4","html-keyboard-response","183","f","mvuke","false","","",""
"1966.8000000002794","","","","","4","html-slider-response","184","","","","1","",""
"5461","picture","silya,kubwa,chaki,asin","kubwa","v","5","html-keyboard-response","188","v","kubwa","true","","",""
"2130.8000000002794","","","","","5","html-slider-response","189","","","","2","",""
"6746","elephant","petye,pagduol,suka,kito","kito","n","5","html-keyboard-response","190","n","kito","true","","",""
"3144.100000000093","","","","","5","html-slider-response","191","","","","2","",""
"1841","office","leso,hazini,yatima,kuna","leso","f","5","html-keyboard-response","192","f","leso","true","","",""
"3269.8000000002794","","","","","5","html-slider-response","193","","","","2","",""
"2416","perfume","bino,sungura,ndogo,katuyoan","katuyoan","n","5","html-keyboard-response","194","n","katuyoan","true","","",""
"2509.899999999907","","","","","5","html-slider-response","195","","","","2","",""
"1424","salmon","sensilyo,mzungu,seri,baharia","sensilyo","f","5","html-keyboard-response","196","f","sensilyo","true","","",""
"5257","","","","","5","html-slider-response","197","","","","2","",""
"1662","dog","lubi,washia,kalamu,bahari","bahari","n","5","html-keyboard-response","198","f","lubi","false","","",""
"1709.3000000002794","","","","","5","html-slider-response","199","","","","2","",""
"4277","wheel","bafuni,punda,tawo,baadaye","bafuni","f","5","html-keyboard-response","200","n","baadaye","false","","",""
"2169.2000000001863","","","","","5","html-slider-response","201","","","","2","",""
"4553","cat","neyemba,paghukom,baki,akili","paghukom","v","5","html-keyboard-response","202","v","paghukom","true","","",""
"2244.899999999907","","","","","5","html-slider-response","203","","","","2","",""
"2847","curtain","lisud,bulwawan,mchanga,chubani","mchanga","j","5","html-keyboard-response","204","j","mchanga","true","","",""
"2092.6999999997206","","","","","5","html-slider-response","205","","","","4","",""
"5887","flower","tamasha,lobo,usiku,bega","bega","n","5","html-keyboard-response","206","n","bega","true","","",""
"1284.8999999999069","","","","","5","html-slider-response","207","","","","2","",""
"3973","number","mundamo,shule,kengele,choori","mundamo","f","5","html-keyboard-response","208","f","mundamo","true","","",""
"989.1000000000931","","","","","5","html-slider-response","209","","","","2","",""
"4985","banana","kazi,kasamok,hagdan,twai","kazi","f","5","html-keyboard-response","210","v","kasamok","false","","",""
"1068.1999999997206","","","","","5","html-slider-response","211","","","","2","",""
"4335","magazine","gundi,mchawi,bahandi,kiti","kiti","n","5","html-keyboard-response","212","j","bahandi","false","","",""
"1078.8999999999069","","","","","5","html-slider-response","213","","","","2","",""
"7228","donkey","bloke,elfu,lalake,rombus","elfu","v","5","html-keyboard-response","214","n","rombus","false","","",""
"1520.8999999999069","","","","","5","html-slider-response","215","","","","2","",""
"1880","mosquito","isda,taras,gutom,martilyo","martilyo","n","5","html-keyboard-response","216","n","martilyo","true","","",""
"1420.6999999997206","","","","","5","html-slider-response","217","","","","4","",""
"2606","shoe","nyeusi,hatua,kama,uyoga","uyoga","n","5","html-keyboard-response","218","n","uyoga","true","","",""
"1284","","","","","5","html-slider-response","219","","","","2","",""
"3179","stone","wingi,ulimwengu,mkasi,asili","wingi","f","5","html-keyboard-response","220","n","asili","false","","",""
"980","","","","","5","html-slider-response","221","","","","2","",""
"2660","tomato","chupi,mvua,chupa,takatak","mvua","v","5","html-keyboard-response","222","n","takatak","false","","",""
"1389.3000000002794","","","","","5","html-slider-response","223","","","","1","",""
"4084","ceiling","kugita,kawaida,maua,rayna","maua","j","5","html-keyboard-response","224","n","rayna","false","","",""
"793.2999999998137","","","","","5","html-slider-response","225","","","","2","",""
"3670","mirror","sulagma,rangi,kanding,furaha","sulagma","f","5","html-keyboard-response","226","n","furaha","false","","",""
"1009.6000000000931","","","","","5","html-slider-response","227","","","","2","",""
"2177","coffin","barua,kioo,tubag,hulma","kioo","v","5","html-keyboard-response","228","v","kioo","true","","",""
"872.8999999999069","","","","","5","html-slider-response","229","","","","2","",""
"3400","spoon","betri,pagsulod,nzuri,ngazi","pagsulod","v","5","html-keyboard-response","230","v","pagsulod","true","","",""
"1167.8000000002794","","","","","5","html-slider-response","231","","","","1","",""
"2219","marker","maji,mapafu,salita,atay","maji","f","5","html-keyboard-response","232","f","maji","true","","",""
"789.8000000002794","","","","","5","html-slider-response","233","","","","2","",""
"2416","list","alizeti,kuzama,kaso,wingu","wingu","n","5","html-keyboard-response","234","n","wingu","true","","",""
"1465.7999999998137","","","","","5","html-slider-response","235","","","","4","",""
"6403","hill","kushoto,kukimba,sweta,matumbo","matumbo","n","5","html-keyboard-response","236","n","matumbo","true","","",""
"1262","","","","","5","html-slider-response","237","","","","1","",""
"2486","shelf","bungtod,pamahaw,kadaot,awit","pamahaw","v","5","html-keyboard-response","238","f","bungtod","false","","",""
"1586.7000000001863","","","","","5","html-slider-response","239","","","","2","",""
"3799","bucket","baga,ijayo,kiatu,init","kiatu","j","5","html-keyboard-response","240","j","kiatu","true","","",""
"1316.5","","","","","5","html-slider-response","241","","","","2","",""
"2695","ladder","mashua,mwanga,kamba,pangalan","pangalan","n","5","html-keyboard-response","242","n","pangalan","true","","",""
"1821.6000000000931","","","","","5","html-slider-response","243","","","","2","",""
"4155","human","bado,tinapay,kikapu,punguza","tinapay","v","5","html-keyboard-response","244","v","tinapay","true","","",""
"2647.0999999996275","","","","","5","html-slider-response","245","","","","4","",""
"1840","tissue","lamigas,kisiwa,ugomvi,katika","ugomvi","j","5","html-keyboard-response","246","v","kisiwa","false","","",""
"3755.3000000002794","","","","","5","html-slider-response","247","","","","4","",""
"2422","finger","simu,moyo,sufuria,lima","moyo","v","5","html-keyboard-response","248","v","moyo","true","","",""
"1773.3999999999069","","","","","5","html-slider-response","249","","","","2","",""
"2733","cave","kesho,ganti,maisha,nyundo","kesho","f","5","html-keyboard-response","250","f","kesho","true","","",""
"1517.8999999999069","","","","","5","html-slider-response","251","","","","5","",""
"4084","rose","singizi,mwanake,amani,paghalad","paghalad","n","5","html-keyboard-response","252","n","paghalad","true","","",""
"1991.1000000000931","","","","","5","html-slider-response","253","","","","2","",""
"2867","lamp","daub,bilaska,mbolea,afya","afya","n","5","html-keyboard-response","254","n","afya","true","","",""
"1206.7000000001863","","","","","5","html-slider-response","255","","","","4","",""
"1904","shoulder","mkuu,kelele,ndaniya,guruwe","mkuu","f","5","html-keyboard-response","256","f","mkuu","true","","",""
"1336","","","","","5","html-slider-response","257","","","","2","",""
"2871","sock","ndoora,mamba,kimysa,mtirka","mamba","v","5","html-keyboard-response","258","f","ndoora","false","","",""
"1818.2000000001863","","","","","5","html-slider-response","259","","","","2","",""
"3147","mother","kahawa,babaye,mbuzi,jokofu","babaye","v","5","html-keyboard-response","260","j","mbuzi","false","","",""
"1085.8999999999069","","","","","5","html-slider-response","261","","","","2","",""
"1951","key","miaka,chombo,goma,ahos","chombo","v","5","html-keyboard-response","262","v","chombo","true","","",""
"1686.2000000001863","","","","","5","html-slider-response","263","","","","4","",""
"5553","squirrel","mahugaw,ukweli,hofu,kichwa","hofu","j","5","html-keyboard-response","264","j","hofu","true","","",""
"1055.5","","","","","5","html-slider-response","265","","","","2","",""
"3586","nose","gubat,kopa,kidole,sehemu","sehemu","n","5","html-keyboard-response","266","v","kopa","false","","",""
"1049.0999999996275","","","","","5","html-slider-response","267","","","","2","",""
"2824","book","mali,kuhesa,picha,mara","mali","f","5","html-keyboard-response","268","n","mara","false","","",""
"868.8999999999069","","","","","5","html-slider-response","269","","","","2","",""
"1355","bank","silingan,kudhibi,tualya,ofisi","silingan","f","5","html-keyboard-response","270","f","silingan","true","","",""
"1231.9000000003725","","","","","5","html-slider-response","271","","","","5","",""
"5312","cup","dagat,shimoni,jeraha,matumai","matumai","n","5","html-keyboard-response","272","f","dagat","false","","",""
"2287.600000000093","","","","","5","html-slider-response","273","","","","2","",""
"2034","boat","hamsi,pombe,agalon,kitanda","agalon","j","5","html-keyboard-response","274","j","agalon","true","","",""
"2136.2000000001863","","","","","5","html-slider-response","275","","","","5","",""
"4155","letter","filimbi,chuma,kifua,uhuru","kifua","j","5","html-keyboard-response","276","j","kifua","true","","",""
"1275.5","","","","","5","html-slider-response","277","","","","2","",""
"2622","puppet","napulo,lamok,mazishi,godoro","mazishi","j","5","html-keyboard-response","278","j","mazishi","true","","",""
"1054.2999999998137","","","","","5","html-slider-response","279","","","","2","",""
"1385","apple","kisu,ukame,estante,edad","kisu","f","5","html-keyboard-response","280","f","kisu","true","","",""
"1935.7999999998137","","","","","5","html-slider-response","281","","","","3","",""
"2786","tooth","kijiko,uadui,kabalaka,pahiyum","kabalaka","j","5","html-keyboard-response","282","v","uadui","false","","",""
"1542","","","","","5","html-slider-response","283","","","","2","",""
"2329","shop","nopya,samaki,kerida,ndezu","samaki","v","5","html-keyboard-response","284","v","samaki","true","","",""
"1184.1000000000931","","","","","5","html-slider-response","285","","","","4","",""
"7418","sun","bendi,luha,basi,uongo","basi","j","5","html-keyboard-response","286","v","luha","false","","",""
"1481","","","","","5","html-slider-response","287","","","","1","",""
"1502","knee","duka,mvuke,kubale,bili","duka","f","5","html-keyboard-response","288","v","mvuke","false","","",""
"1007.9000000003725","","","","","5","html-slider-response","289","","","","2","",""
"2404","fork","baboy,paghago,gorisi,mgonjwa","mgonjwa","n","5","html-keyboard-response","290","v","paghago","false","","",""
"1188.5","","","","","5","html-slider-response","291","","","","2","",""
"6386","wolf","kaburi,ndizi,mchuzi,lugha","lugha","n","5","html-keyboard-response","292","n","lugha","true","","",""
"2769.100000000093","","","","","5","html-slider-response","293","","","","5","",""
"2495","sheet","juuya,watu,kamantis,bililhon","bililhon","n","5","html-keyboard-response","294","n","bililhon","true","","",""
"1241.8999999999069","","","","","5","html-slider-response","295","","","","4","",""
"3287","giraffe","mahitabo,daraja,jumatu,hangyo","mahitabo","f","5","html-keyboard-response","296","v","daraja","false","","",""
"1823.6999999997206","","","","","5","html-slider-response","297","","","","2","",""
"1448","bread","dari,kaili,dizeli,bugas","dari","f","5","html-keyboard-response","298","f","dari","true","","",""
"1284.1000000000931","","","","","5","html-slider-response","299","","","","5","",""
"4755","box","adui,kuacha,rafiki,kitande","adui","f","5","html-keyboard-response","300","f","adui","true","","",""
"1034.2999999998137","","","","","5","html-slider-response","301","","","","2","",""
"2264","cop","mechezo,bustani,jikoni,bakus","mechezo","f","5","html-keyboard-response","302","f","mechezo","true","","",""
"978.2999999998137","","","","","5","html-slider-response","303","","","","4","",""
"7209","fish","bala,baho,buli,imani","buli","j","5","html-keyboard-response","304","j","buli","true","","",""
"920","","","","","5","html-slider-response","305","","","","2","",""
"1979","door","tena,soko,surali,nyota","surali","j","5","html-keyboard-response","306","j","surali","true","","",""
"954.1999999997206","","","","","5","html-slider-response","307","","","","4","",""
"4681","woman","bandari,bituin,pagtabon,kovuli","pagtabon","j","5","html-keyboard-response","308","j","pagtabon","true","","",""
"1113.2000000001863","","","","","5","html-slider-response","309","","","","2","",""
"1913","clock","kartasi,mbwa,abang,osha","mbwa","v","5","html-keyboard-response","310","n","osha","false","","",""
"1394","","","","","5","html-slider-response","311","","","","4","",""
"1665","berry","abogado,nogozi,kinywa,kofia","kofia","n","5","html-keyboard-response","312","n","kofia","true","","",""
"1116","","","","","5","html-slider-response","313","","","","4","",""
"3823","towel","tembo,funzi,pagpalit,pito","pagpalit","j","5","html-keyboard-response","314","j","pagpalit","true","","",""
"1647.7999999998137","","","","","5","html-slider-response","315","","","","1","",""
"2883","pudding","abug,aibu,mpishi,iring","aibu","v","5","html-keyboard-response","316","j","mpishi","false","","",""
"1100.4000000003725","","","","","5","html-slider-response","317","","","","2","",""
"3714","park","tambok,bunifu,pwani,ihalas","bunifu","v","5","html-keyboard-response","318","v","bunifu","true","","",""
"898.2999999998137","","","","","5","html-slider-response","319","","","","2","",""
"6354","body","nyundu,tindashan,jibini,kununa","tindashan","v","5","html-keyboard-response","320","j","jibini","false","","",""
"990.3999999999069","","","","","5","html-slider-response","321","","","","2","",""
"1736","olive","jiwe,bata,siagi,welder","jiwe","f","5","html-keyboard-response","322","f","jiwe","true","","",""
"1190.4000000003725","","","","","5","html-slider-response","323","","","","5","",""
"10523","poster","madungog,nchi,fedha,kasuko","madungog","f","5","html-keyboard-response","324","f","madungog","true","","",""
"2276.399999999907","","","","","5","html-slider-response","325","","","","4","",""
"2882","hammer","napakyas,mekno,kitovu,layag","napakyas","f","5","html-keyboard-response","326","f","napakyas","true","","",""
"1663.1999999997206","","","","","5","html-slider-response","327","","","","3","",""
"2228","train","itik,sayari,dakika,mungu","sayari","v","5","html-keyboard-response","328","v","sayari","true","","",""
"1604.7000000001863","","","","","5","html-slider-response","329","","","","3","",""
"2857","cigar","adhabu,ndugu,kuta,mlango","adhabu","f","5","html-keyboard-response","330","f","adhabu","true","","",""
"1184","","","","","5","html-slider-response","331","","","","2","",""
"2331","spider","bunyag,mkboa,atop,kamwe","kamwe","n","5","html-keyboard-response","332","n","kamwe","true","","",""
"1397.4000000003725","","","","","5","html-slider-response","333","","","","4","",""
"7384","notebook","kemia,msitu,kila,mdudu","kemia","f","5","html-keyboard-response","334","j","kila","false","","",""
"1327.5","","","","","5","html-slider-response","335","","","","2","",""
"9485","candle","geza,gabi,farasi,kupanda","geza","f","5","html-keyboard-response","336","f","geza","true","","",""
"1186.5","","","","","5","html-slider-response","337","","","","2","",""
"2190","column","ufagio,pundok,dila,pala","ufagio","f","5","html-keyboard-response","338","n","pala","false","","",""
"1066.3999999999069","","","","","5","html-slider-response","339","","","","2","",""
"2658","basket","kumbuka,utepe,kumba,hasira","kumba","j","5","html-keyboard-response","340","n","hasira","false","","",""
"916.5","","","","","5","html-slider-response","341","","","","2","",""
"2474","page","wakala,ishiri,wimbo,skina","wimbo","j","5","html-keyboard-response","342","j","wimbo","true","","",""
"1082.7000000001863","","","","","5","html-slider-response","343","","","","2","",""
"5259","bridge","daima,ngono,panya,sahani","sahani","n","5","html-keyboard-response","344","j","panya","false","","",""
"1152.2999999998137","","","","","5","html-slider-response","345","","","","2","",""
"2678","window","nanga,kujenga,umaga,kweli","kweli","n","5","html-keyboard-response","346","n","kweli","true","","",""
"1277.8000000002794","","","","","5","html-slider-response","347","","","","2","",""
"2230","snake","jansa,pagtukod,karon,mvringo","pagtukod","v","5","html-keyboard-response","348","v","pagtukod","true","","",""
"917.7999999998137","","","","","5","html-slider-response","349","","","","2","",""
"2041","flag","ndege,mkate,kawa,trekta","trekta","n","5","html-keyboard-response","350","n","trekta","true","","",""
"3438.600000000093","","","","","5","html-slider-response","351","","","","3","",""
"4892","bed","mapintas,kalipay,haraka,starehe","mapintas","f","5","html-keyboard-response","352","f","mapintas","true","","",""
"1210.3999999999069","","","","","5","html-slider-response","353","","","","2","",""
"1950","music","mraba,baiski,mageho,tumbo","baiski","v","5","html-keyboard-response","354","v","baiski","true","","",""
"1390.8999999999069","","","","","5","html-slider-response","355","","","","5","",""
"3848","gift","baba,pagtawag,nyange,baso","pagtawag","v","5","html-keyboard-response","356","v","pagtawag","true","","",""
"955.2000000001863","","","","","5","html-slider-response","357","","","","2","",""
"3071","bonfire","goti,mwezi,mfuko,kusanya","goti","f","5","html-keyboard-response","358","v","mwezi","false","","",""
"861.5","","","","","5","html-slider-response","359","","","","2","",""
"2160","scissors","duga,mtawa,suga,tanuri","tanuri","n","5","html-keyboard-response","360","n","tanuri","true","","",""
"1282","","","","","5","html-slider-response","361","","","","4","",""
"1468","eel","ishara,kunywa,kabuang,msumari","msumari","n","5","html-keyboard-response","362","f","ishara","false","","",""
"895.7999999998137","","","","","5","html-slider-response","363","","","","2","",""
"8335","pants","pintal,chuki,haki,hari","haki","j","5","html-keyboard-response","364","f","pintal","false","","",""
"989.5","","","","","5","html-slider-response","365","","","","2","",""
"2380","triangle","kihozi,kasadpan,bentaha,liog","kasadpan","v","5","html-keyboard-response","366","v","kasadpan","true","","",""
"1670.7999999998137","","","","","5","html-slider-response","367","","","","4","",""
"9340.799999999814","","","","","6","html-slider-response","369","","","","","1",""
"4722","","","","","6","html-keyboard-response","370","","","","","","false"
