"rt","en_word","options","swa_word","correct_answer","phase","trial_type","trial_index","input_answer","input_word","accuracy","certainty","swahili_knowledge","previous_subject"
"4306","sun","bendi,basi,luha,uongo","basi","v","4","html-keyboard-response","5","v","basi","true","","",""
"3342.300000190735","","","","","4","html-slider-response","6","","","","2","",""
"7257","basket","kumbuka,utepe,kumba,hasira","kumba","j","4","html-keyboard-response","7","n","hasira","false","","",""
"2684.0999999046326","","","","","4","html-slider-response","8","","","","2","",""
"4780","curtain","mchanga,lisud,bulwawan,chubani","mchanga","f","4","html-keyboard-response","9","f","mchanga","true","","",""
"4245.200000286102","","","","","4","html-slider-response","10","","","","3","",""
"6635","park","tambok,bunifu,pwani,ihalas","bunifu","v","4","html-keyboard-response","11","f","tambok","false","","",""
"3253.5999999046326","","","","","4","html-slider-response","12","","","","1","",""
"5392","nose","gubat,kopa,sehemu,kidole","sehemu","j","4","html-keyboard-response","13","j","sehemu","true","","",""
"2719.0999999046326","","","","","4","html-slider-response","14","","","","4","",""
"6995","window","nanga,kujenga,kweli,umaga","kweli","j","4","html-keyboard-response","15","v","kujenga","false","","",""
"3267.9000000953674","","","","","4","html-slider-response","16","","","","2","",""
"5049","cave","ganti,kesho,maisha,nyundo","kesho","v","4","html-keyboard-response","17","v","kesho","true","","",""
"2826.5999999046326","","","","","4","html-slider-response","18","","","","2","",""
"5360","woman","bandari,bituin,kovuli,pagtabon","pagtabon","n","4","html-keyboard-response","19","f","bandari","false","","",""
"2815.5999999046326","","","","","4","html-slider-response","20","","","","4","",""
"4948","bed","kalipay,haraka,mapintas,starehe","mapintas","j","4","html-keyboard-response","21","j","mapintas","true","","",""
"5381.900000095367","","","","","4","html-slider-response","22","","","","3","",""
"5861","column","pundok,dila,pala,ufagio","ufagio","n","4","html-keyboard-response","23","n","ufagio","true","","",""
"5676.400000095367","","","","","4","html-slider-response","24","","","","3","",""
"7573","fish","bala,baho,buli,imani","buli","j","4","html-keyboard-response","25","j","buli","true","","",""
"2936.7000002861023","","","","","4","html-slider-response","26","","","","1","",""
"6416","boat","hamsi,agalon,pombe,kitanda","agalon","v","4","html-keyboard-response","27","n","kitanda","false","","",""
"3008.2999997138977","","","","","4","html-slider-response","28","","","","2","",""
"2378","cop","mechezo,bustani,jikoni,bakus","mechezo","f","4","html-keyboard-response","29","f","mechezo","true","","",""
"3094.5999999046326","","","","","4","html-slider-response","30","","","","5","",""
"9568","shoulder","mkuu,kelele,ndaniya,guruwe","mkuu","f","4","html-keyboard-response","31","f","mkuu","true","","",""
"2615.5999999046326","","","","","4","html-slider-response","32","","","","2","",""
"5544","magazine","gundi,kiti,mchawi,bahandi","kiti","v","4","html-keyboard-response","33","v","kiti","true","","",""
"2278.3999996185303","","","","","4","html-slider-response","34","","","","2","",""
"4774","gift","baba,pagtawag,nyange,baso","pagtawag","v","4","html-keyboard-response","35","v","pagtawag","true","","",""
"2700.300000190735","","","","","4","html-slider-response","36","","","","4","",""
"3182","clock","kartasi,mbwa,abang,osha","mbwa","v","4","html-keyboard-response","37","v","mbwa","true","","",""
"2466.0999999046326","","","","","4","html-slider-response","38","","","","4","",""
"7207","squirrel","hofu,mahugaw,ukweli,kichwa","hofu","f","4","html-keyboard-response","39","j","ukweli","false","","",""
"3418.300000190735","","","","","4","html-slider-response","40","","","","3","",""
"1856","key","miaka,chombo,goma,ahos","chombo","v","4","html-keyboard-response","41","v","chombo","true","","",""
"2881.9000000953674","","","","","4","html-slider-response","42","","","","5","",""
"3404","salmon","mzungu,sensilyo,seri,baharia","sensilyo","v","4","html-keyboard-response","43","v","sensilyo","true","","",""
"2399.300000190735","","","","","4","html-slider-response","44","","","","4","",""
"7023","puppet","napulo,lamok,godoro,mazishi","mazishi","n","4","html-keyboard-response","45","n","mazishi","true","","",""
"2468.5","","","","","4","html-slider-response","46","","","","2","",""
"10814","letter","filimbi,kifua,chuma,uhuru","kifua","v","4","html-keyboard-response","47","n","uhuru","false","","",""
"2619.4000000953674","","","","","4","html-slider-response","48","","","","1","",""
"6726","flag","trekta,ndege,mkate,kawa","trekta","f","4","html-keyboard-response","49","f","trekta","true","","",""
"2854.4000000953674","","","","","4","html-slider-response","50","","","","2","",""
"2423","mother","kahawa,mbuzi,babaye,jokofu","babaye","j","4","html-keyboard-response","51","j","babaye","true","","",""
"2888.0999999046326","","","","","4","html-slider-response","52","","","","5","",""
"6256","ceiling","kugita,kawaida,maua,rayna","maua","j","4","html-keyboard-response","53","f","kugita","false","","",""
"3143.300000190735","","","","","4","html-slider-response","54","","","","1","",""
"9024","stone","wingi,ulimwengu,mkasi,asili","wingi","f","4","html-keyboard-response","55","j","mkasi","false","","",""
"2568.7000002861023","","","","","4","html-slider-response","56","","","","2","",""
"2715","sock","ndoora,mamba,kimysa,mtirka","mamba","v","4","html-keyboard-response","57","v","mamba","true","","",""
"2776.4000000953674","","","","","4","html-slider-response","58","","","","5","",""
"3538","rose","singizi,mwanake,paghalad,amani","paghalad","j","4","html-keyboard-response","59","j","paghalad","true","","",""
"2427.9000000953674","","","","","4","html-slider-response","60","","","","4","",""
"3585","office","hazini,leso,yatima,kuna","leso","v","4","html-keyboard-response","61","v","leso","true","","",""
"2801.800000190735","","","","","4","html-slider-response","62","","","","4","",""
"6422","number","shule,kengele,choori,mundamo","mundamo","n","4","html-keyboard-response","63","n","mundamo","true","","",""
"2961.7999997138977","","","","","4","html-slider-response","64","","","","1","",""
"8998","lamp","daub,afya,bilaska,mbolea","afya","v","4","html-keyboard-response","65","j","bilaska","false","","",""
"3286.4000000953674","","","","","4","html-slider-response","66","","","","1","",""
"3251","dog","lubi,washia,bahari,kalamu","bahari","j","4","html-keyboard-response","67","j","bahari","true","","",""
"3844.4000000953674","","","","","4","html-slider-response","68","","","","3","",""
"2633","mosquito","isda,taras,martilyo,gutom","martilyo","j","4","html-keyboard-response","69","j","martilyo","true","","",""
"3072.6000003814697","","","","","4","html-slider-response","70","","","","5","",""
"4617","notebook","msitu,kila,mdudu,kemia","kemia","n","4","html-keyboard-response","71","v","kila","false","","",""
"2593.300000190735","","","","","4","html-slider-response","72","","","","2","",""
"8141","apple","ukame,estante,kisu,edad","kisu","j","4","html-keyboard-response","73","f","ukame","false","","",""
"2624","","","","","4","html-slider-response","74","","","","2","",""
"7337","cigar","ndugu,kuta,adhabu,mlango","adhabu","j","4","html-keyboard-response","75","f","ndugu","false","","",""
"2596.4000000953674","","","","","4","html-slider-response","76","","","","2","",""
"2622","coffin","barua,tubag,hulma,kioo","kioo","n","4","html-keyboard-response","77","n","kioo","true","","",""
"2790.7000002861023","","","","","4","html-slider-response","78","","","","5","",""
"4486","shelf","bungtod,kadaot,pamahaw,awit","pamahaw","j","4","html-keyboard-response","79","j","pamahaw","true","","",""
"3864","","","","","4","html-slider-response","80","","","","3","",""
"4192","bread","dari,kaili,dizeli,bugas","dari","f","4","html-keyboard-response","81","f","dari","true","","",""
"2783.5","","","","","4","html-slider-response","82","","","","4","",""
"1904","olive","bata,siagi,welder,jiwe","jiwe","n","4","html-keyboard-response","83","n","jiwe","true","","",""
"2749.5","","","","","4","html-slider-response","84","","","","5","",""
"8830","spider","bunyag,mkboa,atop,kamwe","kamwe","n","4","html-keyboard-response","85","n","kamwe","true","","",""
"2269","","","","","4","html-slider-response","86","","","","2","",""
"10380","cat","neyemba,baki,paghukom,akili","paghukom","j","4","html-keyboard-response","87","j","paghukom","true","","",""
"2871.9000000953674","","","","","4","html-slider-response","88","","","","1","",""
"8531","pudding","abug,aibu,mpishi,iring","aibu","v","4","html-keyboard-response","89","v","aibu","true","","",""
"2861.8999996185303","","","","","4","html-slider-response","90","","","","2","",""
"6538","towel","tembo,pagpalit,funzi,pito","pagpalit","v","4","html-keyboard-response","91","f","tembo","false","","",""
"2671.4000000953674","","","","","4","html-slider-response","92","","","","2","",""
"5555","bucket","baga,kiatu,ijayo,init","kiatu","v","4","html-keyboard-response","93","f","baga","false","","",""
"3475.7000002861023","","","","","4","html-slider-response","94","","","","2","",""
"5800","wheel","bafuni,punda,tawo,baadaye","bafuni","f","4","html-keyboard-response","95","f","bafuni","true","","",""
"3256.300000190735","","","","","4","html-slider-response","96","","","","2","",""
"4140","ladder","mashua,pangalan,mwanga,kamba","pangalan","v","4","html-keyboard-response","97","v","pangalan","true","","",""
"2783.199999809265","","","","","4","html-slider-response","98","","","","5","",""
"5937","marker","maji,mapafu,salita,atay","maji","f","4","html-keyboard-response","99","f","maji","true","","",""
"3784.7000002861023","","","","","4","html-slider-response","100","","","","3","",""
"4860","tomato","chupi,chupa,takatak,mvua","mvua","n","4","html-keyboard-response","101","n","mvua","true","","",""
"3000","","","","","4","html-slider-response","102","","","","4","",""
"5072","door","surali,tena,soko,nyota","surali","f","4","html-keyboard-response","103","f","surali","true","","",""
"3518.8999996185303","","","","","4","html-slider-response","104","","","","3","",""
"3842","bonfire","goti,mwezi,mfuko,kusanya","goti","f","4","html-keyboard-response","105","f","goti","true","","",""
"2283.300000190735","","","","","4","html-slider-response","106","","","","4","",""
"4425","mirror","rangi,sulagma,kanding,furaha","sulagma","v","4","html-keyboard-response","107","v","sulagma","true","","",""
"3098.699999809265","","","","","4","html-slider-response","108","","","","4","",""
"8243","giraffe","mahitabo,daraja,jumatu,hangyo","mahitabo","f","4","html-keyboard-response","109","f","mahitabo","true","","",""
"6826.200000286102","","","","","4","html-slider-response","110","","","","3","",""
"7653","tissue","lamigas,ugomvi,kisiwa,katika","ugomvi","v","4","html-keyboard-response","111","v","ugomvi","true","","",""
"4297.599999904633","","","","","4","html-slider-response","112","","","","2","",""
"7489","snake","jansa,pagtukod,karon,mvringo","pagtukod","v","4","html-keyboard-response","113","v","pagtukod","true","","",""
"4792.199999809265","","","","","4","html-slider-response","114","","","","3","",""
"5576","finger","simu,sufuria,lima,moyo","moyo","n","4","html-keyboard-response","115","n","moyo","true","","",""
"2565.4000000953674","","","","","4","html-slider-response","116","","","","4","",""
"5229","train","itik,dakika,mungu,sayari","sayari","n","4","html-keyboard-response","117","n","sayari","true","","",""
"3201.3999996185303","","","","","4","html-slider-response","118","","","","2","",""
"10370","candle","gabi,geza,farasi,kupanda","geza","v","4","html-keyboard-response","119","v","geza","true","","",""
"2909.9000000953674","","","","","4","html-slider-response","120","","","","2","",""
"3424","book","mali,kuhesa,picha,mara","mali","f","4","html-keyboard-response","121","f","mali","true","","",""
"3095.5","","","","","4","html-slider-response","122","","","","4","",""
"7610","elephant","kito,petye,pagduol,suka","kito","f","4","html-keyboard-response","123","j","pagduol","false","","",""
"4299","","","","","4","html-slider-response","124","","","","2","",""
"8323","sheet","juuya,watu,kamantis,bililhon","bililhon","n","4","html-keyboard-response","125","n","bililhon","true","","",""
"4699.699999809265","","","","","4","html-slider-response","126","","","","3","",""
"2365","banana","kasamok,hagdan,kazi,twai","kazi","j","4","html-keyboard-response","127","j","kazi","true","","",""
"3260.800000190735","","","","","4","html-slider-response","128","","","","5","",""
"6559","perfume","bino,katuyoan,sungura,ndogo","katuyoan","v","4","html-keyboard-response","129","j","sungura","false","","",""
"2461.7000002861023","","","","","4","html-slider-response","130","","","","2","",""
"3972","bank","kudhibi,silingan,tualya,ofisi","silingan","v","4","html-keyboard-response","131","v","silingan","true","","",""
"2533.9000000953674","","","","","4","html-slider-response","132","","","","4","",""
"3266","tooth","kijiko,kabalaka,uadui,pahiyum","kabalaka","v","4","html-keyboard-response","133","v","kabalaka","true","","",""
"2657.9000000953674","","","","","4","html-slider-response","134","","","","5","",""
"2955","hill","kushoto,kukimba,matumbo,sweta","matumbo","j","4","html-keyboard-response","135","n","sweta","false","","",""
"2675.7999997138977","","","","","4","html-slider-response","136","","","","4","",""
"14167","music","mraba,baiski,mageho,tumbo","baiski","v","4","html-keyboard-response","137","v","baiski","true","","",""
"3748.0999999046326","","","","","4","html-slider-response","138","","","","1","",""
"3887","pants","pintal,chuki,hari,haki","haki","n","4","html-keyboard-response","139","j","hari","false","","",""
"2369.1000003814697","","","","","4","html-slider-response","140","","","","2","",""
"4269","donkey","bloke,elfu,lalake,rombus","elfu","v","4","html-keyboard-response","141","v","elfu","true","","",""
"2919.4000000953674","","","","","4","html-slider-response","142","","","","4","",""
"5185","bridge","daima,sahani,ngono,panya","sahani","v","4","html-keyboard-response","143","v","sahani","true","","",""
"3754.5999999046326","","","","","4","html-slider-response","144","","","","2","",""
"8367","list","wingu,alizeti,kuzama,kaso","wingu","f","4","html-keyboard-response","145","f","wingu","true","","",""
"3487.5","","","","","4","html-slider-response","146","","","","2","",""
"8815","box","kuacha,adui,rafiki,kitande","adui","v","4","html-keyboard-response","147","n","kitande","false","","",""
"2672.0999999046326","","","","","4","html-slider-response","148","","","","1","",""
"5544","wolf","kaburi,ndizi,mchuzi,lugha","lugha","n","4","html-keyboard-response","149","n","lugha","true","","",""
"2178.8999996185303","","","","","4","html-slider-response","150","","","","1","",""
"7011","poster","nchi,fedha,kasuko,madungog","madungog","n","4","html-keyboard-response","151","n","madungog","true","","",""
"2652.0999999046326","","","","","4","html-slider-response","152","","","","1","",""
"9581","eel","msumari,ishara,kunywa,kabuang","msumari","f","4","html-keyboard-response","153","f","msumari","true","","",""
"2859.800000190735","","","","","4","html-slider-response","154","","","","1","",""
"8983","scissors","duga,tanuri,mtawa,suga","tanuri","v","4","html-keyboard-response","155","n","suga","false","","",""
"2703","","","","","4","html-slider-response","156","","","","1","",""
"7466","shop","nopya,kerida,samaki,ndezu","samaki","j","4","html-keyboard-response","157","v","kerida","false","","",""
"2464.699999809265","","","","","4","html-slider-response","158","","","","2","",""
"2440","flower","bega,tamasha,lobo,usiku","bega","f","4","html-keyboard-response","159","f","bega","true","","",""
"2821.4000000953674","","","","","4","html-slider-response","160","","","","5","",""
"12065","picture","kubwa,silya,chaki,asin","kubwa","f","4","html-keyboard-response","161","f","kubwa","true","","",""
"7010.699999809265","","","","","4","html-slider-response","162","","","","1","",""
"2559","spoon","betri,nzuri,pagsulod,ngazi","pagsulod","j","4","html-keyboard-response","163","j","pagsulod","true","","",""
"3228.4000000953674","","","","","4","html-slider-response","164","","","","4","",""
"4823","fork","baboy,mgonjwa,paghago,gorisi","mgonjwa","v","4","html-keyboard-response","165","v","mgonjwa","true","","",""
"4347.900000095367","","","","","4","html-slider-response","166","","","","3","",""
"7422","shoe","nyeusi,hatua,kama,uyoga","uyoga","n","4","html-keyboard-response","167","v","hatua","false","","",""
"2582.6000003814697","","","","","4","html-slider-response","168","","","","1","",""
"2711","human","bado,kikapu,punguza,tinapay","tinapay","n","4","html-keyboard-response","169","n","tinapay","true","","",""
"2807.699999809265","","","","","4","html-slider-response","170","","","","4","",""
"12098","cup","matumai,dagat,shimoni,jeraha","matumai","f","4","html-keyboard-response","171","v","dagat","false","","",""
"2388.0999999046326","","","","","4","html-slider-response","172","","","","1","",""
"7563","hammer","mekno,napakyas,kitovu,layag","napakyas","v","4","html-keyboard-response","173","j","kitovu","false","","",""
"3033.300000190735","","","","","4","html-slider-response","174","","","","2","",""
"5676","body","nyundu,jibini,tindashan,kununa","tindashan","j","4","html-keyboard-response","175","j","tindashan","true","","",""
"3945.7000002861023","","","","","4","html-slider-response","176","","","","3","",""
"9634","page","wimbo,wakala,ishiri,skina","wimbo","f","4","html-keyboard-response","177","f","wimbo","true","","",""
"3329.0999999046326","","","","","4","html-slider-response","178","","","","2","",""
"6904","triangle","kihozi,bentaha,kasadpan,liog","kasadpan","j","4","html-keyboard-response","179","j","kasadpan","true","","",""
"4037","","","","","4","html-slider-response","180","","","","3","",""
"13416","berry","abogado,nogozi,kinywa,kofia","kofia","n","4","html-keyboard-response","181","n","kofia","true","","",""
"2831.3999996185303","","","","","4","html-slider-response","182","","","","2","",""
"4627","knee","mvuke,duka,kubale,bili","duka","v","4","html-keyboard-response","183","f","mvuke","false","","",""
"2925.2999997138977","","","","","4","html-slider-response","184","","","","2","",""
"5522","picture","silya,chaki,kubwa,asin","kubwa","j","5","html-keyboard-response","188","f","silya","false","","",""
"4837.700000286102","","","","","5","html-slider-response","189","","","","2","",""
"3077","elephant","petye,pagduol,suka,kito","kito","n","5","html-keyboard-response","190","v","pagduol","false","","",""
"4234.599999904633","","","","","5","html-slider-response","191","","","","3","",""
"1999","office","hazini,yatima,kuna,leso","leso","n","5","html-keyboard-response","192","n","leso","true","","",""
"2698.4000000953674","","","","","5","html-slider-response","193","","","","4","",""
"7354","perfume","bino,katuyoan,sungura,ndogo","katuyoan","v","5","html-keyboard-response","194","j","sungura","false","","",""
"2380.800000190735","","","","","5","html-slider-response","195","","","","2","",""
"2055","salmon","sensilyo,mzungu,seri,baharia","sensilyo","f","5","html-keyboard-response","196","f","sensilyo","true","","",""
"2654.7999997138977","","","","","5","html-slider-response","197","","","","4","",""
"4213","dog","lubi,washia,kalamu,bahari","bahari","n","5","html-keyboard-response","198","n","bahari","true","","",""
"3673.699999809265","","","","","5","html-slider-response","199","","","","3","",""
"7354","wheel","bafuni,punda,tawo,baadaye","bafuni","f","5","html-keyboard-response","200","f","bafuni","true","","",""
"2469.300000190735","","","","","5","html-slider-response","201","","","","1","",""
"7523","cat","neyemba,baki,akili,paghukom","paghukom","n","5","html-keyboard-response","202","n","paghukom","true","","",""
"2390.7999997138977","","","","","5","html-slider-response","203","","","","2","",""
"4190","curtain","lisud,bulwawan,mchanga,chubani","mchanga","j","5","html-keyboard-response","204","j","mchanga","true","","",""
"2968.5","","","","","5","html-slider-response","205","","","","2","",""
"1727","flower","tamasha,bega,lobo,usiku","bega","v","5","html-keyboard-response","206","v","bega","true","","",""
"2866.4000000953674","","","","","5","html-slider-response","207","","","","5","",""
"3209","number","shule,kengele,mundamo,choori","mundamo","j","5","html-keyboard-response","208","n","choori","false","","",""
"3548.8999996185303","","","","","5","html-slider-response","209","","","","4","",""
"1723","banana","kazi,kasamok,hagdan,twai","kazi","f","5","html-keyboard-response","210","f","kazi","true","","",""
"2949.4000000953674","","","","","5","html-slider-response","211","","","","5","",""
"3364","magazine","gundi,kiti,mchawi,bahandi","kiti","v","5","html-keyboard-response","212","v","kiti","true","","",""
"3562.1000003814697","","","","","5","html-slider-response","213","","","","3","",""
"1593","donkey","bloke,lalake,rombus,elfu","elfu","n","5","html-keyboard-response","214","n","elfu","true","","",""
"2719.1000003814697","","","","","5","html-slider-response","215","","","","5","",""
"1884","mosquito","isda,taras,martilyo,gutom","martilyo","j","5","html-keyboard-response","216","j","martilyo","true","","",""
"2620.5","","","","","5","html-slider-response","217","","","","5","",""
"4671","shoe","nyeusi,hatua,uyoga,kama","uyoga","j","5","html-keyboard-response","218","v","hatua","false","","",""
"2638.2999997138977","","","","","5","html-slider-response","219","","","","1","",""
"4376","stone","ulimwengu,wingi,mkasi,asili","wingi","v","5","html-keyboard-response","220","f","ulimwengu","false","","",""
"2257.5","","","","","5","html-slider-response","221","","","","2","",""
"3122","tomato","chupi,chupa,mvua,takatak","mvua","j","5","html-keyboard-response","222","j","mvua","true","","",""
"2535.300000190735","","","","","5","html-slider-response","223","","","","4","",""
"4781","ceiling","kugita,maua,kawaida,rayna","maua","v","5","html-keyboard-response","224","f","kugita","false","","",""
"3256.2000002861023","","","","","5","html-slider-response","225","","","","1","",""
"3382","mirror","sulagma,rangi,kanding,furaha","sulagma","f","5","html-keyboard-response","226","f","sulagma","true","","",""
"2929.300000190735","","","","","5","html-slider-response","227","","","","4","",""
"1600","coffin","barua,tubag,kioo,hulma","kioo","j","5","html-keyboard-response","228","j","kioo","true","","",""
"2520.1000003814697","","","","","5","html-slider-response","229","","","","5","",""
"1926","spoon","betri,pagsulod,nzuri,ngazi","pagsulod","v","5","html-keyboard-response","230","v","pagsulod","true","","",""
"3041.6000003814697","","","","","5","html-slider-response","231","","","","4","",""
"3874","marker","mapafu,salita,atay,maji","maji","n","5","html-keyboard-response","232","n","maji","true","","",""
"4726.199999809265","","","","","5","html-slider-response","233","","","","2","",""
"3254","list","alizeti,kuzama,kaso,wingu","wingu","n","5","html-keyboard-response","234","n","wingu","true","","",""
"2954.5999999046326","","","","","5","html-slider-response","235","","","","2","",""
"2129","hill","kushoto,kukimba,matumbo,sweta","matumbo","j","5","html-keyboard-response","236","n","sweta","false","","",""
"2592.5999999046326","","","","","5","html-slider-response","237","","","","4","",""
"4021","shelf","pamahaw,bungtod,kadaot,awit","pamahaw","f","5","html-keyboard-response","238","f","pamahaw","true","","",""
"3747.1000003814697","","","","","5","html-slider-response","239","","","","2","",""
"4337","bucket","kiatu,baga,ijayo,init","kiatu","f","5","html-keyboard-response","240","v","baga","false","","",""
"2791.1000003814697","","","","","5","html-slider-response","241","","","","1","",""
"2631","ladder","mashua,mwanga,kamba,pangalan","pangalan","n","5","html-keyboard-response","242","n","pangalan","true","","",""
"2461.7000002861023","","","","","5","html-slider-response","243","","","","5","",""
"1995","human","bado,kikapu,tinapay,punguza","tinapay","j","5","html-keyboard-response","244","j","tinapay","true","","",""
"2675.7000002861023","","","","","5","html-slider-response","245","","","","5","",""
"3991","tissue","lamigas,ugomvi,kisiwa,katika","ugomvi","v","5","html-keyboard-response","246","v","ugomvi","true","","",""
"2460","","","","","5","html-slider-response","247","","","","2","",""
"2276","finger","simu,sufuria,lima,moyo","moyo","n","5","html-keyboard-response","248","n","moyo","true","","",""
"2752.4000000953674","","","","","5","html-slider-response","249","","","","5","",""
"5607","cave","ganti,kesho,maisha,nyundo","kesho","v","5","html-keyboard-response","250","v","kesho","true","","",""
"2365.5999999046326","","","","","5","html-slider-response","251","","","","1","",""
"3974","rose","singizi,paghalad,mwanake,amani","paghalad","v","5","html-keyboard-response","252","v","paghalad","true","","",""
"2938.4000000953674","","","","","5","html-slider-response","253","","","","4","",""
"4130","lamp","daub,afya,bilaska,mbolea","afya","v","5","html-keyboard-response","254","j","bilaska","false","","",""
"3177.300000190735","","","","","5","html-slider-response","255","","","","1","",""
"3957","shoulder","kelele,ndaniya,mkuu,guruwe","mkuu","j","5","html-keyboard-response","256","j","mkuu","true","","",""
"2902.8999996185303","","","","","5","html-slider-response","257","","","","2","",""
"5074","sock","ndoora,mamba,kimysa,mtirka","mamba","v","5","html-keyboard-response","258","v","mamba","true","","",""
"2770.4000000953674","","","","","5","html-slider-response","259","","","","5","",""
"1643","mother","kahawa,mbuzi,babaye,jokofu","babaye","j","5","html-keyboard-response","260","j","babaye","true","","",""
"2604.0999999046326","","","","","5","html-slider-response","261","","","","5","",""
"1794","key","miaka,goma,chombo,ahos","chombo","j","5","html-keyboard-response","262","j","chombo","true","","",""
"3108.6000003814697","","","","","5","html-slider-response","263","","","","5","",""
"5916","squirrel","mahugaw,ukweli,kichwa,hofu","hofu","n","5","html-keyboard-response","264","f","mahugaw","false","","",""
"2485.2999997138977","","","","","5","html-slider-response","265","","","","2","",""
"6109","nose","gubat,sehemu,kopa,kidole","sehemu","v","5","html-keyboard-response","266","j","kopa","false","","",""
"2340.7000002861023","","","","","5","html-slider-response","267","","","","2","",""
"2941","book","kuhesa,mali,picha,mara","mali","v","5","html-keyboard-response","268","v","mali","true","","",""
"2524","","","","","5","html-slider-response","269","","","","4","",""
"1816","bank","kudhibi,tualya,ofisi,silingan","silingan","n","5","html-keyboard-response","270","n","silingan","true","","",""
"3275.800000190735","","","","","5","html-slider-response","271","","","","4","",""
"6269","cup","matumai,dagat,shimoni,jeraha","matumai","f","5","html-keyboard-response","272","f","matumai","true","","",""
"2706.8999996185303","","","","","5","html-slider-response","273","","","","1","",""
"3469","boat","hamsi,pombe,kitanda,agalon","agalon","n","5","html-keyboard-response","274","j","kitanda","false","","",""
"2762.5999999046326","","","","","5","html-slider-response","275","","","","2","",""
"8289","letter","filimbi,chuma,kifua,uhuru","kifua","j","5","html-keyboard-response","276","v","chuma","false","","",""
"2536.7999997138977","","","","","5","html-slider-response","277","","","","1","",""
"2566","puppet","napulo,lamok,mazishi,godoro","mazishi","j","5","html-keyboard-response","278","j","mazishi","true","","",""
"8571.5","","","","","5","html-slider-response","279","","","","2","",""
"3987","apple","ukame,estante,kisu,edad","kisu","j","5","html-keyboard-response","280","f","ukame","false","","",""
"3574.8999996185303","","","","","5","html-slider-response","281","","","","3","",""
"2391","tooth","kijiko,kabalaka,uadui,pahiyum","kabalaka","v","5","html-keyboard-response","282","v","kabalaka","true","","",""
"2944.9000000953674","","","","","5","html-slider-response","283","","","","5","",""
"4973","shop","nopya,kerida,samaki,ndezu","samaki","j","5","html-keyboard-response","284","v","kerida","false","","",""
"2731","","","","","5","html-slider-response","285","","","","2","",""
"3230","sun","bendi,luha,uongo,basi","basi","n","5","html-keyboard-response","286","n","basi","true","","",""
"2284.199999809265","","","","","5","html-slider-response","287","","","","2","",""
"4452","knee","mvuke,duka,kubale,bili","duka","v","5","html-keyboard-response","288","f","mvuke","false","","",""
"3915.199999809265","","","","","5","html-slider-response","289","","","","2","",""
"3533","fork","baboy,paghago,gorisi,mgonjwa","mgonjwa","n","5","html-keyboard-response","290","n","mgonjwa","true","","",""
"2635.800000190735","","","","","5","html-slider-response","291","","","","4","",""
"6353","wolf","lugha,kaburi,ndizi,mchuzi","lugha","f","5","html-keyboard-response","292","f","lugha","true","","",""
"2806.5","","","","","5","html-slider-response","293","","","","1","",""
"2799","sheet","juuya,bililhon,watu,kamantis","bililhon","v","5","html-keyboard-response","294","v","bililhon","true","","",""
"2548.2000002861023","","","","","5","html-slider-response","295","","","","4","",""
"3739","giraffe","daraja,mahitabo,jumatu,hangyo","mahitabo","v","5","html-keyboard-response","296","v","mahitabo","true","","",""
"2761.5","","","","","5","html-slider-response","297","","","","4","",""
"1741","bread","dari,kaili,dizeli,bugas","dari","f","5","html-keyboard-response","298","f","dari","true","","",""
"4131","","","","","5","html-slider-response","299","","","","4","",""
"2875","box","kuacha,adui,rafiki,kitande","adui","v","5","html-keyboard-response","300","n","kitande","false","","",""
"2703.699999809265","","","","","5","html-slider-response","301","","","","2","",""
"1695","cop","mechezo,bustani,jikoni,bakus","mechezo","f","5","html-keyboard-response","302","f","mechezo","true","","",""
"2835","","","","","5","html-slider-response","303","","","","5","",""
"3716","fish","bala,baho,buli,imani","buli","j","5","html-keyboard-response","304","f","bala","false","","",""
"3166.7999997138977","","","","","5","html-slider-response","305","","","","2","",""
"2905","door","tena,soko,nyota,surali","surali","n","5","html-keyboard-response","306","n","surali","true","","",""
"2519.7999997138977","","","","","5","html-slider-response","307","","","","2","",""
"8665","woman","pagtabon,bandari,bituin,kovuli","pagtabon","f","5","html-keyboard-response","308","v","bandari","false","","",""
"2767.199999809265","","","","","5","html-slider-response","309","","","","2","",""
"4611","clock","kartasi,abang,mbwa,osha","mbwa","j","5","html-keyboard-response","310","j","mbwa","true","","",""
"3271.0999999046326","","","","","5","html-slider-response","311","","","","2","",""
"5075","berry","kofia,abogado,nogozi,kinywa","kofia","f","5","html-keyboard-response","312","f","kofia","true","","",""
"2409.5999999046326","","","","","5","html-slider-response","313","","","","2","",""
"4357","towel","tembo,pagpalit,funzi,pito","pagpalit","v","5","html-keyboard-response","314","f","tembo","false","","",""
"2644.7000002861023","","","","","5","html-slider-response","315","","","","2","",""
"3058","pudding","abug,mpishi,iring,aibu","aibu","n","5","html-keyboard-response","316","v","mpishi","false","","",""
"4424.099999904633","","","","","5","html-slider-response","317","","","","3","",""
"4464","park","tambok,pwani,bunifu,ihalas","bunifu","j","5","html-keyboard-response","318","j","bunifu","true","","",""
"2791.2999997138977","","","","","5","html-slider-response","319","","","","2","",""
"3808","body","tindashan,nyundu,jibini,kununa","tindashan","f","5","html-keyboard-response","320","f","tindashan","true","","",""
"4878.699999809265","","","","","5","html-slider-response","321","","","","2","",""
"2348","olive","jiwe,bata,siagi,welder","jiwe","f","5","html-keyboard-response","322","f","jiwe","true","","",""
"3934","","","","","5","html-slider-response","323","","","","4","",""
"2717","poster","nchi,fedha,kasuko,madungog","madungog","n","5","html-keyboard-response","324","n","madungog","true","","",""
"2746.199999809265","","","","","5","html-slider-response","325","","","","2","",""
"7308","hammer","mekno,kitovu,layag,napakyas","napakyas","n","5","html-keyboard-response","326","v","kitovu","false","","",""
"3599.699999809265","","","","","5","html-slider-response","327","","","","3","",""
"4368","train","itik,sayari,dakika,mungu","sayari","v","5","html-keyboard-response","328","v","sayari","true","","",""
"2693.9000000953674","","","","","5","html-slider-response","329","","","","2","",""
"5875","cigar","ndugu,kuta,adhabu,mlango","adhabu","j","5","html-keyboard-response","330","n","mlango","false","","",""
"3048.1000003814697","","","","","5","html-slider-response","331","","","","2","",""
"6202","spider","bunyag,kamwe,mkboa,atop","kamwe","v","5","html-keyboard-response","332","f","bunyag","false","","",""
"3208.0999999046326","","","","","5","html-slider-response","333","","","","1","",""
"5647","notebook","msitu,kila,mdudu,kemia","kemia","n","5","html-keyboard-response","334","v","kila","false","","",""
"3274.9000000953674","","","","","5","html-slider-response","335","","","","1","",""
"3817","candle","gabi,farasi,geza,kupanda","geza","j","5","html-keyboard-response","336","j","geza","true","","",""
"2553.7999997138977","","","","","5","html-slider-response","337","","","","2","",""
"6083","column","pundok,dila,ufagio,pala","ufagio","j","5","html-keyboard-response","338","j","ufagio","true","","",""
"2582.9000000953674","","","","","5","html-slider-response","339","","","","4","",""
"7594","basket","kumbuka,utepe,hasira,kumba","kumba","n","5","html-keyboard-response","340","n","kumba","true","","",""
"2249.5","","","","","5","html-slider-response","341","","","","2","",""
"3231","page","wakala,wimbo,ishiri,skina","wimbo","v","5","html-keyboard-response","342","v","wimbo","true","","",""
"2474.4000000953674","","","","","5","html-slider-response","343","","","","2","",""
"4132","bridge","daima,ngono,sahani,panya","sahani","j","5","html-keyboard-response","344","j","sahani","true","","",""
"3109","","","","","5","html-slider-response","345","","","","2","",""
"6472","window","nanga,kujenga,umaga,kweli","kweli","n","5","html-keyboard-response","346","n","kweli","true","","",""
"3152.4000000953674","","","","","5","html-slider-response","347","","","","1","",""
"2901","snake","jansa,karon,mvringo,pagtukod","pagtukod","n","5","html-keyboard-response","348","n","pagtukod","true","","",""
"2600.0999999046326","","","","","5","html-slider-response","349","","","","4","",""
"1934","flag","trekta,ndege,mkate,kawa","trekta","f","5","html-keyboard-response","350","f","trekta","true","","",""
"2594","","","","","5","html-slider-response","351","","","","4","",""
"6249","bed","mapintas,kalipay,haraka,starehe","mapintas","f","5","html-keyboard-response","352","f","mapintas","true","","",""
"2697.5","","","","","5","html-slider-response","353","","","","4","",""
"4583","music","mraba,baiski,mageho,tumbo","baiski","v","5","html-keyboard-response","354","v","baiski","true","","",""
"8897.599999904633","","","","","5","html-slider-response","355","","","","2","",""
"1939","gift","pagtawag,baba,nyange,baso","pagtawag","f","5","html-keyboard-response","356","f","pagtawag","true","","",""
"3086.7999997138977","","","","","5","html-slider-response","357","","","","5","",""
"2895","bonfire","mwezi,goti,mfuko,kusanya","goti","v","5","html-keyboard-response","358","v","goti","true","","",""
"3232.9000000953674","","","","","5","html-slider-response","359","","","","4","",""
"5429","scissors","duga,mtawa,suga,tanuri","tanuri","n","5","html-keyboard-response","360","n","tanuri","true","","",""
"3093.2000002861023","","","","","5","html-slider-response","361","","","","2","",""
"4140","eel","ishara,kunywa,msumari,kabuang","msumari","j","5","html-keyboard-response","362","j","msumari","true","","",""
"3049.0999999046326","","","","","5","html-slider-response","363","","","","2","",""
"3504","pants","pintal,chuki,haki,hari","haki","j","5","html-keyboard-response","364","n","hari","false","","",""
"3096.7000002861023","","","","","5","html-slider-response","365","","","","2","",""
"3164","triangle","kihozi,bentaha,liog,kasadpan","kasadpan","n","5","html-keyboard-response","366","n","kasadpan","true","","",""
"2425.800000190735","","","","","5","html-slider-response","367","","","","4","",""
"12697.799999713898","","","","","6","html-slider-response","369","","","","","1",""
"4523","","","","","6","html-keyboard-response","370","","","","","","false"
