,participant,en_word,swa_word,reward2,reward3,reward4,reward5,confidence2,confidence3,confidence4,confidence5,rt2,rt3,rt4,rt5,rt_confidence2,rt_confidence3,rt_confidence4,rt_confidence5,options2,options3,options4,options5,correct_answer2,correct_answer3,correct_answer4,correct_answer5,input_answer2,input_answer3,input_answer4,input_answer5,input_word2,input_word3,input_word4,input_word5,trial2,trial3,trial4,trial5,reward,confidence,learning_method,srpe,urpe,accuracy_binary,accuracy_continuous,individual_binary_acc,individual_continuous_acc
0,0,apple,kofia,1,1,1,1,0.75,0.0,0.0,0.0,2455,3492,3247,2327,3198.0,1294.0,1673.0,1647.0,"[""hamsi"",""kofia"",""pagduol"",""jansa""]","[""jansa"",""hamsi"",""kofia"",""pagduol""]","[""pagduol"",""jansa"",""kofia"",""hamsi""]","[""jansa"",""hamsi"",""pagduol"",""kofia""]",v,n,n,j,v,n,n,j,kofia,kofia,kofia,kofia,112,355,1041,1182,1,0.0,1.0,1.0,1.0,1,1.0,0.15555555555555556,0.3333333333333333
1,0,banana,wingi,1,0,0,0,0.75,0.0,0.0,0.0,3855,4805,2852,3875,1167.0,1450.0,2089.0,1379.0,"[""wingi"",""kerida"",""bituin"",""ishiri""]","[""ishiri"",""bituin"",""wingi"",""kerida""]","[""wingi"",""bituin"",""ishiri"",""kerida""]","[""ishiri"",""bituin"",""wingi"",""kerida""]",f,n,f,n,f,v,n,v,wingi,bituin,ishiri,bituin,162,445,1011,1234,0,0.0,1.0,0.0,0.0,0,0.0,0.15555555555555556,0.3333333333333333
2,0,bank,napakyas,0,0,0,0,0.25,0.75,0.75,0.75,38204,6352,2682,1868,2405.0,1818.0,1424.0,1506.0,"[""amani"",""singizi"",""napakyas"",""ulimwengu""]","[""singizi"",""ulimwengu"",""amani"",""napakyas""]","[""napakyas"",""singizi"",""ulimwengu"",""amani""]","[""ulimwengu"",""singizi"",""napakyas"",""amani""]",n,j,f,n,j,n,j,j,ulimwengu,amani,amani,amani,200,562,923,1200,0,0.75,1.0,-0.75,0.75,0,0.0,0.15555555555555556,0.3333333333333333
3,0,basket,mgonjwa,1,0,0,0,0.0,0.0,0.0,0.0,5224,2323,2304,2395,1534.0,1533.0,1786.0,1171.0,"[""mgonjwa"",""chuki"",""kadaot"",""taras""]","[""mgonjwa"",""chuki"",""kadaot"",""taras""]","[""taras"",""chuki"",""kadaot"",""mgonjwa""]","[""mgonjwa"",""kadaot"",""taras"",""chuki""]",f,f,j,f,f,n,v,j,mgonjwa,kadaot,chuki,chuki,166,487,1033,1104,0,0.0,1.0,0.0,0.0,0,0.0,0.15555555555555556,0.3333333333333333
4,0,bed,mechezo,1,0,1,0,0.25,0.0,0.0,0.25,3703,3076,2403,1971,1358.0,1718.0,1395.0,1243.0,"[""rombus"",""salita"",""mechezo"",""awit""]","[""mechezo"",""salita"",""rombus"",""awit""]","[""salita"",""awit"",""mechezo"",""rombus""]","[""awit"",""salita"",""mechezo"",""rombus""]",n,f,n,n,n,v,n,v,mechezo,salita,mechezo,salita,108,361,985,1212,0,0.0,1.0,0.0,0.0,0,0.5,0.15555555555555556,0.3333333333333333
5,0,berry,kemia,0,0,0,0,0.25,0.25,0.0,0.0,5048,2757,2407,1164,2103.0,1206.0,1214.0,1354.0,"[""hatua"",""kemia"",""asili"",""kumbuka""]","[""kumbuka"",""asili"",""hatua"",""kemia""]","[""asili"",""hatua"",""kemia"",""kumbuka""]","[""asili"",""hatua"",""kumbuka"",""kemia""]",v,j,n,j,f,n,j,n,hatua,hatua,kumbuka,kumbuka,124,457,979,1220,0,0.25,1.0,-0.25,0.25,0,0.0,0.15555555555555556,0.3333333333333333
6,0,boat,tanuri,0,0,1,1,0.25,0.0,0.75,0.0,2767,2923,3239,2947,1179.0,1274.0,1707.0,1047.0,"[""shule"",""tanuri"",""lisud"",""itik""]","[""shule"",""tanuri"",""lisud"",""itik""]","[""shule"",""tanuri"",""lisud"",""itik""]","[""tanuri"",""shule"",""itik"",""lisud""]",v,v,v,f,f,n,v,f,shule,lisud,tanuri,tanuri,250,454,995,1246,0,0.0,1.0,0.0,0.0,1,1.0,0.15555555555555556,0.3333333333333333
7,0,body,mali,1,1,1,1,0.25,1.0,0.25,0.75,2896,2100,2855,2547,1301.0,1251.0,1327.0,1219.0,"[""mtawa"",""bunyag"",""mali"",""ganti""]","[""bunyag"",""mtawa"",""mali"",""ganti""]","[""ganti"",""mali"",""bunyag"",""mtawa""]","[""mali"",""bunyag"",""mtawa"",""ganti""]",n,n,v,f,n,n,v,f,mali,mali,mali,mali,222,535,941,1116,1,1,0.0,0,0,1,1.0,0.15555555555555556,0.3333333333333333
8,0,bonfire,chombo,0,0,1,0,0.25,0.0,0.0,0.25,3247,2522,2292,2247,1570.0,1295.0,1193.0,1303.0,"[""atay"",""pundok"",""chombo"",""kikapu""]","[""kikapu"",""atay"",""chombo"",""pundok""]","[""pundok"",""atay"",""chombo"",""kikapu""]","[""chombo"",""pundok"",""kikapu"",""atay""]",n,n,n,f,v,j,n,v,pundok,pundok,chombo,pundok,136,565,1037,1168,0,0.0,1.0,0.0,0.0,0,0.5,0.15555555555555556,0.3333333333333333
9,0,book,basi,1,1,0,0,0.75,0.25,0.25,0.0,2987,3117,2472,2950,1483.0,1218.0,1375.0,2339.0,"[""basi"",""baharia"",""hazini"",""nyange""]","[""nyange"",""baharia"",""hazini"",""basi""]","[""nyange"",""baharia"",""basi"",""hazini""]","[""basi"",""nyange"",""baharia"",""hazini""]",f,j,n,f,f,j,f,n,basi,basi,nyange,baharia,128,547,959,1238,1,0.25,1.0,0.75,0.75,0,0.0,0.15555555555555556,0.3333333333333333
10,0,box,pangalan,0,0,0,0,0.0,0.25,0.0,0.0,2815,2161,2775,2194,1491.0,1180.0,1386.0,1651.0,"[""pangalan"",""ijayo"",""pilak"",""welder""]","[""welder"",""pilak"",""pangalan"",""ijayo""]","[""ijayo"",""pilak"",""pangalan"",""welder""]","[""ijayo"",""welder"",""pangalan"",""pilak""]",f,n,n,n,n,v,v,j,pilak,pilak,pilak,pilak,178,412,1057,1098,0,0.25,1.0,-0.25,0.25,0,0.0,0.15555555555555556,0.3333333333333333
11,0,bread,goti,1,1,1,1,0.25,1.0,0.75,0.75,2643,2927,2390,1868,1547.0,1263.0,1412.0,1682.0,"[""kusanya"",""kushoto"",""goti"",""mzungu""]","[""mzungu"",""kusanya"",""goti"",""kushoto""]","[""goti"",""kushoto"",""mzungu"",""kusanya""]","[""goti"",""kusanya"",""kushoto"",""mzungu""]",n,n,f,f,n,n,f,f,goti,goti,goti,goti,280,469,925,1214,1,1,0.0,0,0,1,1.0,0.15555555555555556,0.3333333333333333
12,0,bridge,bega,1,0,1,0,0.0,0.25,0.25,0.0,3587,2228,2276,2668,1383.0,1480.0,1182.0,1490.0,"[""bega"",""takatak"",""mvringo"",""barua""]","[""bega"",""mvringo"",""barua"",""takatak""]","[""mvringo"",""takatak"",""bega"",""barua""]","[""barua"",""bega"",""takatak"",""mvringo""]",f,f,n,v,f,n,n,f,bega,barua,bega,barua,268,376,1039,1100,0,0.25,1.0,-0.25,0.25,0,0.5,0.15555555555555556,0.3333333333333333
13,0,bucket,katuyoan,0,0,0,0,0.25,0.25,0.0,0.25,2895,4075,3242,2708,1526.0,2949.0,2267.0,1538.0,"[""bugas"",""mageho"",""ndoora"",""katuyoan""]","[""ndoora"",""mageho"",""katuyoan"",""bugas""]","[""katuyoan"",""bugas"",""mageho"",""ndoora""]","[""ndoora"",""mageho"",""katuyoan"",""bugas""]",j,n,f,n,f,j,v,f,bugas,bugas,bugas,ndoora,172,301,1017,1130,0,0.25,1.0,-0.25,0.25,0,0.0,0.15555555555555556,0.3333333333333333
14,0,candle,sensilyo,1,1,1,1,0.0,0.0,0.0,0.0,2463,4314,1980,2614,1235.0,1438.0,1243.0,1271.0,"[""dakika"",""sensilyo"",""rafiki"",""liog""]","[""sensilyo"",""dakika"",""liog"",""rafiki""]","[""dakika"",""rafiki"",""sensilyo"",""liog""]","[""dakika"",""liog"",""sensilyo"",""rafiki""]",v,f,n,n,v,f,n,n,sensilyo,sensilyo,sensilyo,sensilyo,270,379,1003,1144,1,0.0,1.0,1.0,1.0,1,1.0,0.15555555555555556,0.3333333333333333
15,0,cat,martilyo,0,0,0,0,0.25,0.25,0.0,0.75,3172,2279,3131,1755,2086.0,1667.0,1351.0,1219.0,"[""martilyo"",""ndezu"",""nchi"",""umaga""]","[""martilyo"",""umaga"",""nchi"",""ndezu""]","[""nchi"",""umaga"",""martilyo"",""ndezu""]","[""ndezu"",""martilyo"",""umaga"",""nchi""]",f,f,n,v,j,j,v,n,umaga,ndezu,umaga,umaga,244,436,993,1204,0,0.25,1.0,-0.25,0.25,0,0.0,0.15555555555555556,0.3333333333333333
16,0,cave,sabuni,0,0,0,0,0.0,0.0,0.0,0.0,2235,2869,1852,2139,1174.0,1651.0,1327.0,1507.0,"[""dagat"",""sabuni"",""kidole"",""mtirka""]","[""mtirka"",""kidole"",""dagat"",""sabuni""]","[""dagat"",""kidole"",""mtirka"",""sabuni""]","[""sabuni"",""kidole"",""dagat"",""mtirka""]",v,j,j,f,n,v,n,n,kidole,kidole,mtirka,dagat,252,421,1055,1232,0,0.0,1.0,0.0,0.0,0,0.0,0.15555555555555556,0.3333333333333333
17,0,ceiling,jiwe,0,0,0,0,0.25,0.0,0.0,0.0,3168,2087,2677,3183,2142.0,2570.0,1465.0,1471.0,"[""jiwe"",""nyeusi"",""nyundo"",""kaso""]","[""jiwe"",""nyeusi"",""nyundo"",""kaso""]","[""jiwe"",""nyeusi"",""kaso"",""nyundo""]","[""kaso"",""jiwe"",""nyundo"",""nyeusi""]",f,f,f,v,j,n,v,f,kaso,nyundo,nyeusi,kaso,110,448,1035,1190,0,0.0,1.0,0.0,0.0,0,0.0,0.15555555555555556,0.3333333333333333
18,0,cigar,buli,1,1,1,0,1.0,1.0,1.0,0.75,4307,2910,2243,5511,1683.0,1686.0,1645.0,1134.0,"[""buli"",""nyundu"",""hari"",""iring""]","[""hari"",""buli"",""iring"",""nyundu""]","[""hari"",""buli"",""iring"",""nyundu""]","[""hari"",""buli"",""iring"",""nyundu""]",f,v,v,v,f,v,v,f,buli,buli,buli,hari,278,409,989,1258,1,1.0,1.0,0.0,0.0,0,0.5,0.15555555555555556,0.3333333333333333
19,0,clock,kisu,0,0,0,0,0.25,0.25,0.0,0.25,2763,2388,2036,2031,1491.0,1194.0,1978.0,1335.0,"[""kisu"",""mlango"",""daima"",""mkate""]","[""mkate"",""kisu"",""daima"",""mlango""]","[""mlango"",""mkate"",""daima"",""kisu""]","[""daima"",""kisu"",""mkate"",""mlango""]",f,v,j,v,v,n,n,n,mlango,daima,daima,mkate,264,415,921,1178,0,0.25,1.0,-0.25,0.25,0,0.0,0.15555555555555556,0.3333333333333333
20,0,coffin,uyoga,0,0,0,1,0.0,0.0,0.0,0.0,2286,2452,1626,1971,1729.0,1391.0,1180.0,1723.0,"[""soko"",""uyoga"",""kamba"",""kamantis""]","[""kamantis"",""kamba"",""uyoga"",""soko""]","[""kamantis"",""kamba"",""soko"",""uyoga""]","[""kamantis"",""soko"",""uyoga"",""kamba""]",v,n,j,n,j,f,n,n,kamantis,kamantis,soko,uyoga,156,388,1009,1202,0,0.0,1.0,0.0,0.0,0,0.5,0.15555555555555556,0.3333333333333333
21,0,column,baiski,0,0,0,0,0.0,0.0,0.0,0.75,19779,2354,2223,2315,1321.0,1395.0,1815.0,1236.0,"[""baiski"",""kununa"",""baho"",""goma""]","[""kununa"",""baiski"",""baho"",""goma""]","[""kununa"",""baiski"",""baho"",""goma""]","[""kununa"",""goma"",""baiski"",""baho""]",f,v,v,n,v,j,f,f,kununa,goma,kununa,kununa,132,532,1049,1216,0,0.0,1.0,0.0,0.0,0,0.0,0.15555555555555556,0.3333333333333333
22,0,cop,mbwa,0,1,1,0,0.0,0.0,0.0,0.0,3964,3295,3400,2739,1523.0,1968.0,1422.0,1291.0,"[""kawaida"",""mbwa"",""ukweli"",""ndugu""]","[""ndugu"",""mbwa"",""kawaida"",""ukweli""]","[""ndugu"",""kawaida"",""mbwa"",""ukweli""]","[""ndugu"",""kawaida"",""ukweli"",""mbwa""]",v,v,n,j,j,v,n,v,ndugu,mbwa,mbwa,kawaida,144,358,967,1240,1,0.0,1.0,1.0,1.0,0,0.5,0.15555555555555556,0.3333333333333333
23,0,cup,pagpalit,1,0,0,0,0.25,0.0,0.0,0.0,2831,3599,3347,2071,1327.0,1279.0,1392.0,1007.0,"[""jeraha"",""pagpalit"",""tamasha"",""kila""]","[""kila"",""pagpalit"",""tamasha"",""jeraha""]","[""tamasha"",""pagpalit"",""jeraha"",""kila""]","[""pagpalit"",""jeraha"",""kila"",""tamasha""]",v,v,v,f,v,j,j,j,pagpalit,jeraha,kila,tamasha,170,496,903,1254,0,0.0,1.0,0.0,0.0,0,0.0,0.15555555555555556,0.3333333333333333
24,0,curtain,adui,0,0,0,1,0.0,0.0,0.0,0.25,3113,2006,4731,1907,2022.0,1279.0,1347.0,1676.0,"[""kijiko"",""adui"",""mkboa"",""nanga""]","[""adui"",""mkboa"",""kijiko"",""nanga""]","[""kijiko"",""adui"",""mkboa"",""nanga""]","[""kijiko"",""nanga"",""adui"",""mkboa""]",v,f,v,n,n,v,n,n,mkboa,mkboa,mkboa,adui,216,403,919,1136,0,0.0,1.0,0.0,0.0,0,0.5,0.15555555555555556,0.3333333333333333
25,0,dog,kumba,1,1,1,0,0.0,0.0,0.0,0.25,4404,3866,2539,2572,1257.0,1787.0,1530.0,1218.0,"[""mkasi"",""kumba"",""wakala"",""liso""]","[""liso"",""wakala"",""mkasi"",""kumba""]","[""kumba"",""mkasi"",""liso"",""wakala""]","[""mkasi"",""kumba"",""liso"",""wakala""]",v,j,f,v,v,j,f,j,kumba,kumba,kumba,wakala,146,325,1025,1242,1,0.0,1.0,1.0,1.0,0,0.5,0.15555555555555556,0.3333333333333333
26,0,donkey,tuburan,1,1,0,0,0.75,1.0,0.0,0.0,2866,1647,2965,2289,1156.0,1794.0,1385.0,1601.0,"[""tuburan"",""ndogo"",""bala"",""washia""]","[""washia"",""ndogo"",""tuburan"",""bala""]","[""bala"",""ndogo"",""tuburan"",""washia""]","[""tuburan"",""washia"",""bala"",""ndogo""]",f,n,n,f,f,n,j,n,tuburan,tuburan,washia,bala,282,343,915,1090,1,1,0.0,0,0,0,0.0,0.15555555555555556,0.3333333333333333
27,0,door,haki,0,0,1,1,0.0,0.25,0.0,0.25,3441,5871,2151,3664,1469.0,1445.0,1302.0,1389.0,"[""haki"",""punda"",""tualya"",""ishara""]","[""punda"",""tualya"",""ishara"",""haki""]","[""punda"",""tualya"",""ishara"",""haki""]","[""tualya"",""punda"",""haki"",""ishara""]",f,j,j,n,v,n,j,n,punda,ishara,haki,haki,168,307,1069,1184,0,0.25,1.0,-0.25,0.25,1,1.0,0.15555555555555556,0.3333333333333333
28,0,eel,mchanga,0,0,0,0,0.0,0.0,0.0,0.0,6072,3624,2896,2100,1542.0,1499.0,2194.0,1218.0,"[""dizeli"",""mchanga"",""kalipay"",""sufuria""]","[""dizeli"",""kalipay"",""mchanga"",""sufuria""]","[""dizeli"",""mchanga"",""sufuria"",""kalipay""]","[""dizeli"",""kalipay"",""mchanga"",""sufuria""]",v,n,v,n,f,f,n,j,dizeli,dizeli,sufuria,sufuria,190,337,999,1230,0,0.0,1.0,0.0,0.0,0,0.0,0.15555555555555556,0.3333333333333333
29,0,elephant,lugha,0,0,1,0,0.25,0.0,0.0,0.75,3412,2480,2283,2108,1461.0,1551.0,1771.0,1675.0,"[""lugha"",""kuzama"",""lamigas"",""kama""]","[""kuzama"",""lugha"",""kama"",""lamigas""]","[""kuzama"",""lamigas"",""kama"",""lugha""]","[""lamigas"",""lugha"",""kama"",""kuzama""]",f,v,j,v,j,f,j,j,kama,kuzama,lugha,kuzama,152,385,1027,1124,0,0.0,1.0,0.0,0.0,0,0.5,0.15555555555555556,0.3333333333333333
30,0,finger,ufagio,0,0,1,1,0.25,0.0,0.0,0.0,2545,2027,2306,2519,1859.0,1633.0,1637.0,1175.0,"[""ufagio"",""mwanga"",""mwanake"",""mvuke""]","[""mwanga"",""mwanake"",""mvuke"",""ufagio""]","[""ufagio"",""mwanake"",""mvuke"",""mwanga""]","[""ufagio"",""mwanake"",""mvuke"",""mwanga""]",f,j,f,f,v,v,f,f,mwanga,mwanake,ufagio,ufagio,212,556,1019,1170,0,0.0,1.0,0.0,0.0,1,1.0,0.15555555555555556,0.3333333333333333
31,0,fish,pagtawag,0,0,0,1,0.0,0.25,0.0,0.75,34688,2726,2002,2987,2269.0,2078.0,1259.0,1146.0,"[""kanding"",""pagtawag"",""jibini"",""kasuko""]","[""jibini"",""kasuko"",""kanding"",""pagtawag""]","[""pagtawag"",""kasuko"",""jibini"",""kanding""]","[""kasuko"",""jibini"",""pagtawag"",""kanding""]",v,j,f,n,n,f,n,n,jibini,jibini,jibini,pagtawag,202,370,901,1210,0,0.25,1.0,-0.25,0.25,0,0.5,0.15555555555555556,0.3333333333333333
32,0,flag,kiatu,1,0,0,0,0.25,0.25,0.75,0.25,5515,3728,2544,2543,1310.0,1089.0,1134.0,3207.0,"[""init"",""betri"",""kiatu"",""mpishi""]","[""init"",""kiatu"",""mpishi"",""betri""]","[""kiatu"",""mpishi"",""betri"",""init""]","[""kiatu"",""betri"",""mpishi"",""init""]",n,v,f,f,n,j,n,v,kiatu,betri,betri,betri,122,430,1045,1172,0,0.25,1.0,-0.25,0.25,0,0.0,0.15555555555555556,0.3333333333333333
33,0,flower,maji,1,0,0,0,0.75,0.0,0.25,0.75,2675,2151,4063,4160,1131.0,1491.0,1939.0,1183.0,"[""rayna"",""maji"",""kartasi"",""kabuang""]","[""rayna"",""kartasi"",""kabuang"",""maji""]","[""maji"",""rayna"",""kabuang"",""kartasi""]","[""kabuang"",""kartasi"",""maji"",""rayna""]",v,j,f,n,v,n,n,f,maji,kabuang,kabuang,kabuang,284,331,1061,1142,0,0.0,1.0,0.0,0.0,0,0.0,0.15555555555555556,0.3333333333333333
34,0,fork,geza,0,0,0,0,0.0,0.25,0.25,0.25,2795,2765,2003,1995,1410.0,2355.0,1211.0,1340.0,"[""geza"",""kengele"",""mraba"",""paghago""]","[""geza"",""paghago"",""kengele"",""mraba""]","[""paghago"",""geza"",""mraba"",""kengele""]","[""mraba"",""geza"",""kengele"",""paghago""]",f,f,v,v,n,j,n,n,mraba,mraba,mraba,kengele,274,433,907,1118,0,0.25,1.0,-0.25,0.25,0,0.0,0.15555555555555556,0.3333333333333333
35,0,gift,sahani,0,1,1,0,0.25,1.0,0.0,0.0,2840,1955,2515,3943,1842.0,1790.0,1511.0,1154.0,"[""sahani"",""tumbo"",""chupa"",""kihozi""]","[""kihozi"",""chupa"",""tumbo"",""sahani""]","[""sahani"",""tumbo"",""chupa"",""kihozi""]","[""tumbo"",""kihozi"",""chupa"",""sahani""]",f,j,f,j,v,j,f,n,tumbo,sahani,sahani,chupa,230,460,997,1198,1,1,0.0,0,0,0,0.5,0.15555555555555556,0.3333333333333333
36,0,giraffe,duka,0,0,0,0,0.25,0.0,0.25,0.25,4923,3093,2144,3144,1796.0,2105.0,2626.0,1075.0,"[""picha"",""kalamu"",""duka"",""asin""]","[""picha"",""duka"",""asin"",""kalamu""]","[""duka"",""picha"",""asin"",""kalamu""]","[""kalamu"",""picha"",""asin"",""duka""]",n,v,f,j,f,j,n,n,picha,kalamu,asin,asin,150,508,905,1226,0,0.0,1.0,0.0,0.0,0,0.0,0.15555555555555556,0.3333333333333333
37,0,hammer,pagsulod,0,0,0,0,0.0,0.0,0.0,0.0,2193,3024,1951,2124,1397.0,1810.0,1423.0,1482.0,"[""seri"",""pombe"",""tambok"",""pagsulod""]","[""pagsulod"",""tambok"",""pombe"",""seri""]","[""pagsulod"",""tambok"",""seri"",""pombe""]","[""seri"",""pagsulod"",""pombe"",""tambok""]",j,f,f,v,n,v,j,n,tambok,tambok,pombe,pombe,176,466,1077,1112,0,0.0,1.0,0.0,0.0,0,0.0,0.15555555555555556,0.3333333333333333
38,0,hill,matumai,0,0,0,0,0.25,0.0,0.0,0.25,2375,2433,2223,1956,1256.0,1658.0,1302.0,2369.0,"[""lalake"",""luha"",""mwezi"",""matumai""]","[""mwezi"",""matumai"",""lalake"",""luha""]","[""matumai"",""luha"",""lalake"",""mwezi""]","[""matumai"",""lalake"",""mwezi"",""luha""]",j,v,f,f,v,n,v,v,luha,lalake,luha,lalake,164,553,969,1132,0,0.0,1.0,0.0,0.0,0,0.0,0.15555555555555556,0.3333333333333333
39,0,human,surali,1,1,1,1,0.75,1.0,1.0,0.75,4240,4242,2235,3315,1946.0,1838.0,1135.0,1259.0,"[""suga"",""uadui"",""surali"",""baso""]","[""baso"",""surali"",""suga"",""uadui""]","[""suga"",""surali"",""baso"",""uadui""]","[""uadui"",""baso"",""surali"",""suga""]",n,v,v,n,n,v,v,n,surali,surali,surali,surali,114,322,973,1134,1,1,0.0,0,0,1,1.0,0.15555555555555556,0.3333333333333333
40,0,key,kesho,1,1,0,1,0.25,1.0,0.0,0.0,3088,1777,2130,2548,1271.0,3754.0,1459.0,1818.0,"[""mungu"",""baadaye"",""kesho"",""kimysa""]","[""kesho"",""mungu"",""baadaye"",""kimysa""]","[""mungu"",""kimysa"",""baadaye"",""kesho""]","[""kimysa"",""kesho"",""baadaye"",""mungu""]",n,f,j,v,n,f,n,v,kesho,kesho,baadaye,kesho,236,568,1001,1106,1,1,0.0,0,0,0,0.5,0.15555555555555556,0.3333333333333333
41,0,knee,hofu,1,0,0,0,0.0,0.75,0.0,0.25,2344,2624,2288,1979,1447.0,1659.0,1613.0,1078.0,"[""tena"",""hofu"",""nopya"",""rangi""]","[""tena"",""rangi"",""nopya"",""hofu""]","[""tena"",""nopya"",""rangi"",""hofu""]","[""nopya"",""tena"",""rangi"",""hofu""]",v,j,j,j,v,f,v,v,hofu,tena,nopya,tena,184,367,965,1224,0,0.75,1.0,-0.75,0.75,0,0.0,0.15555555555555556,0.3333333333333333
42,0,ladder,trekta,0,0,1,0,0.25,0.0,0.0,0.0,2408,2054,2279,4507,1502.0,1878.0,1278.0,1635.0,"[""ndege"",""baki"",""trekta"",""miaka""]","[""miaka"",""baki"",""ndege"",""trekta""]","[""ndege"",""baki"",""trekta"",""miaka""]","[""trekta"",""miaka"",""ndege"",""baki""]",n,j,n,f,v,n,n,j,baki,ndege,trekta,baki,226,364,1071,1094,0,0.0,1.0,0.0,0.0,0,0.5,0.15555555555555556,0.3333333333333333
43,0,lamp,elfu,0,0,0,0,0.0,0.0,0.75,0.0,2323,3082,3551,2399,1298.0,1222.0,1163.0,1223.0,"[""kujenga"",""maisha"",""bulwawan"",""elfu""]","[""bulwawan"",""elfu"",""kujenga"",""maisha""]","[""bulwawan"",""elfu"",""maisha"",""kujenga""]","[""maisha"",""kujenga"",""bulwawan"",""elfu""]",j,v,v,j,n,j,j,v,bulwawan,maisha,kujenga,kujenga,272,382,949,1186,0,0.0,1.0,0.0,0.0,0,0.0,0.15555555555555556,0.3333333333333333
44,0,letter,ugomvi,0,1,0,0,0.75,1.0,0.0,0.75,2583,2213,3155,3227,1301.0,1391.0,1276.0,1444.0,"[""ugomvi"",""akili"",""kuta"",""fedha""]","[""akili"",""fedha"",""kuta"",""ugomvi""]","[""akili"",""ugomvi"",""kuta"",""fedha""]","[""ugomvi"",""akili"",""fedha"",""kuta""]",f,j,v,f,v,j,j,v,akili,ugomvi,fedha,akili,160,418,911,1206,1,1,0.0,0,0,0,0.0,0.15555555555555556,0.3333333333333333
45,0,list,mapintas,0,0,0,0,0.25,0.25,0.0,0.75,6792,3285,1727,2460,1490.0,2574.0,1170.0,1794.0,"[""usiku"",""mapintas"",""choori"",""gundi""]","[""gundi"",""mapintas"",""choori"",""usiku""]","[""mapintas"",""usiku"",""gundi"",""choori""]","[""gundi"",""mapintas"",""usiku"",""choori""]",v,v,f,v,j,f,n,f,gundi,gundi,gundi,gundi,120,427,1053,1110,0,0.25,1.0,-0.25,0.25,0,0.0,0.15555555555555556,0.3333333333333333
46,0,magazine,afya,0,1,0,0,0.25,1.0,0.0,0.25,2759,2090,2375,2287,1178.0,2046.0,1191.0,1151.0,"[""ngazi"",""lubi"",""kupanda"",""afya""]","[""afya"",""ngazi"",""lubi"",""kupanda""]","[""afya"",""lubi"",""ngazi"",""kupanda""]","[""afya"",""lubi"",""kupanda"",""ngazi""]",j,f,f,f,n,f,j,j,kupanda,afya,kupanda,ngazi,246,484,981,1158,1,1,0.0,0,0,0,0.0,0.15555555555555556,0.3333333333333333
47,0,marker,silingan,0,0,0,1,0.0,0.0,0.0,0.0,2619,3068,2323,2247,1958.0,1982.0,1519.0,2096.0,"[""alizeti"",""mekno"",""tawo"",""silingan""]","[""silingan"",""tawo"",""alizeti"",""mekno""]","[""tawo"",""alizeti"",""silingan"",""mekno""]","[""tawo"",""mekno"",""silingan"",""alizeti""]",j,f,n,n,v,v,f,n,mekno,tawo,tawo,silingan,194,391,1031,1188,0,0.0,1.0,0.0,0.0,0,0.5,0.15555555555555556,0.3333333333333333
48,0,mirror,pagtukod,0,0,0,0,0.0,0.25,0.0,0.75,14172,3237,1960,2527,2930.0,2049.0,1261.0,1474.0,"[""bungtod"",""pagtukod"",""edad"",""tubag""]","[""bungtod"",""tubag"",""edad"",""pagtukod""]","[""tubag"",""pagtukod"",""edad"",""bungtod""]","[""tubag"",""bungtod"",""edad"",""pagtukod""]",v,j,v,j,j,v,n,f,tubag,tubag,edad,tubag,130,373,975,1192,0,0.25,1.0,-0.25,0.25,0,0.0,0.15555555555555556,0.3333333333333333
49,0,mosquito,mkuu,0,1,0,0,0.25,1.0,0.0,0.0,2600,1893,2579,2189,1241.0,1480.0,1363.0,2077.0,"[""mkuu"",""mdudu"",""imani"",""funzi""]","[""funzi"",""imani"",""mdudu"",""mkuu""]","[""mkuu"",""imani"",""funzi"",""mdudu""]","[""mdudu"",""funzi"",""imani"",""mkuu""]",f,j,f,j,j,j,n,f,funzi,mkuu,funzi,mdudu,260,517,933,1088,1,1,0.0,0,0,0,0.0,0.15555555555555556,0.3333333333333333
50,0,mother,kubwa,0,1,0,0,0.0,1.0,1.0,1.0,14856,2083,5787,2816,1514.0,1419.0,1542.0,1147.0,"[""bendi"",""karon"",""mchuzi"",""kubwa""]","[""kubwa"",""bendi"",""mchuzi"",""karon""]","[""kubwa"",""bendi"",""karon"",""mchuzi""]","[""karon"",""kubwa"",""bendi"",""mchuzi""]",j,f,f,v,n,f,v,n,mchuzi,kubwa,bendi,bendi,198,526,957,1260,1,1,0.0,0,0,0,0.0,0.15555555555555556,0.3333333333333333
51,0,nose,mahitabo,0,0,0,0,0.25,0.0,0.25,0.75,2983,3357,2467,2487,1316.0,2277.0,1824.0,1055.0,"[""gubat"",""daub"",""mahitabo"",""kaburi""]","[""kaburi"",""mahitabo"",""gubat"",""daub""]","[""kaburi"",""daub"",""mahitabo"",""gubat""]","[""gubat"",""mahitabo"",""daub"",""kaburi""]",n,v,n,v,f,j,j,f,gubat,daub,gubat,gubat,256,505,937,1146,0,0.0,1.0,0.0,0.0,0,0.0,0.15555555555555556,0.3333333333333333
52,0,notebook,mamba,0,0,0,0,0.0,0.0,0.25,0.25,2983,3690,4206,2196,2206.0,1496.0,1461.0,1218.0,"[""mamba"",""petye"",""nyota"",""kopa""]","[""kopa"",""mamba"",""petye"",""nyota""]","[""mamba"",""nyota"",""kopa"",""petye""]","[""mamba"",""nyota"",""kopa"",""petye""]",f,v,f,f,n,j,v,n,nyota,nyota,nyota,kopa,186,502,931,1128,0,0.0,1.0,0.0,0.0,0,0.0,0.15555555555555556,0.3333333333333333
53,0,number,sulagma,0,0,0,0,0.25,0.75,0.25,0.0,5304,4765,2882,2448,1658.0,2533.0,1556.0,1334.0,"[""kunywa"",""sulagma"",""twai"",""hagdan""]","[""hagdan"",""kunywa"",""twai"",""sulagma""]","[""hagdan"",""twai"",""sulagma"",""kunywa""]","[""sulagma"",""kunywa"",""hagdan"",""twai""]",v,j,n,f,n,v,f,v,twai,kunywa,hagdan,kunywa,192,310,935,1156,0,0.75,1.0,-0.75,0.75,0,0.0,0.15555555555555556,0.3333333333333333
54,0,office,kifua,0,0,0,1,0.0,0.25,0.0,0.0,2643,2190,2371,2115,1811.0,1356.0,1234.0,2267.0,"[""kubale"",""kifua"",""bentaha"",""jumatu""]","[""kifua"",""jumatu"",""bentaha"",""kubale""]","[""kubale"",""jumatu"",""kifua"",""bentaha""]","[""kubale"",""kifua"",""jumatu"",""bentaha""]",v,f,n,v,n,j,j,v,bentaha,kubale,bentaha,kifua,138,451,917,1228,0,0.25,1.0,-0.25,0.25,0,0.5,0.15555555555555556,0.3333333333333333
55,0,olive,bunifu,0,1,0,0,0.25,1.0,0.0,0.25,2289,1591,2247,2127,1301.0,1518.0,1183.0,1087.0,"[""bunifu"",""punguza"",""mfuko"",""pwani""]","[""mfuko"",""punguza"",""pwani"",""bunifu""]","[""punguza"",""pwani"",""bunifu"",""mfuko""]","[""punguza"",""pwani"",""bunifu"",""mfuko""]",f,j,n,n,n,j,v,v,mfuko,bunifu,pwani,pwani,220,514,1073,1196,1,1,0.0,0,0,0,0.0,0.15555555555555556,0.3333333333333333
56,0,page,wimbo,0,0,0,0,0.25,0.0,0.0,0.75,4528,2267,2290,2257,1550.0,2353.0,1266.0,2043.0,"[""wimbo"",""nogozi"",""furaha"",""kasamok""]","[""furaha"",""wimbo"",""nogozi"",""kasamok""]","[""furaha"",""kasamok"",""wimbo"",""nogozi""]","[""furaha"",""nogozi"",""kasamok"",""wimbo""]",f,v,n,j,j,n,f,v,kasamok,nogozi,furaha,nogozi,218,490,913,1208,0,0.0,1.0,0.0,0.0,0,0.0,0.15555555555555556,0.3333333333333333
57,0,pants,bililhon,1,1,1,0,0.25,0.0,0.0,0.0,2964,3020,1948,2355,1285.0,1962.0,1191.0,1431.0,"[""kudhibi"",""bililhon"",""kuhesa"",""lamok""]","[""kuhesa"",""lamok"",""bililhon"",""kudhibi""]","[""lamok"",""bililhon"",""kuhesa"",""kudhibi""]","[""bililhon"",""kudhibi"",""lamok"",""kuhesa""]",v,n,v,f,v,n,v,j,bililhon,bililhon,bililhon,kuhesa,232,334,1059,1236,1,0.0,1.0,1.0,1.0,0,0.5,0.15555555555555556,0.3333333333333333
58,0,park,moyo,0,1,0,0,0.25,1.0,0.25,0.25,3415,2205,3658,2396,1871.0,1579.0,1219.0,1266.0,"[""hasira"",""siagi"",""moyo"",""suka""]","[""hasira"",""siagi"",""moyo"",""suka""]","[""hasira"",""moyo"",""siagi"",""suka""]","[""moyo"",""hasira"",""suka"",""siagi""]",n,n,v,f,j,n,j,n,suka,moyo,suka,suka,118,328,991,1126,1,1,0.0,0,0,0,0.0,0.15555555555555556,0.3333333333333333
59,0,perfume,mundamo,1,0,0,0,0.25,0.0,0.25,0.0,3615,3354,2490,2501,1162.0,1346.0,1390.0,3593.0,"[""uhuru"",""silya"",""tembo"",""mundamo""]","[""uhuru"",""mundamo"",""tembo"",""silya""]","[""uhuru"",""silya"",""mundamo"",""tembo""]","[""tembo"",""mundamo"",""uhuru"",""silya""]",j,v,n,v,j,n,j,f,mundamo,tembo,tembo,tembo,242,349,977,1096,0,0.0,1.0,0.0,0.0,0,0.0,0.15555555555555556,0.3333333333333333
60,0,picture,msumari,0,0,0,0,0.0,0.0,0.0,0.0,2463,2974,2290,2976,1360.0,1750.0,2186.0,1334.0,"[""msumari"",""bandari"",""bata"",""kelele""]","[""bandari"",""msumari"",""bata"",""kelele""]","[""bata"",""kelele"",""bandari"",""msumari""]","[""bandari"",""kelele"",""bata"",""msumari""]",f,v,j,j,v,f,n,f,bandari,bandari,bandari,bandari,196,481,1023,1248,0,0.0,1.0,0.0,0.0,0,0.0,0.15555555555555556,0.3333333333333333
61,0,poster,leso,0,0,0,1,0.25,0.0,0.0,0.0,2664,2346,3327,1554,1414.0,1434.0,1239.0,1187.0,"[""kichwa"",""mbolea"",""leso"",""mapafu""]","[""kichwa"",""mbolea"",""leso"",""mapafu""]","[""leso"",""mbolea"",""mapafu"",""kichwa""]","[""mapafu"",""mbolea"",""leso"",""kichwa""]",n,n,f,n,v,f,n,n,mbolea,kichwa,mapafu,leso,234,511,961,1138,0,0.0,1.0,0.0,0.0,0,0.5,0.15555555555555556,0.3333333333333333
62,0,pudding,adhabu,0,1,1,0,0.0,0.25,0.0,0.0,2451,7384,1920,2392,2119.0,1967.0,1118.0,1682.0,"[""osha"",""ndaniya"",""adhabu"",""baba""]","[""baba"",""osha"",""adhabu"",""ndaniya""]","[""baba"",""adhabu"",""osha"",""ndaniya""]","[""ndaniya"",""adhabu"",""osha"",""baba""]",n,n,v,v,v,n,v,f,ndaniya,adhabu,adhabu,ndaniya,134,304,1067,1086,1,0.25,1.0,0.75,0.75,0,0.5,0.15555555555555556,0.3333333333333333
63,0,puppet,sehemu,0,0,1,0,0.0,0.0,0.0,0.25,3130,2208,1953,2432,1369.0,1661.0,1613.0,1180.0,"[""sehemu"",""kahawa"",""starehe"",""chubani""]","[""sehemu"",""starehe"",""chubani"",""kahawa""]","[""chubani"",""starehe"",""sehemu"",""kahawa""]","[""kahawa"",""starehe"",""sehemu"",""chubani""]",f,f,n,n,v,n,n,j,kahawa,chubani,sehemu,chubani,140,478,1021,1250,0,0.0,1.0,0.0,0.0,0,0.5,0.15555555555555556,0.3333333333333333
64,0,rose,bahari,0,1,1,0,0.0,1.0,1.0,0.75,2621,3575,5014,3450,1362.0,2201.0,1247.0,1440.0,"[""jokofu"",""napulo"",""bahari"",""kawa""]","[""bahari"",""jokofu"",""kawa"",""napulo""]","[""kawa"",""jokofu"",""bahari"",""napulo""]","[""napulo"",""kawa"",""bahari"",""jokofu""]",n,f,n,n,j,f,n,f,kawa,bahari,bahari,napulo,276,541,947,1166,1,1,0.0,0,0,0,0.5,0.15555555555555556,0.3333333333333333
65,0,salmon,kweli,1,1,1,1,0.0,0.0,0.25,0.75,2819,2861,2048,4384,1634.0,1411.0,1418.0,1150.0,"[""lima"",""simu"",""kweli"",""pahiyum""]","[""simu"",""kweli"",""pahiyum"",""lima""]","[""lima"",""simu"",""kweli"",""pahiyum""]","[""pahiyum"",""kweli"",""lima"",""simu""]",n,v,n,v,n,v,n,v,kweli,kweli,kweli,kweli,266,529,955,1148,1,0.0,1.0,1.0,1.0,1,1.0,0.15555555555555556,0.3333333333333333
66,0,scissors,tinapay,1,1,1,1,0.75,0.0,0.0,1.0,3287,2656,2495,2419,1719.0,1495.0,2882.0,1332.0,"[""gorisi"",""tinapay"",""kinywa"",""pintal""]","[""gorisi"",""kinywa"",""tinapay"",""pintal""]","[""pintal"",""gorisi"",""tinapay"",""kinywa""]","[""kinywa"",""pintal"",""gorisi"",""tinapay""]",v,n,n,j,v,n,n,j,tinapay,tinapay,tinapay,tinapay,204,406,899,1120,1,0.0,1.0,1.0,1.0,1,1.0,0.15555555555555556,0.3333333333333333
67,0,sheet,pagtabon,0,1,1,0,0.0,1.0,0.75,0.25,4053,1888,2995,2312,1662.0,1454.0,1099.0,1205.0,"[""hulma"",""bado"",""pagtabon"",""uongo""]","[""pagtabon"",""bado"",""uongo"",""hulma""]","[""hulma"",""uongo"",""bado"",""pagtabon""]","[""hulma"",""uongo"",""pagtabon"",""bado""]",n,f,j,n,f,f,j,f,hulma,pagtabon,pagtabon,hulma,158,400,927,1154,1,1,0.0,0,0,0,0.5,0.15555555555555556,0.3333333333333333
68,0,shelf,kamwe,0,0,0,1,0.25,0.0,0.25,0.0,3944,2574,3901,1838,1182.0,1654.0,1309.0,1256.0,"[""kamwe"",""mahugaw"",""kitande"",""layag""]","[""kamwe"",""mahugaw"",""kitande"",""layag""]","[""kamwe"",""mahugaw"",""layag"",""kitande""]","[""layag"",""mahugaw"",""kitande"",""kamwe""]",f,f,f,j,n,v,n,j,kitande,mahugaw,layag,kamwe,224,397,929,1256,0,0.0,1.0,0.0,0.0,0,0.5,0.15555555555555556,0.3333333333333333
69,0,shoe,kabalaka,0,1,0,1,0.25,0.0,0.0,0.0,3156,3057,2367,3329,1066.0,1957.0,1375.0,4012.0,"[""juuya"",""godoro"",""kabalaka"",""abogado""]","[""godoro"",""abogado"",""juuya"",""kabalaka""]","[""juuya"",""kabalaka"",""godoro"",""abogado""]","[""juuya"",""godoro"",""kabalaka"",""abogado""]",n,j,v,n,j,j,f,n,abogado,kabalaka,juuya,kabalaka,262,394,963,1082,1,0.0,1.0,1.0,1.0,0,0.5,0.15555555555555556,0.3333333333333333
70,0,shop,mvua,1,0,1,0,0.0,0.0,0.0,0.25,3199,3176,2107,1952,1562.0,1743.0,1826.0,1406.0,"[""mvua"",""shimoni"",""sungura"",""kuacha""]","[""shimoni"",""sungura"",""mvua"",""kuacha""]","[""kuacha"",""sungura"",""mvua"",""shimoni""]","[""mvua"",""sungura"",""shimoni"",""kuacha""]",f,n,n,f,f,f,n,n,mvua,shimoni,mvua,shimoni,126,499,1015,1152,0,0.0,1.0,0.0,0.0,0,0.5,0.15555555555555556,0.3333333333333333
71,0,shoulder,babaye,0,1,0,0,0.0,0.75,0.0,0.0,3359,2471,3287,2471,1446.0,1465.0,1807.0,1405.0,"[""katika"",""kovuli"",""babaye"",""kitanda""]","[""kovuli"",""katika"",""babaye"",""kitanda""]","[""kitanda"",""katika"",""kovuli"",""babaye""]","[""babaye"",""kovuli"",""kitanda"",""katika""]",n,n,j,f,j,n,n,v,kitanda,babaye,kovuli,kovuli,206,316,945,1162,1,0.75,1.0,0.25,0.25,0,0.0,0.15555555555555556,0.3333333333333333
72,0,snake,maua,0,1,0,0,0.0,0.25,0.0,0.0,2919,9758,2447,2403,1488.0,1470.0,1583.0,1163.0,"[""maua"",""atop"",""panya"",""mbuzi""]","[""panya"",""mbuzi"",""maua"",""atop""]","[""panya"",""maua"",""atop"",""mbuzi""]","[""maua"",""atop"",""mbuzi"",""panya""]",f,n,v,f,n,n,f,j,panya,maua,panya,panya,182,313,953,1114,1,0.25,1.0,0.75,0.75,0,0.0,0.15555555555555556,0.3333333333333333
73,0,sock,kioo,0,0,0,1,0.0,0.0,0.0,0.25,2743,2413,2419,3251,1886.0,1410.0,1655.0,1024.0,"[""kioo"",""hangyo"",""skina"",""kukimba""]","[""skina"",""kioo"",""hangyo"",""kukimba""]","[""hangyo"",""skina"",""kukimba"",""kioo""]","[""skina"",""hangyo"",""kioo"",""kukimba""]",f,v,j,n,n,f,n,n,skina,skina,kukimba,kioo,174,523,1063,1194,0,0.0,1.0,0.0,0.0,0,0.5,0.15555555555555556,0.3333333333333333
74,0,spider,sayari,0,1,1,1,0.25,0.0,0.0,0.0,3164,2354,1643,2215,2407.0,1754.0,2179.0,1887.0,"[""bustani"",""sayari"",""daraja"",""nzuri""]","[""bustani"",""sayari"",""daraja"",""nzuri""]","[""bustani"",""nzuri"",""sayari"",""daraja""]","[""nzuri"",""bustani"",""daraja"",""sayari""]",v,v,n,j,n,v,n,j,daraja,sayari,sayari,sayari,248,439,987,1160,1,0.0,1.0,1.0,1.0,1,1.0,0.15555555555555556,0.3333333333333333
75,0,spoon,pamahaw,1,0,0,0,0.25,0.0,0.0,0.0,2408,4296,2291,2988,1540.0,2506.0,1883.0,1323.0,"[""gutom"",""pamahaw"",""ofisi"",""bakus""]","[""pamahaw"",""ofisi"",""bakus"",""gutom""]","[""pamahaw"",""gutom"",""ofisi"",""bakus""]","[""bakus"",""ofisi"",""gutom"",""pamahaw""]",v,f,f,j,v,j,j,n,pamahaw,gutom,bakus,gutom,214,340,909,1102,0,0.0,1.0,0.0,0.0,0,0.0,0.15555555555555556,0.3333333333333333
76,0,squirrel,mazishi,1,0,1,1,0.0,0.0,0.0,0.25,13916,3547,1806,3071,3298.0,1439.0,1183.0,1567.0,"[""ahos"",""mazishi"",""watu"",""ukame""]","[""ukame"",""watu"",""ahos"",""mazishi""]","[""watu"",""mazishi"",""ahos"",""ukame""]","[""ukame"",""ahos"",""watu"",""mazishi""]",v,j,v,j,v,f,v,j,mazishi,ukame,mazishi,mazishi,148,475,1075,1150,0,0.0,1.0,0.0,0.0,1,1.0,0.15555555555555556,0.3333333333333333
77,0,stone,matumbo,0,0,1,0,0.0,0.0,0.0,0.25,2664,2396,2339,1831,1365.0,1362.0,1811.0,1147.0,"[""ndizi"",""matumbo"",""bahandi"",""farasi""]","[""ndizi"",""bahandi"",""matumbo"",""farasi""]","[""bahandi"",""matumbo"",""ndizi"",""farasi""]","[""bahandi"",""farasi"",""matumbo"",""ndizi""]",v,n,v,n,f,f,v,v,ndizi,ndizi,matumbo,farasi,188,442,1005,1164,0,0.0,1.0,0.0,0.0,0,0.5,0.15555555555555556,0.3333333333333333
78,0,sun,samaki,0,0,1,0,0.25,0.0,0.0,0.0,2375,1465,1635,2211,1235.0,1985.0,1244.0,1636.0,"[""samaki"",""kuna"",""mashua"",""msitu""]","[""samaki"",""mashua"",""kuna"",""msitu""]","[""mashua"",""msitu"",""samaki"",""kuna""]","[""msitu"",""samaki"",""kuna"",""mashua""]",f,f,n,v,v,n,n,n,kuna,kuna,samaki,kuna,238,538,1007,1244,0,0.0,1.0,0.0,0.0,0,0.5,0.15555555555555556,0.3333333333333333
79,0,telephone,kasadpan,1,1,1,0,0.25,1.0,0.0,0.0,2863,2499,2719,2412,1135.0,1473.0,1623.0,1601.0,"[""chupi"",""kasadpan"",""yatima"",""baboy""]","[""yatima"",""chupi"",""kasadpan"",""baboy""]","[""kasadpan"",""chupi"",""yatima"",""baboy""]","[""yatima"",""baboy"",""kasadpan"",""chupi""]",v,n,f,n,v,n,f,f,kasadpan,kasadpan,kasadpan,yatima,254,346,1047,1108,1,1,0.0,0,0,0,0.5,0.15555555555555556,0.3333333333333333
80,0,tissue,wingu,1,1,1,1,1.0,1.0,1.0,1.0,5019,2391,2263,2772,1783.0,1511.0,1384.0,2027.0,"[""wingu"",""utepe"",""mara"",""pala""]","[""utepe"",""pala"",""mara"",""wingu""]","[""wingu"",""mara"",""pala"",""utepe""]","[""wingu"",""pala"",""utepe"",""mara""]",f,j,f,f,f,j,f,f,wingu,wingu,wingu,wingu,240,463,943,1092,1,1.0,1.0,0.0,0.0,1,1.0,0.15555555555555556,0.3333333333333333
81,0,tomato,aibu,0,0,0,0,0.0,0.0,0.25,0.25,3116,2910,2455,2252,1469.0,1874.0,1974.0,1694.0,"[""abang"",""baga"",""bili"",""aibu""]","[""bili"",""baga"",""aibu"",""abang""]","[""abang"",""aibu"",""bili"",""baga""]","[""bili"",""baga"",""aibu"",""abang""]",j,n,v,n,v,f,j,v,baga,bili,baga,baga,116,544,939,1140,0,0.0,1.0,0.0,0.0,0,0.0,0.15555555555555556,0.3333333333333333
82,0,tooth,paghalad,0,1,1,0,0.25,1.0,0.75,0.25,2522,1779,2396,2130,1797.0,11873.0,1534.0,1281.0,"[""paghalad"",""duga"",""ihalas"",""kitovu""]","[""duga"",""ihalas"",""paghalad"",""kitovu""]","[""kitovu"",""duga"",""paghalad"",""ihalas""]","[""ihalas"",""paghalad"",""kitovu"",""duga""]",f,n,n,v,v,n,n,j,duga,paghalad,paghalad,duga,258,352,1043,1122,1,1,0.0,0,0,0,0.5,0.15555555555555556,0.3333333333333333
83,0,towel,kiti,0,0,1,0,0.0,0.25,0.0,0.25,2468,5002,2096,2854,1618.0,1562.0,1263.0,1431.0,"[""abug"",""chaki"",""gabi"",""kiti""]","[""kiti"",""abug"",""gabi"",""chaki""]","[""chaki"",""abug"",""gabi"",""kiti""]","[""chaki"",""kiti"",""gabi"",""abug""]",j,f,j,v,v,n,j,n,chaki,gabi,kiti,gabi,142,319,1051,1180,0,0.25,1.0,-0.25,0.25,0,0.5,0.15555555555555556,0.3333333333333333
84,0,train,agalon,0,1,0,0,0.25,0.0,0.25,0.0,2251,2834,1962,2948,1239.0,1441.0,1063.0,1762.0,"[""ngono"",""sweta"",""agalon"",""dila""]","[""dila"",""ngono"",""agalon"",""sweta""]","[""dila"",""ngono"",""sweta"",""agalon""]","[""ngono"",""agalon"",""dila"",""sweta""]",n,n,j,v,v,n,n,j,sweta,agalon,sweta,sweta,210,550,951,1222,1,0.0,1.0,1.0,1.0,0,0.0,0.15555555555555556,0.3333333333333333
85,0,triangle,kazi,1,1,1,0,0.0,0.0,0.0,0.0,2744,2540,1947,2446,1415.0,1667.0,2115.0,2407.0,"[""kugita"",""kazi"",""bloke"",""mchawi""]","[""mchawi"",""bloke"",""kazi"",""kugita""]","[""bloke"",""mchawi"",""kazi"",""kugita""]","[""kugita"",""kazi"",""mchawi"",""bloke""]",v,n,n,v,v,n,n,n,kazi,kazi,kazi,mchawi,154,424,1029,1084,1,0.0,1.0,1.0,1.0,0,0.5,0.15555555555555556,0.3333333333333333
86,0,wheel,tindashan,1,1,0,0,0.25,0.0,0.0,0.25,2903,1637,1968,1966,1374.0,1582.0,1194.0,1287.0,"[""kisiwa"",""jikoni"",""tindashan"",""haraka""]","[""jikoni"",""haraka"",""tindashan"",""kisiwa""]","[""kisiwa"",""jikoni"",""haraka"",""tindashan""]","[""jikoni"",""haraka"",""kisiwa"",""tindashan""]",n,n,j,j,n,n,n,n,tindashan,tindashan,haraka,kisiwa,228,493,983,1176,1,0.0,1.0,1.0,1.0,0,0.0,0.15555555555555556,0.3333333333333333
87,0,window,kito,0,1,0,0,0.0,1.0,0.0,0.0,2635,2132,1539,2747,1910.0,1911.0,1467.0,1070.0,"[""kito"",""pito"",""chuma"",""estante""]","[""pito"",""chuma"",""kito"",""estante""]","[""kito"",""pito"",""chuma"",""estante""]","[""pito"",""chuma"",""estante"",""kito""]",f,n,f,j,n,n,n,n,chuma,kito,chuma,estante,180,472,1013,1252,1,1,0.0,0,0,0,0.0,0.15555555555555556,0.3333333333333333
88,0,wolf,bafuni,0,1,1,0,0.0,1.0,0.0,0.0,2663,1851,2304,2059,1275.0,1555.0,2963.0,1258.0,"[""lobo"",""bilaska"",""neyemba"",""bafuni""]","[""neyemba"",""lobo"",""bafuni"",""bilaska""]","[""neyemba"",""bafuni"",""lobo"",""bilaska""]","[""neyemba"",""bafuni"",""lobo"",""bilaska""]",j,n,v,v,v,n,v,n,bilaska,bafuni,bafuni,lobo,208,559,971,1218,1,1,0.0,0,0,0,0.5,0.15555555555555556,0.3333333333333333
89,0,woman,madungog,0,1,1,1,0.0,0.0,0.25,0.75,3227,2962,3175,2911,1637.0,2076.0,1336.0,1136.0,"[""guruwe"",""madungog"",""filimbi"",""isda""]","[""isda"",""madungog"",""guruwe"",""filimbi""]","[""filimbi"",""madungog"",""isda"",""guruwe""]","[""madungog"",""guruwe"",""filimbi"",""isda""]",v,v,v,f,n,v,v,f,filimbi,madungog,madungog,madungog,106,520,1065,1174,1,0.0,1.0,1.0,1.0,1,1.0,0.15555555555555556,0.3333333333333333
90,1,apple,kofia,1,1,1,1,1.0,1.0,1.0,1.0,2444,4098,3116,2539,1945.0,1937.0,1730.0,1941.0,"[""jansa"",""pagduol"",""hamsi"",""kofia""]","[""kofia"",""pagduol"",""hamsi"",""jansa""]","[""jansa"",""pagduol"",""kofia"",""hamsi""]","[""hamsi"",""kofia"",""jansa"",""pagduol""]",j,f,n,v,j,f,n,v,kofia,kofia,kofia,kofia,142,538,971,1126,1,1.0,1.0,0.0,0.0,1,1.0,0.4,0.5222222222222223
91,1,banana,wingi,0,0,0,0,0.0,0.0,0.0,0.0,3109,3410,2876,3432,1513.0,1742.0,2350.0,1920.0,"[""wingi"",""ishiri"",""kerida"",""bituin""]","[""kerida"",""ishiri"",""wingi"",""bituin""]","[""wingi"",""kerida"",""ishiri"",""bituin""]","[""kerida"",""bituin"",""wingi"",""ishiri""]",f,n,f,n,v,j,j,v,ishiri,bituin,bituin,bituin,268,349,901,1196,0,0.0,1.0,0.0,0.0,0,0.0,0.4,0.5222222222222223
92,1,bank,napakyas,1,1,1,1,0.0,0.25,0.25,0.5,5249,2301,3036,2414,1971.0,2246.0,1535.0,2185.0,"[""singizi"",""napakyas"",""ulimwengu"",""amani""]","[""ulimwengu"",""napakyas"",""singizi"",""amani""]","[""ulimwengu"",""amani"",""napakyas"",""singizi""]","[""napakyas"",""singizi"",""amani"",""ulimwengu""]",v,v,n,f,v,v,n,f,napakyas,napakyas,napakyas,napakyas,212,505,949,1260,1,0.25,1.0,0.75,0.75,1,1.0,0.4,0.5222222222222223
93,1,basket,mgonjwa,0,0,0,0,0.0,0.0,0.25,0.0,3146,2687,1954,2445,1849.0,1535.0,1615.0,2017.0,"[""kadaot"",""taras"",""chuki"",""mgonjwa""]","[""chuki"",""kadaot"",""taras"",""mgonjwa""]","[""mgonjwa"",""chuki"",""taras"",""kadaot""]","[""taras"",""chuki"",""mgonjwa"",""kadaot""]",j,j,f,n,n,v,v,f,chuki,kadaot,chuki,taras,108,304,1011,1138,0,0.0,1.0,0.0,0.0,0,0.0,0.4,0.5222222222222223
94,1,bed,mechezo,1,1,0,0,0.25,0.5,0.25,0.0,5916,6187,3971,5049,1704.0,1980.0,2446.0,1648.0,"[""awit"",""rombus"",""salita"",""mechezo""]","[""salita"",""mechezo"",""awit"",""rombus""]","[""rombus"",""awit"",""mechezo"",""salita""]","[""salita"",""mechezo"",""rombus"",""awit""]",j,v,n,v,j,v,j,n,mechezo,mechezo,salita,rombus,172,553,1039,1250,1,0.5,1.0,0.5,0.5,0,0.0,0.4,0.5222222222222223
95,1,berry,kemia,0,0,0,0,0.0,0.25,0.0,0.25,2665,4385,1950,2019,1644.0,2313.0,1633.0,1602.0,"[""kemia"",""asili"",""kumbuka"",""hatua""]","[""kumbuka"",""hatua"",""kemia"",""asili""]","[""hatua"",""asili"",""kemia"",""kumbuka""]","[""asili"",""kemia"",""kumbuka"",""hatua""]",f,n,n,v,j,f,v,f,hatua,kumbuka,asili,asili,252,523,1045,1172,0,0.25,1.0,-0.25,0.25,0,0.0,0.4,0.5222222222222223
96,1,boat,tanuri,0,0,0,0,0.0,0.25,0.5,0.5,1703,2412,2648,2493,2188.0,1949.0,2305.0,2218.0,"[""lisud"",""shule"",""tanuri"",""itik""]","[""lisud"",""shule"",""itik"",""tanuri""]","[""tanuri"",""itik"",""lisud"",""shule""]","[""itik"",""tanuri"",""shule"",""lisud""]",n,j,f,v,f,v,j,n,lisud,shule,shule,shule,220,463,1005,1228,0,0.25,1.0,-0.25,0.25,0,0.0,0.4,0.5222222222222223
97,1,body,mali,1,0,0,0,0.75,0.0,0.0,0.0,4624,2501,2946,2141,2171.0,2245.0,1493.0,1679.0,"[""mtawa"",""bunyag"",""ganti"",""mali""]","[""mtawa"",""ganti"",""bunyag"",""mali""]","[""mtawa"",""bunyag"",""mali"",""ganti""]","[""mali"",""bunyag"",""mtawa"",""ganti""]",j,j,n,f,j,n,v,j,mali,bunyag,bunyag,ganti,192,547,1037,1248,0,0.0,1.0,0.0,0.0,0,0.0,0.4,0.5222222222222223
98,1,bonfire,chombo,1,1,1,1,0.75,0.0,0.0,0.75,6744,2966,2135,2857,1917.0,1796.0,1391.0,2137.0,"[""chombo"",""atay"",""pundok"",""kikapu""]","[""pundok"",""chombo"",""kikapu"",""atay""]","[""chombo"",""pundok"",""atay"",""kikapu""]","[""pundok"",""kikapu"",""chombo"",""atay""]",f,v,f,n,f,v,f,n,chombo,chombo,chombo,chombo,154,394,963,1140,1,0.0,1.0,1.0,1.0,1,1.0,0.4,0.5222222222222223
99,1,book,basi,1,1,1,1,0.5,0.25,0.0,1.0,4434,4390,6155,3061,1967.0,1951.0,1519.0,2081.0,"[""nyange"",""hazini"",""baharia"",""basi""]","[""hazini"",""baharia"",""basi"",""nyange""]","[""basi"",""hazini"",""baharia"",""nyange""]","[""nyange"",""baharia"",""basi"",""hazini""]",j,n,f,n,j,n,f,n,basi,basi,basi,basi,190,451,1063,1132,1,0.25,1.0,0.75,0.75,1,1.0,0.4,0.5222222222222223
100,1,box,pangalan,0,0,0,1,0.75,0.5,0.0,0.5,2827,4147,3865,5947,2005.0,2764.0,1891.0,2050.0,"[""welder"",""pangalan"",""pilak"",""ijayo""]","[""welder"",""ijayo"",""pilak"",""pangalan""]","[""pilak"",""ijayo"",""welder"",""pangalan""]","[""ijayo"",""pilak"",""pangalan"",""welder""]",v,j,j,n,n,n,f,n,pilak,pilak,pilak,pangalan,226,361,939,1122,0,0.5,1.0,-0.5,0.5,0,0.5,0.4,0.5222222222222223
101,1,bread,goti,0,1,1,1,0.0,0.5,0.0,0.0,2973,2872,2745,2489,1839.0,1863.0,1572.0,1804.0,"[""kushoto"",""kusanya"",""mzungu"",""goti""]","[""mzungu"",""goti"",""kushoto"",""kusanya""]","[""kusanya"",""goti"",""kushoto"",""mzungu""]","[""mzungu"",""kushoto"",""goti"",""kusanya""]",j,v,v,n,n,v,v,n,mzungu,goti,goti,goti,278,421,919,1198,1,0.5,1.0,0.5,0.5,1,1.0,0.4,0.5222222222222223
102,1,bridge,bega,0,0,0,0,0.25,0.0,0.0,0.0,2975,2553,3447,2503,2486.0,1605.0,2520.0,1865.0,"[""takatak"",""barua"",""bega"",""mvringo""]","[""takatak"",""barua"",""bega"",""mvringo""]","[""bega"",""takatak"",""barua"",""mvringo""]","[""barua"",""takatak"",""bega"",""mvringo""]",n,n,f,n,j,v,j,j,mvringo,barua,mvringo,mvringo,246,376,997,1166,0,0.0,1.0,0.0,0.0,0,0.0,0.4,0.5222222222222223
103,1,bucket,katuyoan,0,1,0,0,0.25,0.0,0.0,0.0,2917,3197,2638,2743,1914.0,1770.0,1816.0,1854.0,"[""katuyoan"",""bugas"",""mageho"",""ndoora""]","[""bugas"",""ndoora"",""mageho"",""katuyoan""]","[""ndoora"",""bugas"",""mageho"",""katuyoan""]","[""ndoora"",""katuyoan"",""mageho"",""bugas""]",f,j,j,v,n,j,n,j,mageho,katuyoan,mageho,bugas,238,436,1049,1236,1,0.0,1.0,1.0,1.0,0,0.0,0.4,0.5222222222222223
104,1,candle,sensilyo,1,1,1,1,1.0,1.0,1.0,1.0,2462,1731,1985,2100,1896.0,2262.0,1801.0,1672.0,"[""rafiki"",""dakika"",""liog"",""sensilyo""]","[""dakika"",""rafiki"",""liog"",""sensilyo""]","[""dakika"",""rafiki"",""sensilyo"",""liog""]","[""sensilyo"",""liog"",""rafiki"",""dakika""]",j,j,n,f,j,j,n,f,sensilyo,sensilyo,sensilyo,sensilyo,204,385,977,1090,1,1.0,1.0,0.0,0.0,1,1.0,0.4,0.5222222222222223
105,1,cat,martilyo,0,1,1,1,0.25,1.0,1.0,1.0,3420,3134,3336,2583,1851.0,2280.0,2017.0,1637.0,"[""martilyo"",""umaga"",""ndezu"",""nchi""]","[""martilyo"",""nchi"",""ndezu"",""umaga""]","[""ndezu"",""nchi"",""umaga"",""martilyo""]","[""ndezu"",""nchi"",""martilyo"",""umaga""]",f,f,j,n,v,f,j,n,umaga,martilyo,martilyo,martilyo,110,343,1013,1152,1,1,0.0,0,0,1,1.0,0.4,0.5222222222222223
106,1,cave,sabuni,1,0,1,0,0.0,0.25,0.25,0.0,3271,4587,3278,4435,3522.0,1894.0,1626.0,1631.0,"[""kidole"",""sabuni"",""dagat"",""mtirka""]","[""dagat"",""mtirka"",""sabuni"",""kidole""]","[""kidole"",""sabuni"",""mtirka"",""dagat""]","[""kidole"",""dagat"",""sabuni"",""mtirka""]",v,n,v,n,v,j,v,v,sabuni,kidole,sabuni,dagat,162,439,987,1082,0,0.25,1.0,-0.25,0.25,0,0.5,0.4,0.5222222222222223
107,1,ceiling,jiwe,0,0,0,0,0.25,0.25,0.0,0.0,6008,4515,3182,3670,1624.0,1700.0,2345.0,1979.0,"[""kaso"",""nyundo"",""jiwe"",""nyeusi""]","[""kaso"",""nyundo"",""jiwe"",""nyeusi""]","[""nyundo"",""nyeusi"",""kaso"",""jiwe""]","[""nyeusi"",""nyundo"",""jiwe"",""kaso""]",n,n,j,n,f,j,v,v,kaso,nyeusi,nyeusi,nyundo,126,478,955,1086,0,0.25,1.0,-0.25,0.25,0,0.0,0.4,0.5222222222222223
108,1,cigar,buli,1,1,0,0,0.0,0.0,0.0,0.0,2158,3727,2090,2147,1419.0,1900.0,1488.0,2106.0,"[""iring"",""buli"",""nyundu"",""hari""]","[""buli"",""nyundu"",""hari"",""iring""]","[""buli"",""iring"",""hari"",""nyundu""]","[""buli"",""hari"",""nyundu"",""iring""]",v,f,f,f,v,f,v,v,buli,buli,iring,hari,248,310,933,1158,1,0.0,1.0,1.0,1.0,0,0.0,0.4,0.5222222222222223
109,1,clock,kisu,0,1,1,1,0.5,1.0,1.0,1.0,2606,2001,3090,2706,2129.0,2006.0,1669.0,1384.0,"[""mlango"",""mkate"",""kisu"",""daima""]","[""kisu"",""mlango"",""daima"",""mkate""]","[""kisu"",""mkate"",""daima"",""mlango""]","[""mlango"",""daima"",""mkate"",""kisu""]",n,f,f,j,v,f,f,j,mkate,kisu,kisu,kisu,158,418,1043,1106,1,1,0.0,0,0,1,1.0,0.4,0.5222222222222223
110,1,coffin,uyoga,1,1,0,1,0.5,0.25,0.0,1.0,5417,3138,2777,2845,2191.0,1476.0,2014.0,1801.0,"[""kamantis"",""uyoga"",""kamba"",""soko""]","[""soko"",""kamba"",""uyoga"",""kamantis""]","[""soko"",""kamba"",""kamantis"",""uyoga""]","[""kamantis"",""soko"",""uyoga"",""kamba""]",v,n,j,n,v,n,v,n,uyoga,uyoga,kamba,uyoga,236,382,911,1142,1,0.25,1.0,0.75,0.75,0,0.5,0.4,0.5222222222222223
111,1,column,baiski,0,1,1,1,0.0,1.0,0.75,0.5,2016,2728,5156,5098,1634.0,1732.0,1910.0,2454.0,"[""baho"",""goma"",""kununa"",""baiski""]","[""baho"",""baiski"",""kununa"",""goma""]","[""baho"",""kununa"",""goma"",""baiski""]","[""kununa"",""baiski"",""baho"",""goma""]",j,v,j,v,v,v,j,v,goma,baiski,baiski,baiski,218,541,935,1174,1,1,0.0,0,0,1,1.0,0.4,0.5222222222222223
112,1,cop,mbwa,0,1,1,0,0.0,1.0,0.25,0.25,4847,2045,4693,4078,1635.0,2104.0,1966.0,1888.0,"[""kawaida"",""mbwa"",""ndugu"",""ukweli""]","[""kawaida"",""ukweli"",""ndugu"",""mbwa""]","[""ndugu"",""kawaida"",""ukweli"",""mbwa""]","[""kawaida"",""ndugu"",""ukweli"",""mbwa""]",v,j,j,j,n,j,j,v,ndugu,mbwa,mbwa,ndugu,186,328,1069,1124,1,1,0.0,0,0,0,0.5,0.4,0.5222222222222223
113,1,cup,pagpalit,0,0,0,1,0.0,0.0,0.0,0.25,2092,1988,3657,3147,4011.0,1624.0,1500.0,1521.0,"[""kila"",""pagpalit"",""tamasha"",""jeraha""]","[""jeraha"",""tamasha"",""kila"",""pagpalit""]","[""tamasha"",""pagpalit"",""jeraha"",""kila""]","[""jeraha"",""tamasha"",""kila"",""pagpalit""]",v,j,v,j,j,v,j,j,jeraha,tamasha,kila,pagpalit,274,442,1021,1200,0,0.0,1.0,0.0,0.0,0,0.5,0.4,0.5222222222222223
114,1,curtain,adui,1,0,0,1,0.25,0.0,0.0,0.0,7283,5086,2730,1715,2008.0,3592.0,2093.0,1596.0,"[""nanga"",""kijiko"",""mkboa"",""adui""]","[""mkboa"",""nanga"",""adui"",""kijiko""]","[""adui"",""nanga"",""mkboa"",""kijiko""]","[""nanga"",""adui"",""kijiko"",""mkboa""]",j,n,f,v,j,f,j,v,adui,mkboa,kijiko,adui,160,307,903,1168,0,0.0,1.0,0.0,0.0,0,0.5,0.4,0.5222222222222223
115,1,dog,kumba,1,1,1,1,0.75,1.0,1.0,1.0,7318,3016,4959,4041,2147.0,2308.0,1819.0,2015.0,"[""kumba"",""liso"",""mkasi"",""wakala""]","[""kumba"",""wakala"",""liso"",""mkasi""]","[""mkasi"",""kumba"",""liso"",""wakala""]","[""liso"",""kumba"",""mkasi"",""wakala""]",f,f,v,v,f,f,v,v,kumba,kumba,kumba,kumba,228,460,991,1242,1,1,0.0,0,0,1,1.0,0.4,0.5222222222222223
116,1,donkey,tuburan,0,0,1,0,0.0,0.25,0.0,0.25,3121,4186,3901,3163,1918.0,1757.0,1891.0,1715.0,"[""ndogo"",""washia"",""bala"",""tuburan""]","[""washia"",""ndogo"",""tuburan"",""bala""]","[""washia"",""tuburan"",""bala"",""ndogo""]","[""tuburan"",""bala"",""washia"",""ndogo""]",j,n,v,f,n,v,v,v,bala,ndogo,tuburan,bala,130,508,931,1218,0,0.25,1.0,-0.25,0.25,0,0.5,0.4,0.5222222222222223
117,1,door,haki,1,0,0,0,0.25,0.0,0.0,0.0,6944,2684,2713,2063,1724.0,1699.0,1413.0,1717.0,"[""punda"",""ishara"",""haki"",""tualya""]","[""ishara"",""punda"",""haki"",""tualya""]","[""ishara"",""haki"",""tualya"",""punda""]","[""punda"",""tualya"",""haki"",""ishara""]",n,n,v,n,n,v,n,f,haki,punda,tualya,punda,202,430,983,1226,0,0.0,1.0,0.0,0.0,0,0.0,0.4,0.5222222222222223
118,1,eel,mchanga,1,1,1,1,0.75,1.0,1.0,1.0,3554,2933,3648,3983,2571.0,1681.0,1721.0,1605.0,"[""dizeli"",""sufuria"",""kalipay"",""mchanga""]","[""mchanga"",""sufuria"",""dizeli"",""kalipay""]","[""dizeli"",""mchanga"",""kalipay"",""sufuria""]","[""mchanga"",""sufuria"",""dizeli"",""kalipay""]",j,f,v,f,j,f,v,f,mchanga,mchanga,mchanga,mchanga,124,568,989,1094,1,1,0.0,0,0,1,1.0,0.4,0.5222222222222223
119,1,elephant,lugha,1,1,1,1,1.0,1.0,1.0,1.0,3510,3871,1702,1764,2252.0,1725.0,1786.0,2395.0,"[""lugha"",""lamigas"",""kama"",""kuzama""]","[""lugha"",""kuzama"",""kama"",""lamigas""]","[""lugha"",""kuzama"",""kama"",""lamigas""]","[""lugha"",""kama"",""lamigas"",""kuzama""]",f,f,f,f,f,f,f,f,lugha,lugha,lugha,lugha,114,370,1057,1210,1,1.0,1.0,0.0,0.0,1,1.0,0.4,0.5222222222222223
120,1,finger,ufagio,1,1,1,1,1.0,1.0,1.0,1.0,4462,2421,3464,4606,1826.0,1792.0,1922.0,3115.0,"[""mvuke"",""mwanga"",""ufagio"",""mwanake""]","[""mwanake"",""mvuke"",""mwanga"",""ufagio""]","[""mvuke"",""ufagio"",""mwanga"",""mwanake""]","[""mwanga"",""mvuke"",""ufagio"",""mwanake""]",n,j,v,n,n,j,v,n,ufagio,ufagio,ufagio,ufagio,254,391,1047,1202,1,1.0,1.0,0.0,0.0,1,1.0,0.4,0.5222222222222223
121,1,fish,pagtawag,1,1,1,1,1.0,1.0,1.0,1.0,4134,2428,2049,1708,1783.0,1954.0,1779.0,1910.0,"[""kanding"",""pagtawag"",""jibini"",""kasuko""]","[""pagtawag"",""kanding"",""kasuko"",""jibini""]","[""kasuko"",""kanding"",""pagtawag"",""jibini""]","[""kasuko"",""kanding"",""jibini"",""pagtawag""]",v,f,n,j,v,f,n,j,pagtawag,pagtawag,pagtawag,pagtawag,260,301,1009,1190,1,1.0,1.0,0.0,0.0,1,1.0,0.4,0.5222222222222223
122,1,flag,kiatu,0,0,0,1,0.25,0.5,0.0,0.0,4786,3011,1853,1743,1655.0,1789.0,1656.0,1819.0,"[""mpishi"",""kiatu"",""init"",""betri""]","[""betri"",""init"",""mpishi"",""kiatu""]","[""mpishi"",""kiatu"",""init"",""betri""]","[""mpishi"",""betri"",""init"",""kiatu""]",v,j,v,j,j,v,j,j,betri,init,betri,kiatu,148,499,951,1238,0,0.5,1.0,-0.5,0.5,0,0.5,0.4,0.5222222222222223
123,1,flower,maji,0,0,0,1,0.0,0.0,0.25,0.5,2930,4045,2549,3718,1700.0,1942.0,1583.0,1738.0,"[""maji"",""rayna"",""kartasi"",""kabuang""]","[""maji"",""rayna"",""kartasi"",""kabuang""]","[""rayna"",""kartasi"",""kabuang"",""maji""]","[""rayna"",""maji"",""kabuang"",""kartasi""]",f,f,j,v,j,n,n,v,kabuang,kartasi,kabuang,maji,242,364,907,1216,0,0.0,1.0,0.0,0.0,0,0.5,0.4,0.5222222222222223
124,1,fork,geza,1,1,1,0,0.25,1.0,0.0,0.0,2433,6373,2153,4020,1733.0,2380.0,1440.0,1765.0,"[""paghago"",""kengele"",""geza"",""mraba""]","[""mraba"",""geza"",""paghago"",""kengele""]","[""mraba"",""paghago"",""kengele"",""geza""]","[""geza"",""kengele"",""mraba"",""paghago""]",n,v,j,f,n,v,j,v,geza,geza,geza,kengele,136,514,1033,1150,1,1,0.0,0,0,0,0.5,0.4,0.5222222222222223
125,1,gift,sahani,0,0,0,0,0.0,0.25,0.25,0.25,3470,7329,3162,4060,1990.0,1951.0,1435.0,2380.0,"[""chupa"",""tumbo"",""kihozi"",""sahani""]","[""sahani"",""chupa"",""tumbo"",""kihozi""]","[""tumbo"",""sahani"",""kihozi"",""chupa""]","[""tumbo"",""kihozi"",""chupa"",""sahani""]",j,f,v,j,n,j,n,n,kihozi,kihozi,kihozi,chupa,152,415,957,1144,0,0.25,1.0,-0.25,0.25,0,0.0,0.4,0.5222222222222223
126,1,giraffe,duka,0,0,0,1,0.0,0.0,0.0,0.0,3611,3980,3079,3633,2600.0,2091.0,1541.0,2103.0,"[""picha"",""kalamu"",""asin"",""duka""]","[""kalamu"",""duka"",""asin"",""picha""]","[""picha"",""duka"",""asin"",""kalamu""]","[""asin"",""duka"",""picha"",""kalamu""]",j,v,v,v,v,n,n,v,kalamu,asin,asin,duka,208,427,913,1156,0,0.0,1.0,0.0,0.0,0,0.5,0.4,0.5222222222222223
127,1,hammer,pagsulod,0,0,0,0,0.0,0.0,0.0,0.25,3041,3983,2369,2703,1830.0,2258.0,2128.0,1926.0,"[""pagsulod"",""pombe"",""seri"",""tambok""]","[""tambok"",""pagsulod"",""pombe"",""seri""]","[""seri"",""pagsulod"",""pombe"",""tambok""]","[""pombe"",""pagsulod"",""seri"",""tambok""]",f,v,v,v,j,f,j,j,tambok,tambok,tambok,tambok,256,367,947,1154,0,0.0,1.0,0.0,0.0,0,0.0,0.4,0.5222222222222223
128,1,hill,matumai,0,0,0,0,0.0,0.25,0.0,0.0,4436,4122,2520,5092,2152.0,1527.0,1844.0,1469.0,"[""lalake"",""mwezi"",""luha"",""matumai""]","[""lalake"",""matumai"",""luha"",""mwezi""]","[""mwezi"",""lalake"",""luha"",""matumai""]","[""matumai"",""mwezi"",""luha"",""lalake""]",j,v,j,f,v,n,n,j,mwezi,luha,luha,lalake,106,433,917,1096,0,0.25,1.0,-0.25,0.25,0,0.0,0.4,0.5222222222222223
129,1,human,surali,1,1,1,0,0.5,0.25,0.0,0.0,4469,5088,3353,2764,2578.0,1836.0,1903.0,1561.0,"[""surali"",""suga"",""baso"",""uadui""]","[""uadui"",""baso"",""surali"",""suga""]","[""baso"",""suga"",""surali"",""uadui""]","[""suga"",""surali"",""baso"",""uadui""]",f,n,n,v,f,n,n,n,surali,surali,surali,baso,184,340,943,1182,1,0.25,1.0,0.75,0.75,0,0.5,0.4,0.5222222222222223
130,1,key,kesho,1,1,1,1,0.75,1.0,0.25,0.5,3453,3327,1873,1611,2867.0,2052.0,1768.0,1587.0,"[""kimysa"",""kesho"",""mungu"",""baadaye""]","[""baadaye"",""kimysa"",""kesho"",""mungu""]","[""mungu"",""baadaye"",""kimysa"",""kesho""]","[""baadaye"",""mungu"",""kimysa"",""kesho""]",v,n,j,j,v,n,j,j,kesho,kesho,kesho,kesho,140,379,1025,1188,1,1.0,1.0,0.0,0.0,1,1.0,0.4,0.5222222222222223
131,1,knee,hofu,0,0,0,1,0.25,0.25,0.25,0.0,4066,2360,3571,3937,1917.0,1549.0,1599.0,1615.0,"[""hofu"",""rangi"",""tena"",""nopya""]","[""hofu"",""nopya"",""tena"",""rangi""]","[""nopya"",""rangi"",""tena"",""hofu""]","[""tena"",""hofu"",""rangi"",""nopya""]",f,f,j,v,n,n,v,v,tena,tena,rangi,hofu,222,397,965,1114,0,0.25,1.0,-0.25,0.25,0,0.5,0.4,0.5222222222222223
132,1,ladder,trekta,1,1,1,1,1.0,1.0,1.0,1.0,4577,2000,2760,1819,1969.0,2569.0,1662.0,1902.0,"[""trekta"",""baki"",""ndege"",""miaka""]","[""trekta"",""miaka"",""ndege"",""baki""]","[""ndege"",""baki"",""trekta"",""miaka""]","[""trekta"",""miaka"",""ndege"",""baki""]",f,f,n,f,f,f,n,f,trekta,trekta,trekta,trekta,258,448,929,1258,1,1.0,1.0,0.0,0.0,1,1.0,0.4,0.5222222222222223
133,1,lamp,elfu,1,1,1,1,1.0,1.0,1.0,1.0,2705,2009,1823,1808,2101.0,1776.0,2202.0,1827.0,"[""bulwawan"",""kujenga"",""elfu"",""maisha""]","[""elfu"",""kujenga"",""bulwawan"",""maisha""]","[""maisha"",""bulwawan"",""kujenga"",""elfu""]","[""bulwawan"",""maisha"",""kujenga"",""elfu""]",n,f,j,j,n,f,j,j,elfu,elfu,elfu,elfu,198,325,899,1084,1,1.0,1.0,0.0,0.0,1,1.0,0.4,0.5222222222222223
134,1,letter,ugomvi,0,1,0,0,0.0,0.0,0.25,0.0,4304,3737,3021,3805,2003.0,2074.0,1580.0,1658.0,"[""ugomvi"",""akili"",""fedha"",""kuta""]","[""fedha"",""ugomvi"",""kuta"",""akili""]","[""ugomvi"",""fedha"",""akili"",""kuta""]","[""akili"",""kuta"",""ugomvi"",""fedha""]",f,v,f,n,v,v,j,v,akili,ugomvi,kuta,kuta,200,355,1073,1240,1,0.0,1.0,1.0,1.0,0,0.0,0.4,0.5222222222222223
135,1,list,mapintas,0,0,0,0,0.0,0.0,0.25,0.25,2744,2619,2662,2492,1645.0,1786.0,1582.0,1679.0,"[""gundi"",""mapintas"",""usiku"",""choori""]","[""gundi"",""choori"",""mapintas"",""usiku""]","[""gundi"",""mapintas"",""usiku"",""choori""]","[""usiku"",""choori"",""gundi"",""mapintas""]",v,n,v,j,j,v,j,v,choori,choori,choori,choori,264,409,953,1088,0,0.0,1.0,0.0,0.0,0,0.0,0.4,0.5222222222222223
136,1,magazine,afya,0,0,0,0,0.0,0.0,0.25,0.25,3567,2517,4012,3187,1803.0,1558.0,1513.0,1716.0,"[""kupanda"",""afya"",""ngazi"",""lubi""]","[""kupanda"",""ngazi"",""afya"",""lubi""]","[""ngazi"",""kupanda"",""lubi"",""afya""]","[""ngazi"",""kupanda"",""afya"",""lubi""]",v,n,j,n,n,v,n,j,ngazi,ngazi,lubi,lubi,122,493,945,1162,0,0.0,1.0,0.0,0.0,0,0.0,0.4,0.5222222222222223
137,1,marker,silingan,0,0,1,1,0.0,0.0,0.5,1.0,2644,4925,4525,3993,1689.0,2057.0,1861.0,1654.0,"[""tawo"",""mekno"",""silingan"",""alizeti""]","[""alizeti"",""silingan"",""mekno"",""tawo""]","[""tawo"",""alizeti"",""mekno"",""silingan""]","[""silingan"",""tawo"",""alizeti"",""mekno""]",n,v,j,f,v,j,j,f,mekno,tawo,silingan,silingan,178,556,1067,1092,0,0.0,1.0,0.0,0.0,1,1.0,0.4,0.5222222222222223
138,1,mirror,pagtukod,0,0,0,1,0.0,0.0,0.0,0.0,1968,2583,4486,3241,1660.0,1858.0,2455.0,1637.0,"[""bungtod"",""edad"",""tubag"",""pagtukod""]","[""pagtukod"",""tubag"",""bungtod"",""edad""]","[""bungtod"",""tubag"",""pagtukod"",""edad""]","[""edad"",""tubag"",""pagtukod"",""bungtod""]",j,f,n,n,v,v,v,n,edad,tubag,tubag,pagtukod,194,481,1071,1128,0,0.0,1.0,0.0,0.0,0,0.5,0.4,0.5222222222222223
139,1,mosquito,mkuu,1,1,1,1,1.0,1.0,1.0,1.0,3792,2295,2390,2553,2061.0,1983.0,2555.0,1869.0,"[""mdudu"",""mkuu"",""imani"",""funzi""]","[""funzi"",""mkuu"",""mdudu"",""imani""]","[""mkuu"",""funzi"",""imani"",""mdudu""]","[""mdudu"",""mkuu"",""imani"",""funzi""]",v,v,f,v,v,v,f,v,mkuu,mkuu,mkuu,mkuu,164,346,969,1186,1,1,0.0,0,0,1,1.0,0.4,0.5222222222222223
140,1,mother,kubwa,1,1,1,1,1.0,1.0,1.0,1.0,5603,3853,2716,2825,2052.0,1960.0,1939.0,1974.0,"[""mchuzi"",""bendi"",""karon"",""kubwa""]","[""mchuzi"",""bendi"",""kubwa"",""karon""]","[""karon"",""mchuzi"",""kubwa"",""bendi""]","[""bendi"",""karon"",""mchuzi"",""kubwa""]",j,n,n,j,j,n,n,j,kubwa,kubwa,kubwa,kubwa,196,337,1027,1230,1,1.0,1.0,0.0,0.0,1,1.0,0.4,0.5222222222222223
141,1,nose,mahitabo,0,1,0,0,0.0,1.0,0.0,0.0,3223,2811,2447,2853,1777.0,1897.0,1636.0,2993.0,"[""gubat"",""kaburi"",""mahitabo"",""daub""]","[""mahitabo"",""gubat"",""daub"",""kaburi""]","[""gubat"",""mahitabo"",""daub"",""kaburi""]","[""mahitabo"",""gubat"",""daub"",""kaburi""]",n,f,v,f,v,f,j,j,kaburi,mahitabo,kaburi,kaburi,132,559,1035,1118,1,1,0.0,0,0,0,0.0,0.4,0.5222222222222223
142,1,notebook,mamba,1,1,1,1,0.75,1.0,1.0,1.0,6296,6763,2164,3681,3098.0,1716.0,1905.0,1863.0,"[""mamba"",""nyota"",""kopa"",""petye""]","[""kopa"",""nyota"",""mamba"",""petye""]","[""mamba"",""petye"",""nyota"",""kopa""]","[""nyota"",""kopa"",""petye"",""mamba""]",f,n,f,j,f,n,f,j,mamba,mamba,mamba,mamba,270,520,923,1232,1,1.0,1.0,0.0,0.0,1,1.0,0.4,0.5222222222222223
143,1,number,sulagma,0,0,0,0,0.0,0.0,0.0,0.0,3209,3913,2836,2471,1984.0,1775.0,1923.0,2207.0,"[""hagdan"",""sulagma"",""twai"",""kunywa""]","[""kunywa"",""sulagma"",""twai"",""hagdan""]","[""twai"",""kunywa"",""sulagma"",""hagdan""]","[""hagdan"",""kunywa"",""sulagma"",""twai""]",v,v,n,n,j,f,v,v,kunywa,kunywa,kunywa,kunywa,168,403,1053,1098,0,0.0,1.0,0.0,0.0,0,0.0,0.4,0.5222222222222223
144,1,office,kifua,0,1,1,0,0.0,1.0,0.0,0.0,2537,3307,3127,4452,1763.0,2018.0,1464.0,1555.0,"[""kifua"",""jumatu"",""bentaha"",""kubale""]","[""kifua"",""jumatu"",""bentaha"",""kubale""]","[""jumatu"",""kubale"",""bentaha"",""kifua""]","[""jumatu"",""bentaha"",""kifua"",""kubale""]",f,f,j,n,n,f,j,v,bentaha,kifua,kifua,bentaha,118,526,1075,1164,1,1,0.0,0,0,0,0.5,0.4,0.5222222222222223
145,1,olive,bunifu,0,1,1,1,0.0,0.75,0.75,0.75,2713,4523,3620,5013,1852.0,2180.0,1674.0,2225.0,"[""pwani"",""bunifu"",""punguza"",""mfuko""]","[""punguza"",""pwani"",""bunifu"",""mfuko""]","[""mfuko"",""pwani"",""bunifu"",""punguza""]","[""punguza"",""mfuko"",""pwani"",""bunifu""]",v,n,n,j,f,n,n,j,pwani,bunifu,bunifu,bunifu,134,373,1041,1214,1,0.75,1.0,0.25,0.25,1,1.0,0.4,0.5222222222222223
146,1,page,wimbo,0,0,0,1,0.0,0.0,0.0,0.0,4497,5126,4366,3338,2120.0,1966.0,1479.0,1725.0,"[""furaha"",""wimbo"",""kasamok"",""nogozi""]","[""kasamok"",""wimbo"",""furaha"",""nogozi""]","[""kasamok"",""nogozi"",""wimbo"",""furaha""]","[""wimbo"",""kasamok"",""furaha"",""nogozi""]",v,v,n,f,j,j,j,f,nogozi,nogozi,furaha,wimbo,150,316,1051,1192,0,0.0,1.0,0.0,0.0,0,0.5,0.4,0.5222222222222223
147,1,pants,bililhon,0,0,1,0,0.0,0.0,0.0,0.25,3502,3580,2088,1830,1772.0,2238.0,1539.0,1537.0,"[""lamok"",""kuhesa"",""bililhon"",""kudhibi""]","[""kuhesa"",""lamok"",""kudhibi"",""bililhon""]","[""lamok"",""bililhon"",""kudhibi"",""kuhesa""]","[""lamok"",""kuhesa"",""bililhon"",""kudhibi""]",n,j,v,n,v,n,v,v,kuhesa,kudhibi,bililhon,kuhesa,146,334,937,1256,0,0.0,1.0,0.0,0.0,0,0.5,0.4,0.5222222222222223
148,1,park,moyo,0,0,0,0,0.0,0.25,0.0,0.25,2600,5258,3450,2302,1724.0,2375.0,1641.0,2128.0,"[""moyo"",""siagi"",""suka"",""hasira""]","[""suka"",""siagi"",""moyo"",""hasira""]","[""siagi"",""hasira"",""moyo"",""suka""]","[""siagi"",""suka"",""moyo"",""hasira""]",f,n,n,n,n,v,j,v,suka,siagi,suka,suka,250,550,1023,1254,0,0.25,1.0,-0.25,0.25,0,0.0,0.4,0.5222222222222223
149,1,perfume,mundamo,1,1,1,1,0.25,1.0,1.0,0.75,5956,1612,3726,3454,2217.0,2373.0,1783.0,1739.0,"[""mundamo"",""tembo"",""uhuru"",""silya""]","[""mundamo"",""uhuru"",""silya"",""tembo""]","[""mundamo"",""tembo"",""silya"",""uhuru""]","[""uhuru"",""tembo"",""silya"",""mundamo""]",f,f,f,j,f,f,f,j,mundamo,mundamo,mundamo,mundamo,176,469,961,1208,1,1,0.0,0,0,1,1.0,0.4,0.5222222222222223
150,1,picture,msumari,0,1,1,1,0.0,1.0,0.75,1.0,3032,1725,4775,3836,2305.0,1996.0,1899.0,2033.0,"[""bata"",""bandari"",""msumari"",""kelele""]","[""bata"",""kelele"",""bandari"",""msumari""]","[""msumari"",""kelele"",""bata"",""bandari""]","[""msumari"",""bata"",""bandari"",""kelele""]",n,j,f,f,v,j,f,f,bandari,msumari,msumari,msumari,230,400,915,1108,1,1,0.0,0,0,1,1.0,0.4,0.5222222222222223
151,1,poster,leso,1,1,1,1,0.0,1.0,1.0,1.0,4644,2274,2461,3200,1876.0,1933.0,1430.0,1972.0,"[""mbolea"",""mapafu"",""leso"",""kichwa""]","[""kichwa"",""mbolea"",""leso"",""mapafu""]","[""kichwa"",""mbolea"",""mapafu"",""leso""]","[""mapafu"",""mbolea"",""leso"",""kichwa""]",n,n,j,n,n,n,j,n,leso,leso,leso,leso,240,484,967,1120,1,1,0.0,0,0,1,1.0,0.4,0.5222222222222223
152,1,pudding,adhabu,0,1,0,0,0.0,0.0,0.0,0.0,2759,2281,3287,2836,1719.0,1615.0,1995.0,1643.0,"[""adhabu"",""ndaniya"",""osha"",""baba""]","[""baba"",""osha"",""adhabu"",""ndaniya""]","[""ndaniya"",""baba"",""osha"",""adhabu""]","[""adhabu"",""ndaniya"",""baba"",""osha""]",f,n,j,f,j,n,v,j,baba,adhabu,baba,osha,166,544,1055,1100,1,0.0,1.0,1.0,1.0,0,0.0,0.4,0.5222222222222223
153,1,puppet,sehemu,1,1,1,1,0.75,1.0,1.0,1.0,6453,3648,3622,3179,1951.0,1857.0,1721.0,1688.0,"[""sehemu"",""starehe"",""chubani"",""kahawa""]","[""sehemu"",""kahawa"",""starehe"",""chubani""]","[""starehe"",""kahawa"",""sehemu"",""chubani""]","[""kahawa"",""starehe"",""sehemu"",""chubani""]",f,f,n,n,f,f,n,n,sehemu,sehemu,sehemu,sehemu,144,562,1059,1134,1,1.0,1.0,0.0,0.0,1,1.0,0.4,0.5222222222222223
154,1,rose,bahari,0,1,0,1,0.0,0.0,0.0,0.0,3649,2628,2906,2688,1787.0,2073.0,1523.0,2037.0,"[""bahari"",""kawa"",""napulo"",""jokofu""]","[""jokofu"",""bahari"",""napulo"",""kawa""]","[""bahari"",""napulo"",""kawa"",""jokofu""]","[""kawa"",""napulo"",""jokofu"",""bahari""]",f,v,f,j,n,v,j,j,napulo,bahari,jokofu,bahari,214,454,921,1206,1,0.0,1.0,1.0,1.0,0,0.5,0.4,0.5222222222222223
155,1,salmon,kweli,0,0,0,0,0.0,0.5,0.25,0.0,7448,6073,3408,3364,1992.0,2177.0,2626.0,1930.0,"[""lima"",""pahiyum"",""kweli"",""simu""]","[""pahiyum"",""simu"",""lima"",""kweli""]","[""kweli"",""pahiyum"",""lima"",""simu""]","[""simu"",""kweli"",""pahiyum"",""lima""]",n,j,f,v,f,v,n,f,lima,simu,lima,simu,138,487,909,1170,0,0.5,1.0,-0.5,0.5,0,0.0,0.4,0.5222222222222223
156,1,scissors,tinapay,0,1,1,1,0.0,0.25,0.0,0.25,3273,3292,2235,2436,1988.0,1757.0,1488.0,2042.0,"[""pintal"",""tinapay"",""gorisi"",""kinywa""]","[""pintal"",""tinapay"",""kinywa"",""gorisi""]","[""kinywa"",""tinapay"",""gorisi"",""pintal""]","[""pintal"",""tinapay"",""gorisi"",""kinywa""]",v,v,v,v,n,v,v,v,gorisi,tinapay,tinapay,tinapay,182,424,1031,1148,1,0.25,1.0,0.75,0.75,1,1.0,0.4,0.5222222222222223
157,1,sheet,pagtabon,0,0,1,1,0.0,0.0,0.0,1.0,5899,3320,2677,3744,1982.0,2822.0,1600.0,1498.0,"[""bado"",""uongo"",""pagtabon"",""hulma""]","[""bado"",""uongo"",""pagtabon"",""hulma""]","[""bado"",""hulma"",""pagtabon"",""uongo""]","[""hulma"",""bado"",""pagtabon"",""uongo""]",n,n,n,n,f,j,n,n,bado,hulma,pagtabon,pagtabon,116,490,995,1136,0,0.0,1.0,0.0,0.0,1,1.0,0.4,0.5222222222222223
158,1,shelf,kamwe,0,0,0,1,0.0,0.0,0.0,0.0,5280,3342,2609,2199,2698.0,1829.0,1740.0,1652.0,"[""kamwe"",""mahugaw"",""kitande"",""layag""]","[""kitande"",""layag"",""kamwe"",""mahugaw""]","[""kitande"",""layag"",""kamwe"",""mahugaw""]","[""kitande"",""mahugaw"",""layag"",""kamwe""]",f,n,n,j,v,v,v,j,mahugaw,layag,layag,kamwe,128,358,905,1224,0,0.0,1.0,0.0,0.0,0,0.5,0.4,0.5222222222222223
159,1,shoe,kabalaka,1,1,0,0,0.0,1.0,0.0,0.75,4012,3514,3485,3280,2124.0,2116.0,1802.0,1703.0,"[""juuya"",""godoro"",""abogado"",""kabalaka""]","[""juuya"",""godoro"",""kabalaka"",""abogado""]","[""godoro"",""abogado"",""kabalaka"",""juuya""]","[""abogado"",""kabalaka"",""juuya"",""godoro""]",j,n,n,v,j,n,v,f,kabalaka,kabalaka,abogado,abogado,282,535,1019,1180,1,1,0.0,0,0,0,0.0,0.4,0.5222222222222223
160,1,shop,mvua,1,0,0,0,0.0,0.25,0.0,0.0,2695,3466,3220,4143,1878.0,1864.0,2505.0,1713.0,"[""kuacha"",""mvua"",""shimoni"",""sungura""]","[""sungura"",""kuacha"",""mvua"",""shimoni""]","[""sungura"",""shimoni"",""mvua"",""kuacha""]","[""mvua"",""kuacha"",""sungura"",""shimoni""]",v,n,n,f,v,j,j,v,mvua,shimoni,kuacha,kuacha,188,496,973,1194,0,0.25,1.0,-0.25,0.25,0,0.0,0.4,0.5222222222222223
161,1,shoulder,babaye,1,1,1,1,0.75,0.5,0.75,0.75,6161,3814,3020,2093,2479.0,1675.0,1948.0,1535.0,"[""babaye"",""kovuli"",""kitanda"",""katika""]","[""babaye"",""katika"",""kitanda"",""kovuli""]","[""babaye"",""kitanda"",""kovuli"",""katika""]","[""kovuli"",""katika"",""babaye"",""kitanda""]",f,f,f,n,f,f,f,n,babaye,babaye,babaye,babaye,234,445,1015,1102,1,0.5,1.0,0.5,0.5,1,1.0,0.4,0.5222222222222223
162,1,snake,maua,0,0,0,0,0.75,0.0,0.25,0.75,3721,7118,3553,3049,1907.0,1927.0,2278.0,2046.0,"[""panya"",""mbuzi"",""maua"",""atop""]","[""mbuzi"",""atop"",""panya"",""maua""]","[""atop"",""maua"",""mbuzi"",""panya""]","[""panya"",""atop"",""mbuzi"",""maua""]",n,j,v,j,v,f,n,n,mbuzi,mbuzi,mbuzi,mbuzi,224,388,1065,1112,0,0.0,1.0,0.0,0.0,0,0.0,0.4,0.5222222222222223
163,1,sock,kioo,1,1,1,1,0.25,0.25,0.25,0.75,2733,3581,4449,2095,3812.0,1985.0,1614.0,2037.0,"[""kukimba"",""hangyo"",""kioo"",""skina""]","[""kioo"",""kukimba"",""skina"",""hangyo""]","[""hangyo"",""kukimba"",""kioo"",""skina""]","[""hangyo"",""kukimba"",""skina"",""kioo""]",n,f,n,j,n,f,n,j,kioo,kioo,kioo,kioo,112,457,1001,1178,1,0.25,1.0,0.75,0.75,1,1.0,0.4,0.5222222222222223
164,1,spider,sayari,1,1,1,1,1.0,1.0,1.0,1.0,3253,2709,2540,2477,1973.0,2446.0,1784.0,1960.0,"[""bustani"",""sayari"",""nzuri"",""daraja""]","[""nzuri"",""daraja"",""bustani"",""sayari""]","[""sayari"",""daraja"",""nzuri"",""bustani""]","[""nzuri"",""daraja"",""sayari"",""bustani""]",v,j,f,n,v,j,f,n,sayari,sayari,sayari,sayari,156,319,927,1252,1,1.0,1.0,0.0,0.0,1,1.0,0.4,0.5222222222222223
165,1,spoon,pamahaw,0,1,0,0,0.0,1.0,0.0,0.0,2273,1691,4221,1687,1802.0,1794.0,1672.0,1633.0,"[""bakus"",""gutom"",""ofisi"",""pamahaw""]","[""bakus"",""ofisi"",""pamahaw"",""gutom""]","[""gutom"",""ofisi"",""bakus"",""pamahaw""]","[""ofisi"",""bakus"",""gutom"",""pamahaw""]",j,n,j,j,v,n,f,v,gutom,pamahaw,gutom,bakus,284,322,1003,1176,1,1,0.0,0,0,0,0.0,0.4,0.5222222222222223
166,1,squirrel,mazishi,1,1,1,1,0.75,1.0,1.0,1.0,4870,2279,2879,2104,2769.0,2032.0,1753.0,1562.0,"[""ahos"",""mazishi"",""ukame"",""watu""]","[""watu"",""ukame"",""mazishi"",""ahos""]","[""ukame"",""ahos"",""mazishi"",""watu""]","[""ahos"",""watu"",""mazishi"",""ukame""]",v,n,n,n,v,n,n,n,mazishi,mazishi,mazishi,mazishi,174,517,1017,1130,1,1,0.0,0,0,1,1.0,0.4,0.5222222222222223
167,1,stone,matumbo,1,1,1,1,0.25,0.0,0.0,0.0,3670,2819,2830,2189,2484.0,1808.0,1455.0,3303.0,"[""ndizi"",""matumbo"",""bahandi"",""farasi""]","[""bahandi"",""ndizi"",""matumbo"",""farasi""]","[""bahandi"",""matumbo"",""farasi"",""ndizi""]","[""farasi"",""matumbo"",""ndizi"",""bahandi""]",v,n,v,v,v,n,v,v,matumbo,matumbo,matumbo,matumbo,206,406,975,1246,1,0.0,1.0,1.0,1.0,1,1.0,0.4,0.5222222222222223
168,1,sun,samaki,1,1,0,0,0.0,0.25,0.0,0.0,5392,4072,2604,2875,1604.0,2280.0,1648.0,2175.0,"[""samaki"",""mashua"",""msitu"",""kuna""]","[""kuna"",""msitu"",""mashua"",""samaki""]","[""samaki"",""mashua"",""kuna"",""msitu""]","[""samaki"",""mashua"",""msitu"",""kuna""]",f,j,f,f,f,j,j,j,samaki,samaki,msitu,kuna,262,331,985,1116,1,0.25,1.0,0.75,0.75,0,0.0,0.4,0.5222222222222223
169,1,telephone,kasadpan,0,0,1,0,0.0,0.0,0.0,0.0,3389,3229,4826,5872,1584.0,1852.0,1485.0,1879.0,"[""chupi"",""baboy"",""yatima"",""kasadpan""]","[""kasadpan"",""yatima"",""baboy"",""chupi""]","[""baboy"",""yatima"",""kasadpan"",""chupi""]","[""yatima"",""chupi"",""baboy"",""kasadpan""]",j,f,n,j,v,n,n,v,baboy,baboy,kasadpan,chupi,210,313,993,1222,0,0.0,1.0,0.0,0.0,0,0.5,0.4,0.5222222222222223
170,1,tissue,wingu,0,0,0,1,0.0,0.0,0.0,0.0,2206,2915,2771,2400,1974.0,2606.0,1674.0,1581.0,"[""mara"",""utepe"",""pala"",""wingu""]","[""mara"",""utepe"",""wingu"",""pala""]","[""pala"",""mara"",""utepe"",""wingu""]","[""pala"",""utepe"",""mara"",""wingu""]",j,n,j,j,v,j,v,j,utepe,pala,mara,wingu,276,529,941,1160,0,0.0,1.0,0.0,0.0,0,0.5,0.4,0.5222222222222223
171,1,tomato,aibu,0,0,0,0,0.0,0.0,0.25,0.25,3365,3026,3233,2742,2308.0,2499.0,1620.0,1583.0,"[""aibu"",""abang"",""bili"",""baga""]","[""aibu"",""bili"",""baga"",""abang""]","[""baga"",""aibu"",""abang"",""bili""]","[""aibu"",""abang"",""bili"",""baga""]",f,f,v,f,n,v,f,j,bili,bili,baga,baga,232,412,1061,1244,0,0.0,1.0,0.0,0.0,0,0.0,0.4,0.5222222222222223
172,1,tooth,paghalad,0,1,1,1,0.5,0.75,0.75,1.0,6964,4606,2388,1875,1917.0,1900.0,1874.0,2001.0,"[""duga"",""paghalad"",""ihalas"",""kitovu""]","[""paghalad"",""duga"",""kitovu"",""ihalas""]","[""kitovu"",""ihalas"",""duga"",""paghalad""]","[""kitovu"",""duga"",""ihalas"",""paghalad""]",v,f,j,j,j,f,j,j,kitovu,paghalad,paghalad,paghalad,120,502,999,1104,1,0.75,1.0,0.25,0.25,1,1.0,0.4,0.5222222222222223
173,1,towel,kiti,0,0,0,0,0.0,0.0,0.0,0.0,3372,3007,2061,1648,2280.0,1880.0,1792.0,2412.0,"[""abug"",""kiti"",""gabi"",""chaki""]","[""gabi"",""abug"",""chaki"",""kiti""]","[""kiti"",""chaki"",""abug"",""gabi""]","[""kiti"",""abug"",""chaki"",""gabi""]",v,j,f,f,n,n,v,v,gabi,chaki,chaki,abug,180,532,979,1234,0,0.0,1.0,0.0,0.0,0,0.0,0.4,0.5222222222222223
174,1,train,agalon,1,1,1,1,1.0,1.0,1.0,1.0,3835,2321,2111,2203,2051.0,1963.0,2047.0,1882.0,"[""ngono"",""agalon"",""sweta"",""dila""]","[""sweta"",""dila"",""ngono"",""agalon""]","[""sweta"",""agalon"",""ngono"",""dila""]","[""ngono"",""dila"",""sweta"",""agalon""]",v,j,v,j,v,j,v,j,agalon,agalon,agalon,agalon,170,475,1007,1184,1,1.0,1.0,0.0,0.0,1,1.0,0.4,0.5222222222222223
175,1,triangle,kazi,1,1,1,1,0.0,1.0,1.0,1.0,2733,2069,1980,1848,1808.0,2609.0,1903.0,1659.0,"[""mchawi"",""bloke"",""kazi"",""kugita""]","[""kugita"",""kazi"",""bloke"",""mchawi""]","[""kazi"",""kugita"",""bloke"",""mchawi""]","[""kugita"",""bloke"",""kazi"",""mchawi""]",n,v,f,n,n,v,f,n,kazi,kazi,kazi,kazi,272,472,981,1110,1,1,0.0,0,0,1,1.0,0.4,0.5222222222222223
176,1,wheel,tindashan,0,0,0,0,0.0,0.0,0.0,0.0,2424,2005,1680,2935,1611.0,2281.0,1606.0,1664.0,"[""jikoni"",""kisiwa"",""tindashan"",""haraka""]","[""kisiwa"",""jikoni"",""haraka"",""tindashan""]","[""kisiwa"",""jikoni"",""haraka"",""tindashan""]","[""haraka"",""tindashan"",""jikoni"",""kisiwa""]",n,j,j,v,j,n,v,f,haraka,haraka,jikoni,haraka,216,511,1077,1146,0,0.0,1.0,0.0,0.0,0,0.0,0.4,0.5222222222222223
177,1,window,kito,1,0,0,0,0.0,0.25,0.0,0.0,3691,10130,2882,3708,1829.0,1755.0,1442.0,2376.0,"[""chuma"",""kito"",""pito"",""estante""]","[""pito"",""chuma"",""estante"",""kito""]","[""kito"",""chuma"",""pito"",""estante""]","[""pito"",""kito"",""chuma"",""estante""]",v,j,f,v,v,v,v,n,kito,chuma,chuma,chuma,280,466,959,1204,0,0.25,1.0,-0.25,0.25,0,0.0,0.4,0.5222222222222223
178,1,wolf,bafuni,1,1,1,0,0.25,1.0,0.25,0.25,4285,2443,4096,3466,1497.0,1875.0,2467.0,2327.0,"[""lobo"",""bafuni"",""bilaska"",""neyemba""]","[""bafuni"",""lobo"",""neyemba"",""bilaska""]","[""neyemba"",""lobo"",""bafuni"",""bilaska""]","[""neyemba"",""bafuni"",""bilaska"",""lobo""]",v,f,n,v,v,f,n,j,bafuni,bafuni,bafuni,lobo,266,352,1029,1212,1,1,0.0,0,0,0,0.5,0.4,0.5222222222222223
179,1,woman,madungog,0,0,0,0,0.0,0.25,0.0,0.0,5051,4048,3351,2346,2515.0,1621.0,1663.0,2422.0,"[""madungog"",""isda"",""guruwe"",""filimbi""]","[""isda"",""filimbi"",""madungog"",""guruwe""]","[""isda"",""filimbi"",""madungog"",""guruwe""]","[""guruwe"",""filimbi"",""isda"",""madungog""]",f,n,n,j,j,f,v,v,filimbi,isda,filimbi,filimbi,244,565,925,1220,0,0.25,1.0,-0.25,0.25,0,0.0,0.4,0.5222222222222223
180,2,apple,kofia,1,1,1,1,1.0,1.0,0.75,0.75,2284,1784,2956,2529,1659.0,1424.0,1515.0,1410.0,"[""pagduol"",""jansa"",""hamsi"",""kofia""]","[""hamsi"",""kofia"",""jansa"",""pagduol""]","[""jansa"",""pagduol"",""hamsi"",""kofia""]","[""pagduol"",""jansa"",""kofia"",""hamsi""]",j,v,j,n,j,v,j,n,kofia,kofia,kofia,kofia,174,352,997,1118,1,1,0.0,0,0,1,1.0,0.2111111111111111,0.32222222222222224
181,2,banana,wingi,0,1,1,1,0.25,0.0,0.75,0.75,5224,3292,2148,1765,1342.0,1564.0,1551.0,1058.0,"[""wingi"",""kerida"",""ishiri"",""bituin""]","[""kerida"",""ishiri"",""wingi"",""bituin""]","[""wingi"",""bituin"",""ishiri"",""kerida""]","[""wingi"",""ishiri"",""bituin"",""kerida""]",f,n,f,f,v,n,f,f,kerida,wingi,wingi,wingi,148,307,1027,1088,1,0.0,1.0,1.0,1.0,1,1.0,0.2111111111111111,0.32222222222222224
182,2,bank,napakyas,0,1,0,0,0.0,0.75,0.0,0.25,3924,2394,1456,1936,1998.0,1083.0,1975.0,1011.0,"[""ulimwengu"",""amani"",""singizi"",""napakyas""]","[""ulimwengu"",""napakyas"",""singizi"",""amani""]","[""singizi"",""napakyas"",""amani"",""ulimwengu""]","[""napakyas"",""amani"",""ulimwengu"",""singizi""]",j,v,v,f,v,v,j,v,amani,napakyas,ulimwengu,amani,200,544,1039,1124,1,0.75,1.0,0.25,0.25,0,0.0,0.2111111111111111,0.32222222222222224
183,2,basket,mgonjwa,1,0,0,0,0.0,0.0,0.25,0.25,2156,3449,3200,1784,1494.0,1651.0,2191.0,1395.0,"[""mgonjwa"",""chuki"",""taras"",""kadaot""]","[""chuki"",""taras"",""mgonjwa"",""kadaot""]","[""taras"",""chuki"",""mgonjwa"",""kadaot""]","[""taras"",""chuki"",""mgonjwa"",""kadaot""]",f,n,n,n,f,v,v,j,mgonjwa,taras,chuki,kadaot,196,448,959,1152,0,0.0,1.0,0.0,0.0,0,0.0,0.2111111111111111,0.32222222222222224
184,2,bed,mechezo,0,1,1,0,0.75,0.5,0.75,0.0,3748,2716,2131,2645,1338.0,2075.0,1339.0,1270.0,"[""mechezo"",""rombus"",""awit"",""salita""]","[""awit"",""mechezo"",""rombus"",""salita""]","[""rombus"",""mechezo"",""salita"",""awit""]","[""mechezo"",""rombus"",""salita"",""awit""]",f,v,v,f,n,v,v,j,awit,mechezo,mechezo,awit,178,499,1051,1180,1,0.5,1.0,0.5,0.5,0,0.5,0.2111111111111111,0.32222222222222224
185,2,berry,kemia,0,0,0,0,0.75,0.25,0.25,0.25,1528,2660,2636,3108,1175.0,2084.0,2298.0,2026.0,"[""hatua"",""kemia"",""kumbuka"",""asili""]","[""kumbuka"",""asili"",""kemia"",""hatua""]","[""hatua"",""kemia"",""asili"",""kumbuka""]","[""hatua"",""asili"",""kemia"",""kumbuka""]",v,n,v,n,j,f,f,j,asili,kumbuka,hatua,kumbuka,226,367,915,1158,0,0.25,1.0,-0.25,0.25,0,0.0,0.2111111111111111,0.32222222222222224
186,2,boat,tanuri,0,0,1,0,0.0,0.25,0.25,0.0,3420,1891,2456,4468,1414.0,1273.0,2122.0,967.0,"[""tanuri"",""shule"",""lisud"",""itik""]","[""lisud"",""itik"",""shule"",""tanuri""]","[""shule"",""tanuri"",""lisud"",""itik""]","[""tanuri"",""shule"",""itik"",""lisud""]",f,j,v,f,n,n,v,j,lisud,shule,tanuri,lisud,238,361,1075,1150,0,0.25,1.0,-0.25,0.25,0,0.5,0.2111111111111111,0.32222222222222224
187,2,body,mali,1,0,0,0,0.75,0.25,0.25,0.0,5269,2162,1612,1444,1698.0,1259.0,971.0,1183.0,"[""bunyag"",""ganti"",""mtawa"",""mali""]","[""mtawa"",""mali"",""bunyag"",""ganti""]","[""mtawa"",""ganti"",""mali"",""bunyag""]","[""mtawa"",""bunyag"",""ganti"",""mali""]",j,v,n,j,j,j,j,f,mali,ganti,bunyag,mtawa,194,403,993,1242,0,0.25,1.0,-0.25,0.25,0,0.0,0.2111111111111111,0.32222222222222224
188,2,bonfire,chombo,1,1,1,0,0.0,0.25,0.25,0.25,2180,3076,1441,4321,947.0,1560.0,1302.0,1758.0,"[""chombo"",""pundok"",""kikapu"",""atay""]","[""kikapu"",""atay"",""pundok"",""chombo""]","[""chombo"",""pundok"",""kikapu"",""atay""]","[""pundok"",""chombo"",""kikapu"",""atay""]",f,j,f,v,f,j,f,n,chombo,chombo,chombo,kikapu,274,493,901,1212,1,0.25,1.0,0.75,0.75,0,0.5,0.2111111111111111,0.32222222222222224
189,2,book,basi,0,1,0,1,1.0,1.0,0.25,0.0,4072,9100,2201,1772,1814.0,2460.0,1247.0,1711.0,"[""baharia"",""nyange"",""basi"",""hazini""]","[""basi"",""baharia"",""hazini"",""nyange""]","[""basi"",""hazini"",""nyange"",""baharia""]","[""nyange"",""basi"",""baharia"",""hazini""]",n,f,f,v,f,f,j,v,baharia,basi,baharia,basi,154,460,1037,1090,1,1,0.0,0,0,0,0.5,0.2111111111111111,0.32222222222222224
190,2,box,pangalan,1,0,1,0,0.25,0.75,0.5,0.25,4664,1823,2020,2212,1287.0,1384.0,3459.0,1339.0,"[""ijayo"",""pilak"",""welder"",""pangalan""]","[""pilak"",""welder"",""pangalan"",""ijayo""]","[""pangalan"",""ijayo"",""welder"",""pilak""]","[""pangalan"",""ijayo"",""welder"",""pilak""]",j,n,f,f,j,v,f,v,pangalan,welder,pangalan,ijayo,132,532,1007,1148,0,0.75,1.0,-0.75,0.75,0,0.5,0.2111111111111111,0.32222222222222224
191,2,bread,goti,1,1,0,0,0.0,0.75,0.0,0.75,1696,2893,2153,3483,1495.0,1140.0,1510.0,1843.0,"[""kushoto"",""kusanya"",""goti"",""mzungu""]","[""mzungu"",""kushoto"",""goti"",""kusanya""]","[""kushoto"",""mzungu"",""goti"",""kusanya""]","[""mzungu"",""kusanya"",""kushoto"",""goti""]",n,n,n,j,n,n,j,f,goti,goti,kusanya,mzungu,208,388,1041,1246,1,0.75,1.0,0.25,0.25,0,0.0,0.2111111111111111,0.32222222222222224
192,2,bridge,bega,0,0,0,0,0.25,0.5,0.0,0.0,1699,2655,1228,1684,1307.0,1556.0,1419.0,2063.0,"[""bega"",""barua"",""mvringo"",""takatak""]","[""barua"",""bega"",""takatak"",""mvringo""]","[""bega"",""mvringo"",""barua"",""takatak""]","[""bega"",""mvringo"",""barua"",""takatak""]",f,v,f,f,v,n,v,v,barua,takatak,mvringo,mvringo,264,382,1057,1132,0,0.5,1.0,-0.5,0.5,0,0.0,0.2111111111111111,0.32222222222222224
193,2,bucket,katuyoan,1,1,0,1,0.0,1.0,0.0,0.0,4760,1701,1792,2528,2146.0,1323.0,1207.0,1350.0,"[""bugas"",""mageho"",""katuyoan"",""ndoora""]","[""mageho"",""ndoora"",""katuyoan"",""bugas""]","[""ndoora"",""mageho"",""katuyoan"",""bugas""]","[""mageho"",""bugas"",""ndoora"",""katuyoan""]",n,n,n,j,n,n,v,j,katuyoan,katuyoan,mageho,katuyoan,166,418,979,1202,1,1,0.0,0,0,0,0.5,0.2111111111111111,0.32222222222222224
194,2,candle,sensilyo,0,0,0,0,0.25,0.0,0.5,0.5,4504,3780,3820,4280,1791.0,2340.0,1826.0,1694.0,"[""rafiki"",""dakika"",""sensilyo"",""liog""]","[""sensilyo"",""dakika"",""liog"",""rafiki""]","[""dakika"",""rafiki"",""sensilyo"",""liog""]","[""dakika"",""sensilyo"",""liog"",""rafiki""]",n,f,n,v,v,n,j,j,dakika,liog,liog,rafiki,136,445,913,1104,0,0.0,1.0,0.0,0.0,0,0.0,0.2111111111111111,0.32222222222222224
195,2,cat,martilyo,0,0,1,0,0.75,0.25,0.25,0.0,2468,2304,2252,5280,1418.0,6472.0,2011.0,1022.0,"[""martilyo"",""ndezu"",""umaga"",""nchi""]","[""umaga"",""martilyo"",""nchi"",""ndezu""]","[""umaga"",""martilyo"",""nchi"",""ndezu""]","[""umaga"",""ndezu"",""martilyo"",""nchi""]",f,v,v,n,n,f,v,v,umaga,umaga,martilyo,ndezu,180,355,985,1210,0,0.25,1.0,-0.25,0.25,0,0.5,0.2111111111111111,0.32222222222222224
196,2,cave,sabuni,0,0,0,0,0.25,0.25,0.25,0.0,4601,1782,1680,2337,1641.0,1028.0,2175.0,1734.0,"[""sabuni"",""dagat"",""kidole"",""mtirka""]","[""sabuni"",""dagat"",""mtirka"",""kidole""]","[""sabuni"",""dagat"",""mtirka"",""kidole""]","[""mtirka"",""dagat"",""sabuni"",""kidole""]",f,f,f,n,n,v,j,v,kidole,dagat,kidole,dagat,106,457,969,1092,0,0.25,1.0,-0.25,0.25,0,0.0,0.2111111111111111,0.32222222222222224
197,2,ceiling,jiwe,0,0,0,0,0.5,0.25,0.75,0.0,1873,2157,3752,1564,894.0,1902.0,2395.0,996.0,"[""jiwe"",""nyeusi"",""nyundo"",""kaso""]","[""nyeusi"",""jiwe"",""nyundo"",""kaso""]","[""jiwe"",""kaso"",""nyeusi"",""nyundo""]","[""jiwe"",""nyeusi"",""nyundo"",""kaso""]",f,v,f,f,n,n,v,n,nyundo,nyundo,kaso,nyundo,230,565,1045,1228,0,0.25,1.0,-0.25,0.25,0,0.0,0.2111111111111111,0.32222222222222224
198,2,cigar,buli,1,0,0,0,0.75,0.25,0.75,0.75,5468,3056,9140,201636,1666.0,1152.0,2707.0,1562.0,"[""nyundu"",""iring"",""buli"",""hari""]","[""iring"",""buli"",""nyundu"",""hari""]","[""iring"",""buli"",""hari"",""nyundu""]","[""buli"",""hari"",""iring"",""nyundu""]",n,v,v,f,n,f,f,v,buli,iring,iring,hari,120,331,1055,1160,0,0.25,1.0,-0.25,0.25,0,0.0,0.2111111111111111,0.32222222222222224
199,2,clock,kisu,0,0,1,1,0.25,0.25,0.0,0.25,3524,3669,1796,1560,2106.0,1400.0,1114.0,1815.0,"[""mlango"",""kisu"",""mkate"",""daima""]","[""mlango"",""mkate"",""daima"",""kisu""]","[""kisu"",""daima"",""mkate"",""mlango""]","[""mlango"",""kisu"",""mkate"",""daima""]",v,j,f,v,j,v,f,v,daima,mkate,kisu,kisu,110,319,1067,1096,0,0.25,1.0,-0.25,0.25,1,1.0,0.2111111111111111,0.32222222222222224
200,2,coffin,uyoga,1,1,1,1,1.0,1.0,1.0,1.0,3728,1698,8620,4772,1751.0,1320.0,1362.0,1002.0,"[""soko"",""kamantis"",""kamba"",""uyoga""]","[""kamantis"",""soko"",""uyoga"",""kamba""]","[""soko"",""kamantis"",""kamba"",""uyoga""]","[""uyoga"",""kamantis"",""kamba"",""soko""]",j,n,j,f,j,n,j,f,uyoga,uyoga,uyoga,uyoga,244,484,983,1130,1,1,0.0,0,0,1,1.0,0.2111111111111111,0.32222222222222224
201,2,column,baiski,1,1,1,1,1.0,1.0,0.75,0.75,5301,4229,4892,3880,2373.0,1339.0,2626.0,1146.0,"[""baiski"",""baho"",""goma"",""kununa""]","[""baho"",""kununa"",""baiski"",""goma""]","[""baho"",""goma"",""baiski"",""kununa""]","[""baiski"",""kununa"",""baho"",""goma""]",f,n,n,f,f,n,n,f,baiski,baiski,baiski,baiski,128,415,939,1128,1,1.0,1.0,0.0,0.0,1,1.0,0.2111111111111111,0.32222222222222224
202,2,cop,mbwa,0,0,0,0,0.75,0.25,0.0,0.75,1780,1694,1508,3316,1018.0,1031.0,1078.0,1478.0,"[""kawaida"",""mbwa"",""ndugu"",""ukweli""]","[""ukweli"",""mbwa"",""kawaida"",""ndugu""]","[""ukweli"",""mbwa"",""ndugu"",""kawaida""]","[""ndugu"",""kawaida"",""ukweli"",""mbwa""]",v,v,v,j,j,f,f,f,ukweli,ukweli,ukweli,ndugu,192,376,1073,1174,0,0.25,1.0,-0.25,0.25,0,0.0,0.2111111111111111,0.32222222222222224
203,2,cup,pagpalit,0,0,0,0,0.0,0.25,0.25,0.0,1936,2215,2660,4557,2043.0,2548.0,1238.0,1982.0,"[""pagpalit"",""jeraha"",""kila"",""tamasha""]","[""tamasha"",""jeraha"",""pagpalit"",""kila""]","[""pagpalit"",""tamasha"",""jeraha"",""kila""]","[""pagpalit"",""kila"",""tamasha"",""jeraha""]",f,n,f,f,n,j,j,v,kila,kila,kila,kila,144,562,951,1116,0,0.25,1.0,-0.25,0.25,0,0.0,0.2111111111111111,0.32222222222222224
204,2,curtain,adui,0,1,0,0,0.5,0.0,0.0,0.25,2180,3350,2188,1640,1731.0,1788.0,1251.0,1679.0,"[""adui"",""mkboa"",""nanga"",""kijiko""]","[""kijiko"",""nanga"",""mkboa"",""adui""]","[""adui"",""nanga"",""kijiko"",""mkboa""]","[""adui"",""kijiko"",""mkboa"",""nanga""]",f,j,f,f,j,j,j,v,kijiko,adui,mkboa,kijiko,170,442,923,1222,1,0.0,1.0,1.0,1.0,0,0.0,0.2111111111111111,0.32222222222222224
205,2,dog,kumba,1,1,1,1,1.0,1.0,1.0,1.0,3788,3941,5120,2240,1130.0,1252.0,1531.0,1446.0,"[""kumba"",""mkasi"",""wakala"",""liso""]","[""liso"",""kumba"",""wakala"",""mkasi""]","[""liso"",""kumba"",""wakala"",""mkasi""]","[""wakala"",""liso"",""mkasi"",""kumba""]",f,v,v,j,f,v,v,j,kumba,kumba,kumba,kumba,186,556,919,1106,1,1.0,1.0,0.0,0.0,1,1.0,0.2111111111111111,0.32222222222222224
206,2,donkey,tuburan,0,0,0,0,0.75,0.25,0.5,0.0,2156,2264,1852,1688,851.0,1017.0,1291.0,1263.0,"[""bala"",""washia"",""ndogo"",""tuburan""]","[""tuburan"",""ndogo"",""bala"",""washia""]","[""tuburan"",""bala"",""washia"",""ndogo""]","[""washia"",""tuburan"",""bala"",""ndogo""]",j,f,f,v,f,v,j,j,bala,ndogo,ndogo,ndogo,184,487,1021,1188,0,0.25,1.0,-0.25,0.25,0,0.0,0.2111111111111111,0.32222222222222224
207,2,door,haki,1,1,1,1,0.75,0.25,0.25,0.25,2424,2056,2208,1689,927.0,1259.0,1043.0,1050.0,"[""ishara"",""haki"",""punda"",""tualya""]","[""ishara"",""haki"",""tualya"",""punda""]","[""punda"",""tualya"",""ishara"",""haki""]","[""tualya"",""haki"",""ishara"",""punda""]",v,v,j,v,v,v,j,v,haki,haki,haki,haki,254,379,945,1182,1,0.25,1.0,0.75,0.75,1,1.0,0.2111111111111111,0.32222222222222224
208,2,eel,mchanga,0,1,1,1,0.75,1.0,0.75,0.75,2116,1366,2524,1596,1131.0,1471.0,2539.0,1219.0,"[""kalipay"",""sufuria"",""dizeli"",""mchanga""]","[""sufuria"",""mchanga"",""dizeli"",""kalipay""]","[""mchanga"",""sufuria"",""dizeli"",""kalipay""]","[""mchanga"",""sufuria"",""dizeli"",""kalipay""]",j,v,f,f,n,v,f,f,dizeli,mchanga,mchanga,mchanga,190,472,1003,1136,1,1,0.0,0,0,1,1.0,0.2111111111111111,0.32222222222222224
209,2,elephant,lugha,0,0,0,0,0.0,0.5,0.0,0.0,8708,2344,15200,4961,1979.0,2032.0,1746.0,1214.0,"[""lamigas"",""kuzama"",""kama"",""lugha""]","[""kuzama"",""kama"",""lamigas"",""lugha""]","[""lugha"",""kuzama"",""lamigas"",""kama""]","[""kama"",""lugha"",""lamigas"",""kuzama""]",j,j,f,v,v,f,v,j,kuzama,kuzama,kuzama,kuzama,188,430,991,1208,0,0.5,1.0,-0.5,0.5,0,0.0,0.2111111111111111,0.32222222222222224
210,2,finger,ufagio,1,1,1,0,1.0,1.0,0.0,0.25,3373,1889,4776,5296,1250.0,1739.0,1442.0,1822.0,"[""ufagio"",""mwanga"",""mwanake"",""mvuke""]","[""ufagio"",""mwanake"",""mwanga"",""mvuke""]","[""mwanake"",""ufagio"",""mvuke"",""mwanga""]","[""ufagio"",""mwanga"",""mwanake"",""mvuke""]",f,f,v,f,f,f,v,v,ufagio,ufagio,ufagio,mwanga,172,568,981,1192,1,1,0.0,0,0,0,0.5,0.2111111111111111,0.32222222222222224
211,2,fish,pagtawag,0,1,1,0,0.75,1.0,0.25,0.0,11104,1629,4184,2536,2002.0,2064.0,1687.0,1039.0,"[""pagtawag"",""jibini"",""kasuko"",""kanding""]","[""kasuko"",""pagtawag"",""kanding"",""jibini""]","[""kasuko"",""pagtawag"",""jibini"",""kanding""]","[""kasuko"",""pagtawag"",""jibini"",""kanding""]",f,v,v,v,v,v,v,n,jibini,pagtawag,pagtawag,jibini,280,343,1043,1218,1,1,0.0,0,0,0,0.5,0.2111111111111111,0.32222222222222224
212,2,flag,kiatu,0,0,0,0,0.25,0.75,0.25,0.5,4004,2511,2332,3136,1754.0,1493.0,2478.0,1991.0,"[""mpishi"",""init"",""betri"",""kiatu""]","[""init"",""kiatu"",""betri"",""mpishi""]","[""betri"",""kiatu"",""mpishi"",""init""]","[""mpishi"",""betri"",""init"",""kiatu""]",j,v,v,j,v,f,j,n,init,init,init,init,108,385,899,1084,0,0.75,1.0,-0.75,0.75,0,0.0,0.2111111111111111,0.32222222222222224
213,2,flower,maji,0,1,0,0,0.25,1.0,0.0,0.75,2652,1226,4465,2140,1758.0,1313.0,3454.0,1708.0,"[""rayna"",""kartasi"",""maji"",""kabuang""]","[""maji"",""rayna"",""kartasi"",""kabuang""]","[""rayna"",""kabuang"",""kartasi"",""maji""]","[""maji"",""kabuang"",""kartasi"",""rayna""]",n,f,j,f,f,f,f,j,rayna,maji,rayna,rayna,116,514,963,1156,1,1,0.0,0,0,0,0.0,0.2111111111111111,0.32222222222222224
214,2,fork,geza,0,0,0,1,0.5,0.25,0.25,0.5,2433,2007,8884,2792,1190.0,1772.0,2867.0,1003.0,"[""geza"",""kengele"",""paghago"",""mraba""]","[""kengele"",""mraba"",""geza"",""paghago""]","[""kengele"",""mraba"",""geza"",""paghago""]","[""paghago"",""geza"",""mraba"",""kengele""]",f,n,n,v,j,j,f,v,mraba,paghago,kengele,geza,232,433,1059,1108,0,0.25,1.0,-0.25,0.25,0,0.5,0.2111111111111111,0.32222222222222224
215,2,gift,sahani,0,1,0,0,0.0,1.0,0.75,0.25,1964,1497,2412,1668,2123.0,1952.0,955.0,2915.0,"[""chupa"",""kihozi"",""tumbo"",""sahani""]","[""tumbo"",""sahani"",""kihozi"",""chupa""]","[""kihozi"",""chupa"",""sahani"",""tumbo""]","[""tumbo"",""sahani"",""kihozi"",""chupa""]",j,v,n,v,f,v,v,j,chupa,sahani,chupa,chupa,168,346,909,1232,1,1,0.0,0,0,0,0.0,0.2111111111111111,0.32222222222222224
216,2,giraffe,duka,0,0,0,0,0.75,0.25,0.25,0.75,4617,2338,4180,2532,910.0,1107.0,970.0,1315.0,"[""asin"",""kalamu"",""duka"",""picha""]","[""kalamu"",""duka"",""asin"",""picha""]","[""picha"",""kalamu"",""duka"",""asin""]","[""asin"",""duka"",""kalamu"",""picha""]",n,v,n,v,v,f,j,n,kalamu,kalamu,asin,kalamu,222,334,1005,1238,0,0.25,1.0,-0.25,0.25,0,0.0,0.2111111111111111,0.32222222222222224
217,2,hammer,pagsulod,0,1,0,0,0.25,0.75,0.0,0.0,3000,1636,1456,12144,1207.0,818.0,1294.0,1346.0,"[""pombe"",""pagsulod"",""tambok"",""seri""]","[""tambok"",""pombe"",""pagsulod"",""seri""]","[""seri"",""tambok"",""pagsulod"",""pombe""]","[""tambok"",""pombe"",""pagsulod"",""seri""]",v,n,n,n,n,n,v,f,tambok,pagsulod,tambok,tambok,152,523,967,1224,1,0.75,1.0,0.25,0.25,0,0.0,0.2111111111111111,0.32222222222222224
218,2,hill,matumai,0,0,1,1,0.25,0.75,0.5,0.5,2432,2808,3036,2240,1443.0,1245.0,1778.0,1891.0,"[""lalake"",""matumai"",""luha"",""mwezi""]","[""luha"",""mwezi"",""lalake"",""matumai""]","[""lalake"",""matumai"",""luha"",""mwezi""]","[""matumai"",""luha"",""mwezi"",""lalake""]",v,j,v,f,n,v,v,f,luha,mwezi,matumai,matumai,118,550,937,1140,0,0.75,1.0,-0.75,0.75,1,1.0,0.2111111111111111,0.32222222222222224
219,2,human,surali,1,0,0,0,0.75,0.0,0.0,0.25,2912,2182,2168,6852,1575.0,1432.0,1006.0,1291.0,"[""surali"",""uadui"",""baso"",""suga""]","[""baso"",""uadui"",""suga"",""surali""]","[""suga"",""baso"",""uadui"",""surali""]","[""suga"",""baso"",""uadui"",""surali""]",f,j,j,j,f,n,n,f,surali,suga,uadui,suga,140,301,975,1146,0,0.0,1.0,0.0,0.0,0,0.0,0.2111111111111111,0.32222222222222224
220,2,key,kesho,1,0,0,1,0.25,0.0,0.25,0.75,3500,2599,2592,1596,1411.0,1783.0,1195.0,955.0,"[""kesho"",""baadaye"",""mungu"",""kimysa""]","[""mungu"",""kesho"",""baadaye"",""kimysa""]","[""kesho"",""mungu"",""baadaye"",""kimysa""]","[""kimysa"",""kesho"",""mungu"",""baadaye""]",f,v,f,v,f,j,v,v,kesho,kimysa,mungu,kesho,276,553,905,1240,0,0.0,1.0,0.0,0.0,0,0.5,0.2111111111111111,0.32222222222222224
221,2,knee,hofu,0,0,0,0,0.0,0.75,0.5,0.5,3953,2065,16424,2952,2102.0,1084.0,2502.0,1438.0,"[""rangi"",""tena"",""nopya"",""hofu""]","[""rangi"",""hofu"",""nopya"",""tena""]","[""hofu"",""rangi"",""nopya"",""tena""]","[""hofu"",""rangi"",""tena"",""nopya""]",j,v,f,f,v,n,j,n,tena,nopya,tena,tena,224,529,953,1122,0,0.75,1.0,-0.75,0.75,0,0.0,0.2111111111111111,0.32222222222222224
222,2,ladder,trekta,1,1,1,1,0.75,0.25,0.25,1.0,1929,1701,2108,1937,1126.0,1024.0,1035.0,1302.0,"[""baki"",""ndege"",""trekta"",""miaka""]","[""miaka"",""ndege"",""baki"",""trekta""]","[""ndege"",""baki"",""trekta"",""miaka""]","[""ndege"",""miaka"",""baki"",""trekta""]",n,j,n,j,n,j,n,j,trekta,trekta,trekta,trekta,158,310,931,1102,1,0.25,1.0,0.75,0.75,1,1.0,0.2111111111111111,0.32222222222222224
223,2,lamp,elfu,1,0,0,1,0.0,0.0,0.75,0.0,1529,20163,6624,1897,1022.0,2040.0,2542.0,1814.0,"[""kujenga"",""maisha"",""elfu"",""bulwawan""]","[""kujenga"",""elfu"",""bulwawan"",""maisha""]","[""elfu"",""maisha"",""bulwawan"",""kujenga""]","[""bulwawan"",""maisha"",""kujenga"",""elfu""]",n,v,f,j,n,n,j,j,elfu,bulwawan,kujenga,elfu,212,409,971,1204,0,0.0,1.0,0.0,0.0,0,0.5,0.2111111111111111,0.32222222222222224
224,2,letter,ugomvi,1,1,0,0,0.75,1.0,0.25,0.25,10372,1386,5620,3228,3643.0,1168.0,1443.0,943.0,"[""fedha"",""kuta"",""akili"",""ugomvi""]","[""fedha"",""ugomvi"",""kuta"",""akili""]","[""ugomvi"",""fedha"",""akili"",""kuta""]","[""ugomvi"",""kuta"",""fedha"",""akili""]",j,v,f,f,j,v,v,v,ugomvi,ugomvi,fedha,kuta,258,559,995,1138,1,1,0.0,0,0,0,0.0,0.2111111111111111,0.32222222222222224
225,2,list,mapintas,0,0,0,0,0.25,0.0,0.25,0.75,1956,19092,5792,1108,1079.0,1448.0,2478.0,1467.0,"[""mapintas"",""choori"",""gundi"",""usiku""]","[""mapintas"",""choori"",""usiku"",""gundi""]","[""usiku"",""choori"",""gundi"",""mapintas""]","[""choori"",""usiku"",""gundi"",""mapintas""]",f,f,j,j,n,v,v,v,gundi,choori,choori,usiku,270,496,961,1162,0,0.0,1.0,0.0,0.0,0,0.0,0.2111111111111111,0.32222222222222224
226,2,magazine,afya,0,0,0,0,0.25,0.25,0.5,0.75,1468,3031,2076,1996,2279.0,1160.0,1635.0,1547.0,"[""afya"",""kupanda"",""ngazi"",""lubi""]","[""kupanda"",""ngazi"",""afya"",""lubi""]","[""lubi"",""kupanda"",""ngazi"",""afya""]","[""kupanda"",""lubi"",""afya"",""ngazi""]",f,n,j,n,v,j,v,j,kupanda,lubi,kupanda,ngazi,282,478,935,1234,0,0.25,1.0,-0.25,0.25,0,0.0,0.2111111111111111,0.32222222222222224
227,2,marker,silingan,0,0,0,0,0.25,0.25,0.25,0.75,1544,4034,2644,3284,1591.0,1152.0,1279.0,1787.0,"[""silingan"",""mekno"",""tawo"",""alizeti""]","[""alizeti"",""mekno"",""tawo"",""silingan""]","[""silingan"",""tawo"",""alizeti"",""mekno""]","[""mekno"",""alizeti"",""tawo"",""silingan""]",f,j,f,j,n,v,j,f,tawo,mekno,mekno,mekno,252,313,917,1172,0,0.25,1.0,-0.25,0.25,0,0.0,0.2111111111111111,0.32222222222222224
228,2,mirror,pagtukod,0,1,0,0,0.25,0.75,0.25,0.0,2340,2401,3964,1753,1227.0,1412.0,1851.0,21650.0,"[""edad"",""pagtukod"",""tubag"",""bungtod""]","[""edad"",""bungtod"",""tubag"",""pagtukod""]","[""edad"",""pagtukod"",""tubag"",""bungtod""]","[""bungtod"",""tubag"",""pagtukod"",""edad""]",v,j,v,n,j,j,j,v,bungtod,pagtukod,bungtod,tubag,266,547,1061,1176,1,0.75,1.0,0.25,0.25,0,0.0,0.2111111111111111,0.32222222222222224
229,2,mosquito,mkuu,0,0,0,0,0.5,0.25,0.5,0.0,2676,2611,1892,2489,939.0,1625.0,1403.0,1054.0,"[""mdudu"",""imani"",""funzi"",""mkuu""]","[""imani"",""mkuu"",""mdudu"",""funzi""]","[""imani"",""funzi"",""mdudu"",""mkuu""]","[""funzi"",""mdudu"",""imani"",""mkuu""]",j,v,j,j,f,n,n,v,mdudu,mdudu,mdudu,mdudu,268,304,1025,1206,0,0.25,1.0,-0.25,0.25,0,0.0,0.2111111111111111,0.32222222222222224
230,2,mother,kubwa,0,0,1,1,1.0,0.25,0.25,0.75,1953,2350,1500,3257,1622.0,1729.0,1251.0,1598.0,"[""karon"",""kubwa"",""bendi"",""mchuzi""]","[""kubwa"",""karon"",""bendi"",""mchuzi""]","[""kubwa"",""karon"",""mchuzi"",""bendi""]","[""karon"",""kubwa"",""mchuzi"",""bendi""]",v,f,f,v,j,j,f,v,mchuzi,mchuzi,kubwa,kubwa,218,325,1019,1098,0,0.25,1.0,-0.25,0.25,1,1.0,0.2111111111111111,0.32222222222222224
231,2,nose,mahitabo,0,1,1,0,0.75,0.25,0.25,0.5,4313,4043,2432,1780,1294.0,1552.0,1015.0,1130.0,"[""kaburi"",""gubat"",""mahitabo"",""daub""]","[""mahitabo"",""gubat"",""daub"",""kaburi""]","[""gubat"",""mahitabo"",""daub"",""kaburi""]","[""mahitabo"",""kaburi"",""daub"",""gubat""]",n,f,v,f,f,f,v,n,kaburi,mahitabo,mahitabo,daub,160,349,1029,1168,1,0.25,1.0,0.75,0.75,0,0.5,0.2111111111111111,0.32222222222222224
232,2,notebook,mamba,1,0,0,0,0.75,0.75,0.5,0.5,1996,2561,3380,3144,1407.0,1021.0,1291.0,862.0,"[""mamba"",""petye"",""kopa"",""nyota""]","[""kopa"",""nyota"",""mamba"",""petye""]","[""nyota"",""kopa"",""mamba"",""petye""]","[""mamba"",""nyota"",""petye"",""kopa""]",f,n,n,f,f,v,f,v,mamba,nyota,nyota,nyota,278,466,1023,1200,0,0.75,1.0,-0.75,0.75,0,0.0,0.2111111111111111,0.32222222222222224
233,2,number,sulagma,1,0,0,0,0.25,0.75,0.25,0.75,4320,2428,1036,1316,1343.0,1130.0,971.0,1803.0,"[""kunywa"",""hagdan"",""twai"",""sulagma""]","[""kunywa"",""sulagma"",""twai"",""hagdan""]","[""twai"",""hagdan"",""kunywa"",""sulagma""]","[""sulagma"",""hagdan"",""twai"",""kunywa""]",j,v,j,f,j,f,v,v,sulagma,kunywa,hagdan,hagdan,138,538,1049,1166,0,0.75,1.0,-0.75,0.75,0,0.0,0.2111111111111111,0.32222222222222224
234,2,office,kifua,0,1,0,0,0.25,1.0,0.75,0.5,2840,2382,5392,1780,1174.0,1303.0,1854.0,1355.0,"[""kifua"",""jumatu"",""kubale"",""bentaha""]","[""kifua"",""kubale"",""jumatu"",""bentaha""]","[""kubale"",""kifua"",""bentaha"",""jumatu""]","[""jumatu"",""bentaha"",""kifua"",""kubale""]",f,f,v,n,v,f,f,f,jumatu,kifua,kubale,jumatu,220,322,957,1170,1,1,0.0,0,0,0,0.0,0.2111111111111111,0.32222222222222224
235,2,olive,bunifu,0,1,1,0,0.25,1.0,0.0,0.0,4028,1382,3228,2045,1507.0,1619.0,1306.0,1038.0,"[""punguza"",""pwani"",""mfuko"",""bunifu""]","[""pwani"",""punguza"",""mfuko"",""bunifu""]","[""punguza"",""bunifu"",""pwani"",""mfuko""]","[""bunifu"",""mfuko"",""punguza"",""pwani""]",j,j,v,f,n,j,v,j,mfuko,bunifu,bunifu,pwani,124,517,941,1256,1,1,0.0,0,0,0,0.5,0.2111111111111111,0.32222222222222224
236,2,page,wimbo,1,0,0,0,0.0,0.25,0.0,0.0,1708,3526,1413,2185,1175.0,2131.0,1178.0,998.0,"[""kasamok"",""wimbo"",""furaha"",""nogozi""]","[""wimbo"",""nogozi"",""furaha"",""kasamok""]","[""nogozi"",""furaha"",""wimbo"",""kasamok""]","[""wimbo"",""furaha"",""nogozi"",""kasamok""]",v,f,n,f,v,j,v,j,wimbo,kasamok,furaha,kasamok,204,475,987,1250,0,0.25,1.0,-0.25,0.25,0,0.0,0.2111111111111111,0.32222222222222224
237,2,pants,bililhon,0,1,0,0,0.5,0.0,0.25,0.0,9783,2242,1868,111420,1551.0,1648.0,2075.0,1432.0,"[""kuhesa"",""kudhibi"",""bililhon"",""lamok""]","[""bililhon"",""kuhesa"",""lamok"",""kudhibi""]","[""bililhon"",""lamok"",""kudhibi"",""kuhesa""]","[""kuhesa"",""lamok"",""bililhon"",""kudhibi""]",n,f,f,n,j,f,v,f,lamok,bililhon,lamok,kuhesa,246,397,925,1248,1,0.0,1.0,1.0,1.0,0,0.0,0.2111111111111111,0.32222222222222224
238,2,park,moyo,0,0,0,0,0.0,0.25,0.25,0.0,1552,7607,1796,1553,1414.0,1828.0,1043.0,1342.0,"[""hasira"",""siagi"",""suka"",""moyo""]","[""siagi"",""suka"",""moyo"",""hasira""]","[""moyo"",""hasira"",""siagi"",""suka""]","[""siagi"",""hasira"",""moyo"",""suka""]",j,n,f,n,v,v,v,v,siagi,suka,hasira,hasira,250,454,999,1258,0,0.25,1.0,-0.25,0.25,0,0.0,0.2111111111111111,0.32222222222222224
239,2,perfume,mundamo,0,0,1,1,0.75,0.25,0.0,0.25,2768,2752,1553,2060,1591.0,1328.0,1550.0,2379.0,"[""uhuru"",""mundamo"",""silya"",""tembo""]","[""silya"",""tembo"",""mundamo"",""uhuru""]","[""tembo"",""silya"",""uhuru"",""mundamo""]","[""silya"",""tembo"",""mundamo"",""uhuru""]",v,n,j,n,f,j,j,n,uhuru,uhuru,mundamo,mundamo,150,490,977,1142,0,0.25,1.0,-0.25,0.25,1,1.0,0.2111111111111111,0.32222222222222224
240,2,picture,msumari,0,0,0,1,0.25,0.75,0.25,0.0,2085,24565,2524,2177,1547.0,1308.0,1223.0,1710.0,"[""bata"",""kelele"",""bandari"",""msumari""]","[""kelele"",""msumari"",""bata"",""bandari""]","[""msumari"",""bandari"",""kelele"",""bata""]","[""kelele"",""bandari"",""bata"",""msumari""]",j,v,f,j,v,j,j,j,kelele,bandari,bata,msumari,262,391,1013,1190,0,0.75,1.0,-0.75,0.75,0,0.5,0.2111111111111111,0.32222222222222224
241,2,poster,leso,1,0,0,0,0.5,1.0,0.5,0.75,2484,3077,6916,3312,1946.0,1658.0,2874.0,1335.0,"[""kichwa"",""mbolea"",""mapafu"",""leso""]","[""leso"",""mapafu"",""kichwa"",""mbolea""]","[""mapafu"",""leso"",""kichwa"",""mbolea""]","[""mapafu"",""kichwa"",""mbolea"",""leso""]",j,f,v,j,j,v,f,f,leso,mapafu,mapafu,mapafu,260,412,1069,1216,0,1.0,1.0,-1.0,1.0,0,0.0,0.2111111111111111,0.32222222222222224
242,2,pudding,adhabu,0,1,0,0,0.75,0.25,0.5,0.75,3336,2145,2581,2137,1687.0,1167.0,2610.0,1174.0,"[""adhabu"",""osha"",""ndaniya"",""baba""]","[""ndaniya"",""baba"",""adhabu"",""osha""]","[""adhabu"",""baba"",""osha"",""ndaniya""]","[""ndaniya"",""osha"",""baba"",""adhabu""]",f,n,f,j,j,n,v,n,baba,adhabu,baba,baba,134,340,911,1186,1,0.25,1.0,0.75,0.75,0,0.0,0.2111111111111111,0.32222222222222224
243,2,puppet,sehemu,1,1,0,0,0.25,0.5,0.75,0.0,2808,1814,2937,1400,1398.0,1414.0,1469.0,1379.0,"[""sehemu"",""kahawa"",""starehe"",""chubani""]","[""sehemu"",""kahawa"",""chubani"",""starehe""]","[""starehe"",""sehemu"",""kahawa"",""chubani""]","[""sehemu"",""chubani"",""starehe"",""kahawa""]",f,f,v,f,f,f,n,v,sehemu,sehemu,kahawa,chubani,130,502,955,1254,1,0.5,1.0,0.5,0.5,0,0.0,0.2111111111111111,0.32222222222222224
244,2,rose,bahari,0,1,0,0,0.75,0.5,0.25,0.75,2149,2092,2804,3724,1078.0,1411.0,1114.0,1050.0,"[""bahari"",""kawa"",""napulo"",""jokofu""]","[""napulo"",""jokofu"",""kawa"",""bahari""]","[""napulo"",""kawa"",""jokofu"",""bahari""]","[""jokofu"",""napulo"",""bahari"",""kawa""]",f,j,j,n,v,j,v,j,kawa,bahari,kawa,kawa,146,424,1071,1178,1,0.5,1.0,0.5,0.5,0,0.0,0.2111111111111111,0.32222222222222224
245,2,salmon,kweli,1,1,0,1,0.25,1.0,0.75,0.25,3244,1236,1636,1652,1195.0,1773.0,971.0,1115.0,"[""lima"",""simu"",""kweli"",""pahiyum""]","[""kweli"",""lima"",""pahiyum"",""simu""]","[""lima"",""pahiyum"",""kweli"",""simu""]","[""kweli"",""simu"",""lima"",""pahiyum""]",n,f,n,f,n,f,v,f,kweli,kweli,pahiyum,kweli,126,469,1053,1144,1,1,0.0,0,0,0,0.5,0.2111111111111111,0.32222222222222224
246,2,scissors,tinapay,1,0,1,1,0.75,0.5,0.75,0.75,6248,1789,3496,2005,1791.0,1300.0,1231.0,1382.0,"[""tinapay"",""pintal"",""gorisi"",""kinywa""]","[""kinywa"",""gorisi"",""tinapay"",""pintal""]","[""kinywa"",""pintal"",""gorisi"",""tinapay""]","[""gorisi"",""kinywa"",""pintal"",""tinapay""]",f,n,j,j,f,f,j,j,tinapay,kinywa,tinapay,tinapay,142,511,903,1184,0,0.5,1.0,-0.5,0.5,1,1.0,0.2111111111111111,0.32222222222222224
247,2,sheet,pagtabon,0,0,0,0,0.0,0.25,0.0,0.75,7368,2604,2210,3448,2183.0,1300.0,1029.0,946.0,"[""bado"",""hulma"",""uongo"",""pagtabon""]","[""bado"",""pagtabon"",""hulma"",""uongo""]","[""pagtabon"",""uongo"",""bado"",""hulma""]","[""bado"",""hulma"",""pagtabon"",""uongo""]",j,v,f,n,n,f,j,j,uongo,bado,hulma,uongo,210,358,973,1114,0,0.25,1.0,-0.25,0.25,0,0.0,0.2111111111111111,0.32222222222222224
248,2,shelf,kamwe,0,0,0,0,0.75,0.75,0.75,0.0,3512,4283,11460,6625,2083.0,1171.0,1363.0,930.0,"[""mahugaw"",""layag"",""kitande"",""kamwe""]","[""kitande"",""layag"",""mahugaw"",""kamwe""]","[""kitande"",""mahugaw"",""layag"",""kamwe""]","[""kitande"",""mahugaw"",""kamwe"",""layag""]",j,j,j,n,f,n,v,v,mahugaw,mahugaw,mahugaw,mahugaw,114,481,1017,1194,0,0.75,1.0,-0.75,0.75,0,0.0,0.2111111111111111,0.32222222222222224
249,2,shoe,kabalaka,0,1,0,0,0.5,1.0,0.25,0.25,3304,5280,2836,1820,1518.0,1773.0,1790.0,1555.0,"[""godoro"",""abogado"",""juuya"",""kabalaka""]","[""abogado"",""godoro"",""kabalaka"",""juuya""]","[""godoro"",""abogado"",""juuya"",""kabalaka""]","[""godoro"",""juuya"",""kabalaka"",""abogado""]",j,n,j,n,f,n,v,v,godoro,kabalaka,abogado,juuya,228,535,943,1226,1,1,0.0,0,0,0,0.0,0.2111111111111111,0.32222222222222224
250,2,shop,mvua,1,1,0,0,0.75,1.0,0.25,0.25,2296,2140,1476,1481,1062.0,2008.0,1274.0,1687.0,"[""mvua"",""shimoni"",""kuacha"",""sungura""]","[""kuacha"",""mvua"",""shimoni"",""sungura""]","[""shimoni"",""sungura"",""kuacha"",""mvua""]","[""sungura"",""kuacha"",""mvua"",""shimoni""]",f,v,j,n,f,v,v,f,mvua,mvua,sungura,sungura,156,400,1063,1252,1,1,0.0,0,0,0,0.0,0.2111111111111111,0.32222222222222224
