"rt","en_word","options","swa_word","correct_answer","phase","trial_type","trial_index","input_answer","input_word","accuracy","certainty","swahili_knowledge","previous_subject"
"2780","sun","bendi,luha,uongo,basi","basi","n","4","html-keyboard-response","5","n","basi","true","","",""
"2462","","","","","4","html-slider-response","6","","","","4","",""
"5161","basket","kumba,kumbuka,utepe,hasira","kumba","f","4","html-keyboard-response","7","f","kumba","true","","",""
"2756","","","","","4","html-slider-response","8","","","","2","",""
"6759","curtain","mchanga,lisud,bulwawan,chubani","mchanga","f","4","html-keyboard-response","9","f","mchanga","true","","",""
"3029","","","","","4","html-slider-response","10","","","","2","",""
"4238","park","tambok,pwani,ihalas,bunifu","bunifu","n","4","html-keyboard-response","11","n","bunifu","true","","",""
"2393","","","","","4","html-slider-response","12","","","","4","",""
"3468","nose","sehemu,gubat,kopa,kidole","sehemu","f","4","html-keyboard-response","13","f","sehemu","true","","",""
"3443","","","","","4","html-slider-response","14","","","","3","",""
"6421","window","nanga,kujenga,kweli,umaga","kweli","j","4","html-keyboard-response","15","j","kweli","true","","",""
"4821","","","","","4","html-slider-response","16","","","","3","",""
"8260","cave","ganti,maisha,nyundo,kesho","kesho","n","4","html-keyboard-response","17","n","kesho","true","","",""
"4646","","","","","4","html-slider-response","18","","","","3","",""
"10579","woman","pagtabon,bandari,bituin,kovuli","pagtabon","f","4","html-keyboard-response","19","f","pagtabon","true","","",""
"2597","","","","","4","html-slider-response","20","","","","4","",""
"2789","bed","mapintas,kalipay,haraka,starehe","mapintas","f","4","html-keyboard-response","21","f","mapintas","true","","",""
"3620","","","","","4","html-slider-response","22","","","","3","",""
"3556","column","pundok,dila,pala,ufagio","ufagio","n","4","html-keyboard-response","23","n","ufagio","true","","",""
"2840","","","","","4","html-slider-response","24","","","","4","",""
"2937","fish","buli,bala,baho,imani","buli","f","4","html-keyboard-response","25","f","buli","true","","",""
"3135","","","","","4","html-slider-response","26","","","","3","",""
"2380","boat","hamsi,pombe,agalon,kitanda","agalon","j","4","html-keyboard-response","27","n","kitanda","false","","",""
"2280","","","","","4","html-slider-response","28","","","","2","",""
"1940","cop","bustani,jikoni,bakus,mechezo","mechezo","n","4","html-keyboard-response","29","n","mechezo","true","","",""
"2622","","","","","4","html-slider-response","30","","","","5","",""
"1988","shoulder","mkuu,kelele,ndaniya,guruwe","mkuu","f","4","html-keyboard-response","31","f","mkuu","true","","",""
"2922","","","","","4","html-slider-response","32","","","","4","",""
"4784","magazine","gundi,kiti,mchawi,bahandi","kiti","v","4","html-keyboard-response","33","v","kiti","true","","",""
"1865","","","","","4","html-slider-response","34","","","","2","",""
"3409","gift","baba,nyange,pagtawag,baso","pagtawag","j","4","html-keyboard-response","35","n","baso","false","","",""
"2246","","","","","4","html-slider-response","36","","","","2","",""
"3194","clock","kartasi,abang,osha,mbwa","mbwa","n","4","html-keyboard-response","37","n","mbwa","true","","",""
"2964","","","","","4","html-slider-response","38","","","","3","",""
"16667","squirrel","mahugaw,hofu,ukweli,kichwa","hofu","v","4","html-keyboard-response","39","f","mahugaw","false","","",""
"3195","","","","","4","html-slider-response","40","","","","3","",""
"6341","key","miaka,goma,chombo,ahos","chombo","j","4","html-keyboard-response","41","j","chombo","true","","",""
"2771","","","","","4","html-slider-response","42","","","","4","",""
"8910","salmon","sensilyo,mzungu,seri,baharia","sensilyo","f","4","html-keyboard-response","43","f","sensilyo","true","","",""
"2539","","","","","4","html-slider-response","44","","","","4","",""
"2428","puppet","napulo,mazishi,lamok,godoro","mazishi","v","4","html-keyboard-response","45","v","mazishi","true","","",""
"2852","","","","","4","html-slider-response","46","","","","2","",""
"4307","letter","filimbi,chuma,kifua,uhuru","kifua","j","4","html-keyboard-response","47","j","kifua","true","","",""
"2027","","","","","4","html-slider-response","48","","","","4","",""
"3979","flag","ndege,mkate,trekta,kawa","trekta","j","4","html-keyboard-response","49","j","trekta","true","","",""
"3265","","","","","4","html-slider-response","50","","","","3","",""
"2061","mother","kahawa,mbuzi,jokofu,babaye","babaye","n","4","html-keyboard-response","51","n","babaye","true","","",""
"2134","","","","","4","html-slider-response","52","","","","5","",""
"8541","ceiling","kugita,kawaida,maua,rayna","maua","j","4","html-keyboard-response","53","j","maua","true","","",""
"2620","","","","","4","html-slider-response","54","","","","3","",""
"4534","stone","wingi,ulimwengu,mkasi,asili","wingi","f","4","html-keyboard-response","55","n","asili","false","","",""
"3147","","","","","4","html-slider-response","56","","","","3","",""
"3222","sock","ndoora,kimysa,mamba,mtirka","mamba","j","4","html-keyboard-response","57","j","mamba","true","","",""
"2072","","","","","4","html-slider-response","58","","","","4","",""
"2092","rose","paghalad,singizi,mwanake,amani","paghalad","f","4","html-keyboard-response","59","f","paghalad","true","","",""
"2441","","","","","4","html-slider-response","60","","","","5","",""
"2806","office","hazini,leso,yatima,kuna","leso","v","4","html-keyboard-response","61","v","leso","true","","",""
"2522","","","","","4","html-slider-response","62","","","","4","",""
"2367","number","shule,kengele,choori,mundamo","mundamo","n","4","html-keyboard-response","63","n","mundamo","true","","",""
"2188","","","","","4","html-slider-response","64","","","","5","",""
"4889","lamp","daub,afya,bilaska,mbolea","afya","v","4","html-keyboard-response","65","v","afya","true","","",""
"2806","","","","","4","html-slider-response","66","","","","3","",""
"6536","dog","lubi,washia,kalamu,bahari","bahari","n","4","html-keyboard-response","67","n","bahari","true","","",""
"2674","","","","","4","html-slider-response","68","","","","3","",""
"2094","mosquito","isda,martilyo,taras,gutom","martilyo","v","4","html-keyboard-response","69","v","martilyo","true","","",""
"3502","","","","","4","html-slider-response","70","","","","5","",""
"6141","notebook","kemia,msitu,kila,mdudu","kemia","f","4","html-keyboard-response","71","n","mdudu","false","","",""
"3639","","","","","4","html-slider-response","72","","","","2","",""
"4308","apple","ukame,estante,edad,kisu","kisu","n","4","html-keyboard-response","73","n","kisu","true","","",""
"2535","","","","","4","html-slider-response","74","","","","5","",""
"4829","cigar","ndugu,kuta,mlango,adhabu","adhabu","n","4","html-keyboard-response","75","n","adhabu","true","","",""
"2910","","","","","4","html-slider-response","76","","","","2","",""
"16991","coffin","kioo,barua,tubag,hulma","kioo","f","4","html-keyboard-response","77","f","kioo","true","","",""
"2254","","","","","4","html-slider-response","78","","","","5","",""
"3136","shelf","bungtod,pamahaw,kadaot,awit","pamahaw","v","4","html-keyboard-response","79","v","pamahaw","true","","",""
"2297","","","","","4","html-slider-response","80","","","","4","",""
"2306","bread","kaili,dizeli,bugas,dari","dari","n","4","html-keyboard-response","81","n","dari","true","","",""
"2405","","","","","4","html-slider-response","82","","","","4","",""
"4907","olive","bata,siagi,welder,jiwe","jiwe","n","4","html-keyboard-response","83","n","jiwe","true","","",""
"2826","","","","","4","html-slider-response","84","","","","2","",""
"2431","spider","bunyag,mkboa,atop,kamwe","kamwe","n","4","html-keyboard-response","85","n","kamwe","true","","",""
"3834","","","","","4","html-slider-response","86","","","","4","",""
"5454","cat","neyemba,baki,akili,paghukom","paghukom","n","4","html-keyboard-response","87","n","paghukom","true","","",""
"2744","","","","","4","html-slider-response","88","","","","3","",""
"1902","pudding","abug,aibu,mpishi,iring","aibu","v","4","html-keyboard-response","89","j","mpishi","false","","",""
"2335","","","","","4","html-slider-response","90","","","","1","",""
"1782","towel","pagpalit,tembo,funzi,pito","pagpalit","f","4","html-keyboard-response","91","f","pagpalit","true","","",""
"2263","","","","","4","html-slider-response","92","","","","4","",""
"3241","bucket","baga,ijayo,init,kiatu","kiatu","n","4","html-keyboard-response","93","n","kiatu","true","","",""
"2195","","","","","4","html-slider-response","94","","","","4","",""
"6033","wheel","punda,tawo,bafuni,baadaye","bafuni","j","4","html-keyboard-response","95","f","punda","false","","",""
"3747","","","","","4","html-slider-response","96","","","","2","",""
"5125","ladder","mashua,mwanga,kamba,pangalan","pangalan","n","4","html-keyboard-response","97","v","mwanga","false","","",""
"3096","","","","","4","html-slider-response","98","","","","2","",""
"1787","marker","mapafu,salita,atay,maji","maji","n","4","html-keyboard-response","99","f","mapafu","false","","",""
"2306","","","","","4","html-slider-response","100","","","","4","",""
"5486","tomato","mvua,chupi,chupa,takatak","mvua","f","4","html-keyboard-response","101","j","chupa","false","","",""
"1939","","","","","4","html-slider-response","102","","","","2","",""
"1710","door","tena,soko,nyota,surali","surali","n","4","html-keyboard-response","103","f","tena","false","","",""
"2050","","","","","4","html-slider-response","104","","","","4","",""
"1406","bonfire","goti,mwezi,mfuko,kusanya","goti","f","4","html-keyboard-response","105","f","goti","true","","",""
"2122","","","","","4","html-slider-response","106","","","","5","",""
"4521","mirror","rangi,kanding,sulagma,furaha","sulagma","j","4","html-keyboard-response","107","j","sulagma","true","","",""
"2268","","","","","4","html-slider-response","108","","","","4","",""
"2986","giraffe","daraja,jumatu,mahitabo,hangyo","mahitabo","j","4","html-keyboard-response","109","j","mahitabo","true","","",""
"3776","","","","","4","html-slider-response","110","","","","3","",""
"3365","tissue","ugomvi,lamigas,kisiwa,katika","ugomvi","f","4","html-keyboard-response","111","v","lamigas","false","","",""
"2433","","","","","4","html-slider-response","112","","","","1","",""
"2320","snake","jansa,pagtukod,karon,mvringo","pagtukod","v","4","html-keyboard-response","113","n","mvringo","false","","",""
"1882","","","","","4","html-slider-response","114","","","","2","",""
"2565","finger","simu,sufuria,moyo,lima","moyo","j","4","html-keyboard-response","115","j","moyo","true","","",""
"2289","","","","","4","html-slider-response","116","","","","5","",""
"4005","train","sayari,itik,dakika,mungu","sayari","f","4","html-keyboard-response","117","j","dakika","false","","",""
"2254","","","","","4","html-slider-response","118","","","","2","",""
"4074","candle","gabi,geza,farasi,kupanda","geza","v","4","html-keyboard-response","119","v","geza","true","","",""
"2325","","","","","4","html-slider-response","120","","","","4","",""
"3068","book","kuhesa,mali,picha,mara","mali","v","4","html-keyboard-response","121","v","mali","true","","",""
"2221","","","","","4","html-slider-response","122","","","","5","",""
"2061","elephant","petye,pagduol,kito,suka","kito","j","4","html-keyboard-response","123","j","kito","true","","",""
"2230","","","","","4","html-slider-response","124","","","","5","",""
"1740","sheet","bililhon,juuya,watu,kamantis","bililhon","f","4","html-keyboard-response","125","f","bililhon","true","","",""
"2258","","","","","4","html-slider-response","126","","","","5","",""
"2693","banana","kasamok,hagdan,twai,kazi","kazi","n","4","html-keyboard-response","127","n","kazi","true","","",""
"2358","","","","","4","html-slider-response","128","","","","1","",""
"1963","perfume","katuyoan,bino,sungura,ndogo","katuyoan","f","4","html-keyboard-response","129","f","katuyoan","true","","",""
"2361","","","","","4","html-slider-response","130","","","","4","",""
"4930","bank","kudhibi,tualya,silingan,ofisi","silingan","j","4","html-keyboard-response","131","v","tualya","false","","",""
"2881","","","","","4","html-slider-response","132","","","","2","",""
"2402","tooth","kijiko,uadui,kabalaka,pahiyum","kabalaka","j","4","html-keyboard-response","133","j","kabalaka","true","","",""
"2112","","","","","4","html-slider-response","134","","","","4","",""
"3505","hill","kushoto,kukimba,matumbo,sweta","matumbo","j","4","html-keyboard-response","135","j","matumbo","true","","",""
"1971","","","","","4","html-slider-response","136","","","","1","",""
"2113","music","mraba,baiski,mageho,tumbo","baiski","v","4","html-keyboard-response","137","v","baiski","true","","",""
"3069","","","","","4","html-slider-response","138","","","","5","",""
"3675","pants","pintal,haki,chuki,hari","haki","v","4","html-keyboard-response","139","v","haki","true","","",""
"2936","","","","","4","html-slider-response","140","","","","4","",""
"1683","donkey","elfu,bloke,lalake,rombus","elfu","f","4","html-keyboard-response","141","f","elfu","true","","",""
"2742","","","","","4","html-slider-response","142","","","","4","",""
"3201","bridge","daima,ngono,sahani,panya","sahani","j","4","html-keyboard-response","143","n","panya","false","","",""
"2772","","","","","4","html-slider-response","144","","","","3","",""
"2966","list","alizeti,kuzama,wingu,kaso","wingu","j","4","html-keyboard-response","145","f","alizeti","false","","",""
"2481","","","","","4","html-slider-response","146","","","","3","",""
"1920","box","adui,kuacha,rafiki,kitande","adui","f","4","html-keyboard-response","147","f","adui","true","","",""
"2410","","","","","4","html-slider-response","148","","","","4","",""
"1692","wolf","lugha,kaburi,ndizi,mchuzi","lugha","f","4","html-keyboard-response","149","f","lugha","true","","",""
"2241","","","","","4","html-slider-response","150","","","","5","",""
"2639","poster","nchi,madungog,fedha,kasuko","madungog","v","4","html-keyboard-response","151","n","kasuko","false","","",""
"3623","","","","","4","html-slider-response","152","","","","1","",""
"3497","eel","msumari,ishara,kunywa,kabuang","msumari","f","4","html-keyboard-response","153","f","msumari","true","","",""
"2401","","","","","4","html-slider-response","154","","","","2","",""
"3306","scissors","duga,mtawa,suga,tanuri","tanuri","n","4","html-keyboard-response","155","n","tanuri","true","","",""
"2208","","","","","4","html-slider-response","156","","","","2","",""
"2843","shop","nopya,samaki,kerida,ndezu","samaki","v","4","html-keyboard-response","157","v","samaki","true","","",""
"3174","","","","","4","html-slider-response","158","","","","3","",""
"2593","flower","tamasha,lobo,usiku,bega","bega","n","4","html-keyboard-response","159","n","bega","true","","",""
"2304","","","","","4","html-slider-response","160","","","","4","",""
"2850","picture","silya,kubwa,chaki,asin","kubwa","v","4","html-keyboard-response","161","f","silya","false","","",""
"2819","","","","","4","html-slider-response","162","","","","3","",""
"1893","spoon","betri,nzuri,ngazi,pagsulod","pagsulod","n","4","html-keyboard-response","163","n","pagsulod","true","","",""
"3573","","","","","4","html-slider-response","164","","","","3","",""
"3052","fork","baboy,paghago,gorisi,mgonjwa","mgonjwa","n","4","html-keyboard-response","165","v","paghago","false","","",""
"2383","","","","","4","html-slider-response","166","","","","4","",""
"2452","shoe","nyeusi,uyoga,hatua,kama","uyoga","v","4","html-keyboard-response","167","j","hatua","false","","",""
"2211","","","","","4","html-slider-response","168","","","","1","",""
"2131","human","tinapay,bado,kikapu,punguza","tinapay","f","4","html-keyboard-response","169","f","tinapay","true","","",""
"2765","","","","","4","html-slider-response","170","","","","5","",""
"4148","cup","dagat,shimoni,matumai,jeraha","matumai","j","4","html-keyboard-response","171","n","jeraha","false","","",""
"2255","","","","","4","html-slider-response","172","","","","2","",""
"2246","hammer","mekno,kitovu,napakyas,layag","napakyas","j","4","html-keyboard-response","173","j","napakyas","true","","",""
"3589","","","","","4","html-slider-response","174","","","","3","",""
"2693","body","nyundu,tindashan,jibini,kununa","tindashan","v","4","html-keyboard-response","175","v","tindashan","true","","",""
"2652","","","","","4","html-slider-response","176","","","","4","",""
"2624","page","wakala,wimbo,ishiri,skina","wimbo","v","4","html-keyboard-response","177","v","wimbo","true","","",""
"3045","","","","","4","html-slider-response","178","","","","3","",""
"4938","triangle","kihozi,bentaha,kasadpan,liog","kasadpan","j","4","html-keyboard-response","179","j","kasadpan","true","","",""
"2670","","","","","4","html-slider-response","180","","","","3","",""
"10246","berry","abogado,kofia,nogozi,kinywa","kofia","v","4","html-keyboard-response","181","j","nogozi","false","","",""
"2206","","","","","4","html-slider-response","182","","","","2","",""
"2532","knee","duka,mvuke,kubale,bili","duka","f","4","html-keyboard-response","183","f","duka","true","","",""
"3200","","","","","4","html-slider-response","184","","","","5","",""
"3075","picture","silya,kubwa,chaki,asin","kubwa","v","5","html-keyboard-response","188","f","silya","false","","",""
"2316","","","","","5","html-slider-response","189","","","","2","",""
"1426","elephant","kito,petye,pagduol,suka","kito","f","5","html-keyboard-response","190","f","kito","true","","",""
"2318","","","","","5","html-slider-response","191","","","","5","",""
"1659","office","hazini,yatima,kuna,leso","leso","n","5","html-keyboard-response","192","n","leso","true","","",""
"3816","","","","","5","html-slider-response","193","","","","4","",""
"1621","perfume","bino,katuyoan,sungura,ndogo","katuyoan","v","5","html-keyboard-response","194","v","katuyoan","true","","",""
"2362","","","","","5","html-slider-response","195","","","","5","",""
"1491","salmon","sensilyo,mzungu,seri,baharia","sensilyo","f","5","html-keyboard-response","196","f","sensilyo","true","","",""
"2462","","","","","5","html-slider-response","197","","","","4","",""
"2725","dog","lubi,bahari,washia,kalamu","bahari","v","5","html-keyboard-response","198","v","bahari","true","","",""
"3336","","","","","5","html-slider-response","199","","","","4","",""
"3076","wheel","bafuni,punda,tawo,baadaye","bafuni","f","5","html-keyboard-response","200","f","bafuni","true","","",""
"2507","","","","","5","html-slider-response","201","","","","2","",""
"1821","cat","neyemba,baki,paghukom,akili","paghukom","j","5","html-keyboard-response","202","j","paghukom","true","","",""
"2795","","","","","5","html-slider-response","203","","","","4","",""
"3066","curtain","lisud,bulwawan,chubani,mchanga","mchanga","n","5","html-keyboard-response","204","v","bulwawan","false","","",""
"3462","","","","","5","html-slider-response","205","","","","1","",""
"2117","flower","tamasha,lobo,usiku,bega","bega","n","5","html-keyboard-response","206","n","bega","true","","",""
"2125","","","","","5","html-slider-response","207","","","","4","",""
"1540","number","shule,mundamo,kengele,choori","mundamo","v","5","html-keyboard-response","208","v","mundamo","true","","",""
"1952","","","","","5","html-slider-response","209","","","","4","",""
"3112","banana","kasamok,hagdan,kazi,twai","kazi","j","5","html-keyboard-response","210","j","kazi","true","","",""
"1862","","","","","5","html-slider-response","211","","","","2","",""
"2240","magazine","gundi,mchawi,bahandi,kiti","kiti","n","5","html-keyboard-response","212","n","kiti","true","","",""
"2773","","","","","5","html-slider-response","213","","","","3","",""
"1296","donkey","elfu,bloke,lalake,rombus","elfu","f","5","html-keyboard-response","214","f","elfu","true","","",""
"1927","","","","","5","html-slider-response","215","","","","5","",""
"1779","mosquito","isda,taras,gutom,martilyo","martilyo","n","5","html-keyboard-response","216","n","martilyo","true","","",""
"2419","","","","","5","html-slider-response","217","","","","5","",""
"3360","shoe","nyeusi,hatua,kama,uyoga","uyoga","n","5","html-keyboard-response","218","v","hatua","false","","",""
"2037","","","","","5","html-slider-response","219","","","","2","",""
"4620","stone","ulimwengu,mkasi,wingi,asili","wingi","j","5","html-keyboard-response","220","f","ulimwengu","false","","",""
"1967","","","","","5","html-slider-response","221","","","","2","",""
"3194","tomato","chupi,chupa,takatak,mvua","mvua","n","5","html-keyboard-response","222","f","chupi","false","","",""
"7881","","","","","5","html-slider-response","223","","","","3","",""
"2594","ceiling","kugita,kawaida,maua,rayna","maua","j","5","html-keyboard-response","224","j","maua","true","","",""
"3599","","","","","5","html-slider-response","225","","","","3","",""
"2925","mirror","rangi,sulagma,kanding,furaha","sulagma","v","5","html-keyboard-response","226","v","sulagma","true","","",""
"3110","","","","","5","html-slider-response","227","","","","3","",""
"1470","coffin","barua,tubag,hulma,kioo","kioo","n","5","html-keyboard-response","228","n","kioo","true","","",""
"2355","","","","","5","html-slider-response","229","","","","5","",""
"1523","spoon","pagsulod,betri,nzuri,ngazi","pagsulod","f","5","html-keyboard-response","230","f","pagsulod","true","","",""
"2094","","","","","5","html-slider-response","231","","","","4","",""
"3138","marker","mapafu,salita,atay,maji","maji","n","5","html-keyboard-response","232","f","mapafu","false","","",""
"2470","","","","","5","html-slider-response","233","","","","1","",""
"3200","list","alizeti,kuzama,wingu,kaso","wingu","j","5","html-keyboard-response","234","f","alizeti","false","","",""
"2268","","","","","5","html-slider-response","235","","","","2","",""
"2620","hill","kushoto,kukimba,sweta,matumbo","matumbo","n","5","html-keyboard-response","236","n","matumbo","true","","",""
"3008","","","","","5","html-slider-response","237","","","","3","",""
"2910","shelf","bungtod,kadaot,awit,pamahaw","pamahaw","n","5","html-keyboard-response","238","n","pamahaw","true","","",""
"3024","","","","","5","html-slider-response","239","","","","3","",""
"2195","bucket","baga,ijayo,init,kiatu","kiatu","n","5","html-keyboard-response","240","n","kiatu","true","","",""
"3145","","","","","5","html-slider-response","241","","","","4","",""
"3032","ladder","mashua,pangalan,mwanga,kamba","pangalan","v","5","html-keyboard-response","242","j","mwanga","false","","",""
"3026","","","","","5","html-slider-response","243","","","","2","",""
"1586","human","bado,kikapu,tinapay,punguza","tinapay","j","5","html-keyboard-response","244","j","tinapay","true","","",""
"2613","","","","","5","html-slider-response","245","","","","5","",""
"3898","tissue","lamigas,kisiwa,ugomvi,katika","ugomvi","j","5","html-keyboard-response","246","v","kisiwa","false","","",""
"2177","","","","","5","html-slider-response","247","","","","1","",""
"2253","finger","simu,sufuria,lima,moyo","moyo","n","5","html-keyboard-response","248","n","moyo","true","","",""
"2763","","","","","5","html-slider-response","249","","","","5","",""
"1967","cave","kesho,ganti,maisha,nyundo","kesho","f","5","html-keyboard-response","250","f","kesho","true","","",""
"2206","","","","","5","html-slider-response","251","","","","2","",""
"1647","rose","singizi,mwanake,paghalad,amani","paghalad","j","5","html-keyboard-response","252","j","paghalad","true","","",""
"2578","","","","","5","html-slider-response","253","","","","5","",""
"2855","lamp","daub,bilaska,afya,mbolea","afya","j","5","html-keyboard-response","254","j","afya","true","","",""
"2150","","","","","5","html-slider-response","255","","","","2","",""
"1437","shoulder","mkuu,kelele,ndaniya,guruwe","mkuu","f","5","html-keyboard-response","256","f","mkuu","true","","",""
"2370","","","","","5","html-slider-response","257","","","","4","",""
"2775","sock","mamba,ndoora,kimysa,mtirka","mamba","f","5","html-keyboard-response","258","f","mamba","true","","",""
"2817","","","","","5","html-slider-response","259","","","","3","",""
"1707","mother","kahawa,mbuzi,jokofu,babaye","babaye","n","5","html-keyboard-response","260","n","babaye","true","","",""
"2581","","","","","5","html-slider-response","261","","","","5","",""
"2392","key","miaka,goma,ahos,chombo","chombo","n","5","html-keyboard-response","262","n","chombo","true","","",""
"2405","","","","","5","html-slider-response","263","","","","4","",""
"1945","squirrel","mahugaw,ukweli,kichwa,hofu","hofu","n","5","html-keyboard-response","264","f","mahugaw","false","","",""
"2557","","","","","5","html-slider-response","265","","","","2","",""
"1603","nose","gubat,kopa,sehemu,kidole","sehemu","j","5","html-keyboard-response","266","j","sehemu","true","","",""
"2874","","","","","5","html-slider-response","267","","","","3","",""
"2139","book","kuhesa,mali,picha,mara","mali","v","5","html-keyboard-response","268","v","mali","true","","",""
"2579","","","","","5","html-slider-response","269","","","","4","",""
"2908","bank","kudhibi,tualya,silingan,ofisi","silingan","j","5","html-keyboard-response","270","n","ofisi","false","","",""
"1956","","","","","5","html-slider-response","271","","","","1","",""
"1993","cup","dagat,shimoni,matumai,jeraha","matumai","j","5","html-keyboard-response","272","f","dagat","false","","",""
"2011","","","","","5","html-slider-response","273","","","","2","",""
"2536","boat","hamsi,agalon,pombe,kitanda","agalon","v","5","html-keyboard-response","274","n","kitanda","false","","",""
"3019","","","","","5","html-slider-response","275","","","","3","",""
"1764","letter","filimbi,chuma,kifua,uhuru","kifua","j","5","html-keyboard-response","276","j","kifua","true","","",""
"2529","","","","","5","html-slider-response","277","","","","4","",""
"1880","puppet","napulo,mazishi,lamok,godoro","mazishi","v","5","html-keyboard-response","278","v","mazishi","true","","",""
"2279","","","","","5","html-slider-response","279","","","","4","",""
"1843","apple","ukame,kisu,estante,edad","kisu","v","5","html-keyboard-response","280","v","kisu","true","","",""
"3052","","","","","5","html-slider-response","281","","","","5","",""
"1674","tooth","kijiko,uadui,pahiyum,kabalaka","kabalaka","n","5","html-keyboard-response","282","n","kabalaka","true","","",""
"2365","","","","","5","html-slider-response","283","","","","4","",""
"1721","shop","nopya,samaki,kerida,ndezu","samaki","v","5","html-keyboard-response","284","v","samaki","true","","",""
"3089","","","","","5","html-slider-response","285","","","","3","",""
"1882","sun","bendi,basi,luha,uongo","basi","v","5","html-keyboard-response","286","f","bendi","false","","",""
"2306","","","","","5","html-slider-response","287","","","","4","",""
"2351","knee","mvuke,kubale,duka,bili","duka","j","5","html-keyboard-response","288","j","duka","true","","",""
"2189","","","","","5","html-slider-response","289","","","","4","",""
"2026","fork","baboy,paghago,gorisi,mgonjwa","mgonjwa","n","5","html-keyboard-response","290","v","paghago","false","","",""
"2061","","","","","5","html-slider-response","291","","","","4","",""
"1637","wolf","kaburi,ndizi,mchuzi,lugha","lugha","n","5","html-keyboard-response","292","n","lugha","true","","",""
"2148","","","","","5","html-slider-response","293","","","","5","",""
"1543","sheet","juuya,bililhon,watu,kamantis","bililhon","v","5","html-keyboard-response","294","v","bililhon","true","","",""
"2096","","","","","5","html-slider-response","295","","","","4","",""
"2512","giraffe","daraja,jumatu,hangyo,mahitabo","mahitabo","n","5","html-keyboard-response","296","n","mahitabo","true","","",""
"2688","","","","","5","html-slider-response","297","","","","3","",""
"1582","bread","kaili,dizeli,dari,bugas","dari","j","5","html-keyboard-response","298","j","dari","true","","",""
"2690","","","","","5","html-slider-response","299","","","","3","",""
"4287","box","kuacha,rafiki,kitande,adui","adui","n","5","html-keyboard-response","300","n","adui","true","","",""
"2035","","","","","5","html-slider-response","301","","","","4","",""
"1470","cop","bustani,mechezo,jikoni,bakus","mechezo","v","5","html-keyboard-response","302","v","mechezo","true","","",""
"2256","","","","","5","html-slider-response","303","","","","5","",""
"2157","fish","buli,bala,baho,imani","buli","f","5","html-keyboard-response","304","f","buli","true","","",""
"2139","","","","","5","html-slider-response","305","","","","4","",""
"2150","door","surali,tena,soko,nyota","surali","f","5","html-keyboard-response","306","f","surali","true","","",""
"2679","","","","","5","html-slider-response","307","","","","2","",""
"3501","woman","bandari,pagtabon,bituin,kovuli","pagtabon","v","5","html-keyboard-response","308","v","pagtabon","true","","",""
"3800","","","","","5","html-slider-response","309","","","","3","",""
"3785","clock","kartasi,mbwa,abang,osha","mbwa","v","5","html-keyboard-response","310","v","mbwa","true","","",""
"2323","","","","","5","html-slider-response","311","","","","2","",""
"2642","berry","kofia,abogado,nogozi,kinywa","kofia","f","5","html-keyboard-response","312","j","nogozi","false","","",""
"2746","","","","","5","html-slider-response","313","","","","1","",""
"1566","towel","pagpalit,tembo,funzi,pito","pagpalit","f","5","html-keyboard-response","314","f","pagpalit","true","","",""
"2722","","","","","5","html-slider-response","315","","","","4","",""
"2070","pudding","abug,aibu,mpishi,iring","aibu","v","5","html-keyboard-response","316","j","mpishi","false","","",""
"2141","","","","","5","html-slider-response","317","","","","1","",""
"1816","park","bunifu,tambok,pwani,ihalas","bunifu","f","5","html-keyboard-response","318","f","bunifu","true","","",""
"2768","","","","","5","html-slider-response","319","","","","4","",""
"1510","body","tindashan,nyundu,jibini,kununa","tindashan","f","5","html-keyboard-response","320","f","tindashan","true","","",""
"2455","","","","","5","html-slider-response","321","","","","4","",""
"2595","olive","bata,siagi,jiwe,welder","jiwe","j","5","html-keyboard-response","322","j","jiwe","true","","",""
"3949","","","","","5","html-slider-response","323","","","","3","",""
"3120","poster","nchi,fedha,madungog,kasuko","madungog","j","5","html-keyboard-response","324","v","fedha","false","","",""
"2083","","","","","5","html-slider-response","325","","","","1","",""
"1987","hammer","mekno,kitovu,layag,napakyas","napakyas","n","5","html-keyboard-response","326","n","napakyas","true","","",""
"2945","","","","","5","html-slider-response","327","","","","3","",""
"2545","train","itik,dakika,mungu,sayari","sayari","n","5","html-keyboard-response","328","v","dakika","false","","",""
"2423","","","","","5","html-slider-response","329","","","","2","",""
"3140","cigar","ndugu,kuta,adhabu,mlango","adhabu","j","5","html-keyboard-response","330","j","adhabu","true","","",""
"2310","","","","","5","html-slider-response","331","","","","1","",""
"2104","spider","kamwe,bunyag,mkboa,atop","kamwe","f","5","html-keyboard-response","332","f","kamwe","true","","",""
"2017","","","","","5","html-slider-response","333","","","","4","",""
"2437","notebook","msitu,kila,kemia,mdudu","kemia","j","5","html-keyboard-response","334","v","kila","false","","",""
"2386","","","","","5","html-slider-response","335","","","","1","",""
"1677","candle","gabi,farasi,geza,kupanda","geza","j","5","html-keyboard-response","336","j","geza","true","","",""
"2782","","","","","5","html-slider-response","337","","","","4","",""
"1833","column","ufagio,pundok,dila,pala","ufagio","f","5","html-keyboard-response","338","f","ufagio","true","","",""
"2514","","","","","5","html-slider-response","339","","","","4","",""
"3230","basket","kumbuka,utepe,hasira,kumba","kumba","n","5","html-keyboard-response","340","j","hasira","false","","",""
"2430","","","","","5","html-slider-response","341","","","","1","",""
"2218","page","wakala,ishiri,skina,wimbo","wimbo","n","5","html-keyboard-response","342","n","wimbo","true","","",""
"3187","","","","","5","html-slider-response","343","","","","3","",""
"2872","bridge","daima,ngono,panya,sahani","sahani","n","5","html-keyboard-response","344","n","sahani","true","","",""
"2915","","","","","5","html-slider-response","345","","","","3","",""
"2549","window","nanga,kujenga,kweli,umaga","kweli","j","5","html-keyboard-response","346","j","kweli","true","","",""
"3736","","","","","5","html-slider-response","347","","","","3","",""
"3672","snake","jansa,karon,pagtukod,mvringo","pagtukod","j","5","html-keyboard-response","348","n","mvringo","false","","",""
"6898","","","","","5","html-slider-response","349","","","","3","",""
"2423","flag","trekta,ndege,mkate,kawa","trekta","f","5","html-keyboard-response","350","f","trekta","true","","",""
"2969","","","","","5","html-slider-response","351","","","","4","",""
"2461","bed","kalipay,mapintas,haraka,starehe","mapintas","v","5","html-keyboard-response","352","v","mapintas","true","","",""
"2391","","","","","5","html-slider-response","353","","","","4","",""
"1394","music","baiski,mraba,mageho,tumbo","baiski","f","5","html-keyboard-response","354","f","baiski","true","","",""
"2309","","","","","5","html-slider-response","355","","","","5","",""
"2654","gift","baba,pagtawag,nyange,baso","pagtawag","v","5","html-keyboard-response","356","v","pagtawag","true","","",""
"2804","","","","","5","html-slider-response","357","","","","4","",""
"1205","bonfire","goti,mwezi,mfuko,kusanya","goti","f","5","html-keyboard-response","358","f","goti","true","","",""
"2528","","","","","5","html-slider-response","359","","","","5","",""
"1931","scissors","duga,mtawa,suga,tanuri","tanuri","n","5","html-keyboard-response","360","n","tanuri","true","","",""
"1931","","","","","5","html-slider-response","361","","","","2","",""
"3652","eel","msumari,ishara,kunywa,kabuang","msumari","f","5","html-keyboard-response","362","f","msumari","true","","",""
"3487","","","","","5","html-slider-response","363","","","","3","",""
"2217","pants","pintal,haki,chuki,hari","haki","v","5","html-keyboard-response","364","v","haki","true","","",""
"2865","","","","","5","html-slider-response","365","","","","4","",""
"5085","triangle","kihozi,kasadpan,bentaha,liog","kasadpan","v","5","html-keyboard-response","366","v","kasadpan","true","","",""
"3074","","","","","5","html-slider-response","367","","","","3","",""
"5205","","","","","6","html-slider-response","369","","","","","1",""
"5811","","","","","6","html-keyboard-response","370","","","","","","false"
