"rt","en_word","options","swa_word","correct_answer","phase","trial_type","trial_index","input_answer","input_word","accuracy","certainty","swahili_knowledge","previous_subject"
"6907","sun","bendi,luha,basi,uongo","basi","j","4","html-keyboard-response","5","v","luha","false","","",""
"2527.5","","","","","4","html-slider-response","6","","","","2","",""
"4824","basket","kumbuka,utepe,kumba,hasira","kumba","j","4","html-keyboard-response","7","j","kumba","true","","",""
"4481.799999982119","","","","","4","html-slider-response","8","","","","3","",""
"3896","curtain","lisud,bulwawan,mchanga,chubani","mchanga","j","4","html-keyboard-response","9","j","mchanga","true","","",""
"2238.2999999821186","","","","","4","html-slider-response","10","","","","2","",""
"3572","park","tambok,pwani,bunifu,ihalas","bunifu","j","4","html-keyboard-response","11","f","tambok","false","","",""
"2456.699999988079","","","","","4","html-slider-response","12","","","","2","",""
"4663","nose","sehemu,gubat,kopa,kidole","sehemu","f","4","html-keyboard-response","13","f","sehemu","true","","",""
"2784.800000011921","","","","","4","html-slider-response","14","","","","2","",""
"33908","window","kweli,nanga,kujenga,umaga","kweli","f","4","html-keyboard-response","15","f","kweli","true","","",""
"2373.300000011921","","","","","4","html-slider-response","16","","","","2","",""
"3605","cave","ganti,kesho,maisha,nyundo","kesho","v","4","html-keyboard-response","17","v","kesho","true","","",""
"1855.699999988079","","","","","4","html-slider-response","18","","","","4","",""
"2462","woman","bandari,bituin,pagtabon,kovuli","pagtabon","j","4","html-keyboard-response","19","n","kovuli","false","","",""
"2562.699999988079","","","","","4","html-slider-response","20","","","","3","",""
"5842","bed","kalipay,haraka,mapintas,starehe","mapintas","j","4","html-keyboard-response","21","n","starehe","false","","",""
"3444.100000023842","","","","","4","html-slider-response","22","","","","3","",""
"6378","column","pundok,dila,pala,ufagio","ufagio","n","4","html-keyboard-response","23","f","pundok","false","","",""
"4391.600000023842","","","","","4","html-slider-response","24","","","","4","",""
"5517","fish","bala,buli,baho,imani","buli","v","4","html-keyboard-response","25","v","buli","true","","",""
"2831.2999999821186","","","","","4","html-slider-response","26","","","","4","",""
"10481","boat","hamsi,agalon,pombe,kitanda","agalon","v","4","html-keyboard-response","27","f","hamsi","false","","",""
"2364.5","","","","","4","html-slider-response","28","","","","2","",""
"5153","cop","bustani,jikoni,bakus,mechezo","mechezo","n","4","html-keyboard-response","29","n","mechezo","true","","",""
"4991.5999999940395","","","","","4","html-slider-response","30","","","","4","",""
"4791","shoulder","kelele,mkuu,ndaniya,guruwe","mkuu","v","4","html-keyboard-response","31","v","mkuu","true","","",""
"1744.3999999761581","","","","","4","html-slider-response","32","","","","4","",""
"4041","magazine","gundi,mchawi,bahandi,kiti","kiti","n","4","html-keyboard-response","33","n","kiti","true","","",""
"1718.5","","","","","4","html-slider-response","34","","","","4","",""
"8634","gift","baba,pagtawag,nyange,baso","pagtawag","v","4","html-keyboard-response","35","v","pagtawag","true","","",""
"2237.5999999940395","","","","","4","html-slider-response","36","","","","4","",""
"2682","clock","kartasi,abang,osha,mbwa","mbwa","n","4","html-keyboard-response","37","n","mbwa","true","","",""
"1494.300000011921","","","","","4","html-slider-response","38","","","","4","",""
"1789","squirrel","mahugaw,ukweli,kichwa,hofu","hofu","n","4","html-keyboard-response","39","n","hofu","true","","",""
"1726.2999999821186","","","","","4","html-slider-response","40","","","","5","",""
"3414","key","miaka,chombo,goma,ahos","chombo","v","4","html-keyboard-response","41","v","chombo","true","","",""
"2039.2999999821186","","","","","4","html-slider-response","42","","","","2","",""
"3661","salmon","sensilyo,mzungu,seri,baharia","sensilyo","f","4","html-keyboard-response","43","f","sensilyo","true","","",""
"1961.5999999940395","","","","","4","html-slider-response","44","","","","4","",""
"3686","puppet","napulo,lamok,mazishi,godoro","mazishi","j","4","html-keyboard-response","45","v","lamok","false","","",""
"2413.300000011921","","","","","4","html-slider-response","46","","","","2","",""
"2604","letter","filimbi,chuma,uhuru,kifua","kifua","n","4","html-keyboard-response","47","v","chuma","false","","",""
"2396.4000000059605","","","","","4","html-slider-response","48","","","","2","",""
"4932","flag","trekta,ndege,mkate,kawa","trekta","f","4","html-keyboard-response","49","f","trekta","true","","",""
"2441.0999999940395","","","","","4","html-slider-response","50","","","","4","",""
"2224","mother","kahawa,mbuzi,jokofu,babaye","babaye","n","4","html-keyboard-response","51","n","babaye","true","","",""
"1808","","","","","4","html-slider-response","52","","","","4","",""
"7720","ceiling","kugita,kawaida,maua,rayna","maua","j","4","html-keyboard-response","53","j","maua","true","","",""
"3916.5999999940395","","","","","4","html-slider-response","54","","","","2","",""
"5515","stone","wingi,ulimwengu,mkasi,asili","wingi","f","4","html-keyboard-response","55","f","wingi","true","","",""
"2457.899999976158","","","","","4","html-slider-response","56","","","","4","",""
"5238","sock","ndoora,mamba,kimysa,mtirka","mamba","v","4","html-keyboard-response","57","j","kimysa","false","","",""
"2095.5","","","","","4","html-slider-response","58","","","","2","",""
"4910","rose","singizi,mwanake,amani,paghalad","paghalad","n","4","html-keyboard-response","59","v","mwanake","false","","",""
"1764.2999999821186","","","","","4","html-slider-response","60","","","","2","",""
"4308","office","hazini,leso,yatima,kuna","leso","v","4","html-keyboard-response","61","f","hazini","false","","",""
"2786.2000000178814","","","","","4","html-slider-response","62","","","","1","",""
"4467","number","mundamo,shule,kengele,choori","mundamo","f","4","html-keyboard-response","63","n","choori","false","","",""
"2430.4000000059605","","","","","4","html-slider-response","64","","","","1","",""
"3170","lamp","afya,daub,bilaska,mbolea","afya","f","4","html-keyboard-response","65","v","daub","false","","",""
"2577.899999976158","","","","","4","html-slider-response","66","","","","2","",""
"4716","dog","lubi,washia,bahari,kalamu","bahari","j","4","html-keyboard-response","67","j","bahari","true","","",""
"1627.1000000238419","","","","","4","html-slider-response","68","","","","2","",""
"2530","mosquito","isda,taras,gutom,martilyo","martilyo","n","4","html-keyboard-response","69","n","martilyo","true","","",""
"1468.7000000178814","","","","","4","html-slider-response","70","","","","5","",""
"5945","notebook","msitu,kila,kemia,mdudu","kemia","j","4","html-keyboard-response","71","n","mdudu","false","","",""
"2798.9000000059605","","","","","4","html-slider-response","72","","","","2","",""
"3416","apple","ukame,kisu,estante,edad","kisu","v","4","html-keyboard-response","73","v","kisu","true","","",""
"2370.5999999940395","","","","","4","html-slider-response","74","","","","4","",""
"77303","cigar","ndugu,adhabu,kuta,mlango","adhabu","v","4","html-keyboard-response","75","f","ndugu","false","","",""
"2252.0999999940395","","","","","4","html-slider-response","76","","","","4","",""
"6411","coffin","barua,tubag,hulma,kioo","kioo","n","4","html-keyboard-response","77","n","kioo","true","","",""
"2517.800000011921","","","","","4","html-slider-response","78","","","","4","",""
"3304","shelf","bungtod,kadaot,awit,pamahaw","pamahaw","n","4","html-keyboard-response","79","f","bungtod","false","","",""
"2448.300000011921","","","","","4","html-slider-response","80","","","","2","",""
"8276","bread","dari,kaili,dizeli,bugas","dari","f","4","html-keyboard-response","81","v","kaili","false","","",""
"1908.6000000238419","","","","","4","html-slider-response","82","","","","2","",""
"3268","olive","bata,siagi,jiwe,welder","jiwe","j","4","html-keyboard-response","83","j","jiwe","true","","",""
"2024.800000011921","","","","","4","html-slider-response","84","","","","4","",""
"5409","spider","bunyag,kamwe,mkboa,atop","kamwe","v","4","html-keyboard-response","85","j","mkboa","false","","",""
"1984.7000000178814","","","","","4","html-slider-response","86","","","","2","",""
"3012","cat","neyemba,baki,akili,paghukom","paghukom","n","4","html-keyboard-response","87","v","baki","false","","",""
"4250.699999988079","","","","","4","html-slider-response","88","","","","2","",""
"2959","pudding","abug,mpishi,aibu,iring","aibu","j","4","html-keyboard-response","89","j","aibu","true","","",""
"1694.0999999940395","","","","","4","html-slider-response","90","","","","2","",""
"2542","towel","tembo,funzi,pito,pagpalit","pagpalit","n","4","html-keyboard-response","91","j","pito","false","","",""
"2046.7000000178814","","","","","4","html-slider-response","92","","","","4","",""
"4948","bucket","baga,ijayo,init,kiatu","kiatu","n","4","html-keyboard-response","93","n","kiatu","true","","",""
"2143.300000011921","","","","","4","html-slider-response","94","","","","2","",""
"13957","wheel","bafuni,punda,tawo,baadaye","bafuni","f","4","html-keyboard-response","95","n","baadaye","false","","",""
"1870.5","","","","","4","html-slider-response","96","","","","2","",""
"3979","ladder","mashua,mwanga,pangalan,kamba","pangalan","j","4","html-keyboard-response","97","j","pangalan","true","","",""
"2170.5","","","","","4","html-slider-response","98","","","","5","",""
"4507","marker","mapafu,salita,atay,maji","maji","n","4","html-keyboard-response","99","n","maji","true","","",""
"2615.5999999940395","","","","","4","html-slider-response","100","","","","4","",""
"4533","tomato","chupi,chupa,mvua,takatak","mvua","j","4","html-keyboard-response","101","v","chupa","false","","",""
"2959.5","","","","","4","html-slider-response","102","","","","2","",""
"3114","door","surali,tena,soko,nyota","surali","f","4","html-keyboard-response","103","n","nyota","false","","",""
"2376.9000000059605","","","","","4","html-slider-response","104","","","","2","",""
"2637","bonfire","goti,mwezi,mfuko,kusanya","goti","f","4","html-keyboard-response","105","j","mfuko","false","","",""
"1910.2999999821186","","","","","4","html-slider-response","106","","","","2","",""
"2711","mirror","rangi,kanding,sulagma,furaha","sulagma","j","4","html-keyboard-response","107","j","sulagma","true","","",""
"2361.5999999940395","","","","","4","html-slider-response","108","","","","5","",""
"10300","giraffe","daraja,mahitabo,jumatu,hangyo","mahitabo","v","4","html-keyboard-response","109","v","mahitabo","true","","",""
"1828.1000000238419","","","","","4","html-slider-response","110","","","","2","",""
"5633","tissue","lamigas,kisiwa,katika,ugomvi","ugomvi","n","4","html-keyboard-response","111","v","kisiwa","false","","",""
"1900.3999999761581","","","","","4","html-slider-response","112","","","","2","",""
"5373","snake","jansa,pagtukod,karon,mvringo","pagtukod","v","4","html-keyboard-response","113","v","pagtukod","true","","",""
"1644.5999999940395","","","","","4","html-slider-response","114","","","","2","",""
"2938","finger","simu,sufuria,lima,moyo","moyo","n","4","html-keyboard-response","115","n","moyo","true","","",""
"2595.2999999821186","","","","","4","html-slider-response","116","","","","2","",""
"20241","train","itik,dakika,sayari,mungu","sayari","j","4","html-keyboard-response","117","j","sayari","true","","",""
"1714.9000000059605","","","","","4","html-slider-response","118","","","","2","",""
"3467","candle","gabi,farasi,kupanda,geza","geza","n","4","html-keyboard-response","119","n","geza","true","","",""
"2237.800000011921","","","","","4","html-slider-response","120","","","","2","",""
"2513","book","kuhesa,picha,mara,mali","mali","n","4","html-keyboard-response","121","n","mali","true","","",""
"1778.8999999761581","","","","","4","html-slider-response","122","","","","4","",""
"13850","elephant","petye,kito,pagduol,suka","kito","v","4","html-keyboard-response","123","v","kito","true","","",""
"2695.2999999821186","","","","","4","html-slider-response","124","","","","4","",""
"2567","sheet","juuya,watu,bililhon,kamantis","bililhon","j","4","html-keyboard-response","125","j","bililhon","true","","",""
"1990.2000000178814","","","","","4","html-slider-response","126","","","","4","",""
"4343","banana","kazi,kasamok,hagdan,twai","kazi","f","4","html-keyboard-response","127","f","kazi","true","","",""
"1622.5","","","","","4","html-slider-response","128","","","","4","",""
"8152","perfume","katuyoan,bino,sungura,ndogo","katuyoan","f","4","html-keyboard-response","129","j","sungura","false","","",""
"5526.299999982119","","","","","4","html-slider-response","130","","","","2","",""
"5566","bank","kudhibi,tualya,ofisi,silingan","silingan","n","4","html-keyboard-response","131","n","silingan","true","","",""
"1951.5999999940395","","","","","4","html-slider-response","132","","","","4","",""
"4286","tooth","kabalaka,kijiko,uadui,pahiyum","kabalaka","f","4","html-keyboard-response","133","f","kabalaka","true","","",""
"2307.399999976158","","","","","4","html-slider-response","134","","","","2","",""
"2372","hill","kushoto,kukimba,sweta,matumbo","matumbo","n","4","html-keyboard-response","135","j","sweta","false","","",""
"2233.5999999940395","","","","","4","html-slider-response","136","","","","1","",""
"4818","music","mraba,mageho,baiski,tumbo","baiski","j","4","html-keyboard-response","137","n","tumbo","false","","",""
"2241.9000000059605","","","","","4","html-slider-response","138","","","","1","",""
"5378","pants","haki,pintal,chuki,hari","haki","f","4","html-keyboard-response","139","f","haki","true","","",""
"2245.2999999821186","","","","","4","html-slider-response","140","","","","5","",""
"3625","donkey","bloke,elfu,lalake,rombus","elfu","v","4","html-keyboard-response","141","v","elfu","true","","",""
"2050.699999988079","","","","","4","html-slider-response","142","","","","4","",""
"2802","bridge","daima,ngono,panya,sahani","sahani","n","4","html-keyboard-response","143","v","ngono","false","","",""
"2117.4000000059605","","","","","4","html-slider-response","144","","","","2","",""
"2498","list","wingu,alizeti,kuzama,kaso","wingu","f","4","html-keyboard-response","145","n","kaso","false","","",""
"2906.7000000178814","","","","","4","html-slider-response","146","","","","2","",""
"2351","box","kuacha,rafiki,adui,kitande","adui","j","4","html-keyboard-response","147","v","rafiki","false","","",""
"1780.5999999940395","","","","","4","html-slider-response","148","","","","2","",""
"3166","wolf","kaburi,lugha,ndizi,mchuzi","lugha","v","4","html-keyboard-response","149","v","lugha","true","","",""
"2830.9000000059605","","","","","4","html-slider-response","150","","","","5","",""
"3056","poster","nchi,fedha,madungog,kasuko","madungog","j","4","html-keyboard-response","151","j","madungog","true","","",""
"1947.5999999940395","","","","","4","html-slider-response","152","","","","5","",""
"2557","eel","msumari,ishara,kunywa,kabuang","msumari","f","4","html-keyboard-response","153","j","kunywa","false","","",""
"1918.699999988079","","","","","4","html-slider-response","154","","","","1","",""
"2305","scissors","duga,tanuri,mtawa,suga","tanuri","v","4","html-keyboard-response","155","n","suga","false","","",""
"3179","","","","","4","html-slider-response","156","","","","2","",""
"2318","shop","nopya,samaki,kerida,ndezu","samaki","v","4","html-keyboard-response","157","v","samaki","true","","",""
"2005.5","","","","","4","html-slider-response","158","","","","2","",""
"4237","flower","tamasha,bega,lobo,usiku","bega","v","4","html-keyboard-response","159","v","bega","true","","",""
"3681.0999999940395","","","","","4","html-slider-response","160","","","","3","",""
"3751","picture","silya,chaki,asin,kubwa","kubwa","n","4","html-keyboard-response","161","f","silya","false","","",""
"2388.5999999940395","","","","","4","html-slider-response","162","","","","2","",""
"5709","spoon","betri,pagsulod,nzuri,ngazi","pagsulod","v","4","html-keyboard-response","163","v","pagsulod","true","","",""
"1602.5999999940395","","","","","4","html-slider-response","164","","","","4","",""
"5423","fork","mgonjwa,baboy,paghago,gorisi","mgonjwa","f","4","html-keyboard-response","165","n","gorisi","false","","",""
"2079.699999988079","","","","","4","html-slider-response","166","","","","3","",""
"3239","shoe","nyeusi,hatua,kama,uyoga","uyoga","n","4","html-keyboard-response","167","v","hatua","false","","",""
"3256.7999999821186","","","","","4","html-slider-response","168","","","","4","",""
"259837","human","bado,kikapu,punguza,tinapay","tinapay","n","4","html-keyboard-response","169","n","tinapay","true","","",""
"2021.4000000059605","","","","","4","html-slider-response","170","","","","4","",""
"3088","cup","matumai,dagat,shimoni,jeraha","matumai","f","4","html-keyboard-response","171","f","matumai","true","","",""
"2364.199999988079","","","","","4","html-slider-response","172","","","","2","",""
"4023","hammer","napakyas,mekno,kitovu,layag","napakyas","f","4","html-keyboard-response","173","v","mekno","false","","",""
"1698.5","","","","","4","html-slider-response","174","","","","2","",""
"2742","body","nyundu,jibini,kununa,tindashan","tindashan","n","4","html-keyboard-response","175","n","tindashan","true","","",""
"1556.5","","","","","4","html-slider-response","176","","","","4","",""
"4716","page","wakala,ishiri,wimbo,skina","wimbo","j","4","html-keyboard-response","177","j","wimbo","true","","",""
"1747.0999999940395","","","","","4","html-slider-response","178","","","","1","",""
"3253","triangle","kasadpan,kihozi,bentaha,liog","kasadpan","f","4","html-keyboard-response","179","f","kasadpan","true","","",""
"1717.0999999940395","","","","","4","html-slider-response","180","","","","1","",""
"7820","berry","abogado,nogozi,kinywa,kofia","kofia","n","4","html-keyboard-response","181","n","kofia","true","","",""
"2370.0999999940395","","","","","4","html-slider-response","182","","","","2","",""
"3663","knee","mvuke,duka,kubale,bili","duka","v","4","html-keyboard-response","183","v","duka","true","","",""
"1984.699999988079","","","","","4","html-slider-response","184","","","","2","",""
"6450","picture","kubwa,silya,chaki,asin","kubwa","f","5","html-keyboard-response","188","j","chaki","false","","",""
"1951","","","","","5","html-slider-response","189","","","","1","",""
"5510","elephant","petye,kito,pagduol,suka","kito","v","5","html-keyboard-response","190","v","kito","true","","",""
"3254.4000000059605","","","","","5","html-slider-response","191","","","","2","",""
"2961","office","hazini,yatima,leso,kuna","leso","j","5","html-keyboard-response","192","n","kuna","false","","",""
"1991.9000000059605","","","","","5","html-slider-response","193","","","","2","",""
"2746","perfume","katuyoan,bino,sungura,ndogo","katuyoan","f","5","html-keyboard-response","194","j","sungura","false","","",""
"2045.4000000059605","","","","","5","html-slider-response","195","","","","4","",""
"1774","salmon","sensilyo,mzungu,seri,baharia","sensilyo","f","5","html-keyboard-response","196","f","sensilyo","true","","",""
"2048","","","","","5","html-slider-response","197","","","","4","",""
"2756","dog","lubi,bahari,washia,kalamu","bahari","v","5","html-keyboard-response","198","v","bahari","true","","",""
"1671.800000011921","","","","","5","html-slider-response","199","","","","2","",""
"6018","wheel","bafuni,punda,tawo,baadaye","bafuni","f","5","html-keyboard-response","200","f","bafuni","true","","",""
"3974.7999999821186","","","","","5","html-slider-response","201","","","","3","",""
"3165","cat","neyemba,baki,akili,paghukom","paghukom","n","5","html-keyboard-response","202","n","paghukom","true","","",""
"3798.2000000178814","","","","","5","html-slider-response","203","","","","2","",""
"3124","curtain","lisud,mchanga,bulwawan,chubani","mchanga","v","5","html-keyboard-response","204","v","mchanga","true","","",""
"2046.300000011921","","","","","5","html-slider-response","205","","","","4","",""
"2678","flower","tamasha,lobo,bega,usiku","bega","j","5","html-keyboard-response","206","j","bega","true","","",""
"1708.6000000238419","","","","","5","html-slider-response","207","","","","4","",""
"2965","number","shule,mundamo,kengele,choori","mundamo","v","5","html-keyboard-response","208","v","mundamo","true","","",""
"2842.5","","","","","5","html-slider-response","209","","","","2","",""
"2305","banana","kasamok,hagdan,twai,kazi","kazi","n","5","html-keyboard-response","210","n","kazi","true","","",""
"2662.5999999940395","","","","","5","html-slider-response","211","","","","3","",""
"4193","magazine","gundi,kiti,mchawi,bahandi","kiti","v","5","html-keyboard-response","212","v","kiti","true","","",""
"2568.5999999940395","","","","","5","html-slider-response","213","","","","4","",""
"1821","donkey","bloke,elfu,lalake,rombus","elfu","v","5","html-keyboard-response","214","v","elfu","true","","",""
"1410.4000000059605","","","","","5","html-slider-response","215","","","","5","",""
"2264","mosquito","martilyo,isda,taras,gutom","martilyo","f","5","html-keyboard-response","216","f","martilyo","true","","",""
"1857.9000000059605","","","","","5","html-slider-response","217","","","","5","",""
"2866","shoe","nyeusi,uyoga,hatua,kama","uyoga","v","5","html-keyboard-response","218","j","hatua","false","","",""
"1674.5","","","","","5","html-slider-response","219","","","","5","",""
"4361","stone","wingi,ulimwengu,mkasi,asili","wingi","f","5","html-keyboard-response","220","f","wingi","true","","",""
"1682.8999999761581","","","","","5","html-slider-response","221","","","","4","",""
"2548","tomato","chupi,mvua,chupa,takatak","mvua","v","5","html-keyboard-response","222","j","chupa","false","","",""
"2605.9000000059605","","","","","5","html-slider-response","223","","","","2","",""
"2631","ceiling","maua,kugita,kawaida,rayna","maua","f","5","html-keyboard-response","224","f","maua","true","","",""
"1528.5","","","","","5","html-slider-response","225","","","","4","",""
"1910","mirror","sulagma,rangi,kanding,furaha","sulagma","f","5","html-keyboard-response","226","f","sulagma","true","","",""
"2787.5999999940395","","","","","5","html-slider-response","227","","","","5","",""
"1947","coffin","barua,kioo,tubag,hulma","kioo","v","5","html-keyboard-response","228","v","kioo","true","","",""
"1673.2000000178814","","","","","5","html-slider-response","229","","","","5","",""
"2885","spoon","pagsulod,betri,nzuri,ngazi","pagsulod","f","5","html-keyboard-response","230","f","pagsulod","true","","",""
"1931","","","","","5","html-slider-response","231","","","","5","",""
"3393","marker","mapafu,salita,atay,maji","maji","n","5","html-keyboard-response","232","v","salita","false","","",""
"3491.300000011921","","","","","5","html-slider-response","233","","","","3","",""
"2658","list","alizeti,kuzama,wingu,kaso","wingu","j","5","html-keyboard-response","234","j","wingu","true","","",""
"2128.9000000059605","","","","","5","html-slider-response","235","","","","3","",""
"2835","hill","matumbo,kushoto,kukimba,sweta","matumbo","f","5","html-keyboard-response","236","n","sweta","false","","",""
"1971.5","","","","","5","html-slider-response","237","","","","5","",""
"4953","shelf","bungtod,pamahaw,kadaot,awit","pamahaw","v","5","html-keyboard-response","238","v","pamahaw","true","","",""
"1993.3999999761581","","","","","5","html-slider-response","239","","","","4","",""
"3724","bucket","kiatu,baga,ijayo,init","kiatu","f","5","html-keyboard-response","240","v","baga","false","","",""
"2867.199999988079","","","","","5","html-slider-response","241","","","","3","",""
"2386","ladder","mashua,mwanga,pangalan,kamba","pangalan","j","5","html-keyboard-response","242","j","pangalan","true","","",""
"2711.800000011921","","","","","5","html-slider-response","243","","","","5","",""
"5564","human","bado,kikapu,punguza,tinapay","tinapay","n","5","html-keyboard-response","244","f","bado","false","","",""
"3122.2999999821186","","","","","5","html-slider-response","245","","","","3","",""
"3504","tissue","ugomvi,lamigas,kisiwa,katika","ugomvi","f","5","html-keyboard-response","246","j","kisiwa","false","","",""
"2293.0999999940395","","","","","5","html-slider-response","247","","","","2","",""
"2278","finger","simu,moyo,sufuria,lima","moyo","v","5","html-keyboard-response","248","f","simu","false","","",""
"2269.399999976158","","","","","5","html-slider-response","249","","","","2","",""
"3078","cave","kesho,ganti,maisha,nyundo","kesho","f","5","html-keyboard-response","250","f","kesho","true","","",""
"1816.9000000059605","","","","","5","html-slider-response","251","","","","5","",""
"2581","rose","singizi,mwanake,amani,paghalad","paghalad","n","5","html-keyboard-response","252","n","paghalad","true","","",""
"1692.3999999761581","","","","","5","html-slider-response","253","","","","4","",""
"2377","lamp","afya,daub,bilaska,mbolea","afya","f","5","html-keyboard-response","254","v","daub","false","","",""
"1757.5","","","","","5","html-slider-response","255","","","","4","",""
"2341","shoulder","kelele,mkuu,ndaniya,guruwe","mkuu","v","5","html-keyboard-response","256","v","mkuu","true","","",""
"1877.7999999821186","","","","","5","html-slider-response","257","","","","4","",""
"4404","sock","ndoora,kimysa,mamba,mtirka","mamba","j","5","html-keyboard-response","258","j","mamba","true","","",""
"2842.0999999940395","","","","","5","html-slider-response","259","","","","3","",""
"3452","mother","kahawa,mbuzi,jokofu,babaye","babaye","n","5","html-keyboard-response","260","n","babaye","true","","",""
"2060","","","","","5","html-slider-response","261","","","","4","",""
"3083","key","miaka,chombo,goma,ahos","chombo","v","5","html-keyboard-response","262","v","chombo","true","","",""
"2677.199999988079","","","","","5","html-slider-response","263","","","","3","",""
"3425","squirrel","hofu,mahugaw,ukweli,kichwa","hofu","f","5","html-keyboard-response","264","f","hofu","true","","",""
"2287.9000000059605","","","","","5","html-slider-response","265","","","","5","",""
"3378","nose","gubat,sehemu,kopa,kidole","sehemu","v","5","html-keyboard-response","266","v","sehemu","true","","",""
"1832.9000000059605","","","","","5","html-slider-response","267","","","","2","",""
"4099","book","mali,kuhesa,picha,mara","mali","f","5","html-keyboard-response","268","f","mali","true","","",""
"3169.5999999940395","","","","","5","html-slider-response","269","","","","2","",""
"3396","bank","silingan,kudhibi,tualya,ofisi","silingan","f","5","html-keyboard-response","270","f","silingan","true","","",""
"5367","","","","","5","html-slider-response","271","","","","2","",""
"3340","cup","dagat,matumai,shimoni,jeraha","matumai","v","5","html-keyboard-response","272","v","matumai","true","","",""
"2184","","","","","5","html-slider-response","273","","","","3","",""
"3663","boat","hamsi,agalon,pombe,kitanda","agalon","v","5","html-keyboard-response","274","f","hamsi","false","","",""
"1797.2999999821186","","","","","5","html-slider-response","275","","","","2","",""
"4360","letter","filimbi,chuma,kifua,uhuru","kifua","j","5","html-keyboard-response","276","n","uhuru","false","","",""
"2153.5999999940395","","","","","5","html-slider-response","277","","","","2","",""
"4089","puppet","napulo,lamok,mazishi,godoro","mazishi","j","5","html-keyboard-response","278","v","lamok","false","","",""
"1784.0999999940395","","","","","5","html-slider-response","279","","","","4","",""
"2062","apple","ukame,kisu,estante,edad","kisu","v","5","html-keyboard-response","280","v","kisu","true","","",""
"2157.5","","","","","5","html-slider-response","281","","","","5","",""
"2879","tooth","kijiko,uadui,pahiyum,kabalaka","kabalaka","n","5","html-keyboard-response","282","n","kabalaka","true","","",""
"3325.100000023842","","","","","5","html-slider-response","283","","","","4","",""
"12988","shop","nopya,samaki,kerida,ndezu","samaki","v","5","html-keyboard-response","284","n","ndezu","false","","",""
"2261.5999999940395","","","","","5","html-slider-response","285","","","","2","",""
"2540","sun","bendi,luha,basi,uongo","basi","j","5","html-keyboard-response","286","v","luha","false","","",""
"3486.7999999821186","","","","","5","html-slider-response","287","","","","3","",""
"3962","knee","mvuke,kubale,duka,bili","duka","j","5","html-keyboard-response","288","f","mvuke","false","","",""
"2750.5","","","","","5","html-slider-response","289","","","","4","",""
"5916","fork","mgonjwa,baboy,paghago,gorisi","mgonjwa","f","5","html-keyboard-response","290","v","baboy","false","","",""
"1608","","","","","5","html-slider-response","291","","","","4","",""
"2281","wolf","kaburi,ndizi,lugha,mchuzi","lugha","j","5","html-keyboard-response","292","j","lugha","true","","",""
"2446","","","","","5","html-slider-response","293","","","","5","",""
"6910","sheet","bililhon,juuya,watu,kamantis","bililhon","f","5","html-keyboard-response","294","f","bililhon","true","","",""
"3208","","","","","5","html-slider-response","295","","","","4","",""
"4147","giraffe","mahitabo,daraja,jumatu,hangyo","mahitabo","f","5","html-keyboard-response","296","n","hangyo","false","","",""
"2315.5","","","","","5","html-slider-response","297","","","","4","",""
"2348","bread","dari,kaili,dizeli,bugas","dari","f","5","html-keyboard-response","298","v","kaili","false","","",""
"1941.7000000178814","","","","","5","html-slider-response","299","","","","3","",""
"2503","box","kuacha,rafiki,adui,kitande","adui","j","5","html-keyboard-response","300","v","rafiki","false","","",""
"2439.7999999821186","","","","","5","html-slider-response","301","","","","2","",""
"3412","cop","mechezo,bustani,jikoni,bakus","mechezo","f","5","html-keyboard-response","302","f","mechezo","true","","",""
"2049.300000011921","","","","","5","html-slider-response","303","","","","4","",""
"6440","fish","bala,baho,imani,buli","buli","n","5","html-keyboard-response","304","n","buli","true","","",""
"2226.7999999821186","","","","","5","html-slider-response","305","","","","4","",""
"2333","door","tena,surali,soko,nyota","surali","v","5","html-keyboard-response","306","j","soko","false","","",""
"2257.0999999940395","","","","","5","html-slider-response","307","","","","4","",""
"6403","woman","pagtabon,bandari,bituin,kovuli","pagtabon","f","5","html-keyboard-response","308","n","kovuli","false","","",""
"2200.5","","","","","5","html-slider-response","309","","","","2","",""
"5427","clock","kartasi,abang,mbwa,osha","mbwa","j","5","html-keyboard-response","310","j","mbwa","true","","",""
"1471.6000000238419","","","","","5","html-slider-response","311","","","","4","",""
"3760","berry","kofia,abogado,nogozi,kinywa","kofia","f","5","html-keyboard-response","312","f","kofia","true","","",""
"1920.5","","","","","5","html-slider-response","313","","","","4","",""
"10609","towel","tembo,funzi,pito,pagpalit","pagpalit","n","5","html-keyboard-response","314","j","pito","false","","",""
"1996.800000011921","","","","","5","html-slider-response","315","","","","3","",""
"4182","pudding","abug,mpishi,aibu,iring","aibu","j","5","html-keyboard-response","316","j","aibu","true","","",""
"1535.5","","","","","5","html-slider-response","317","","","","2","",""
"4002","park","tambok,bunifu,pwani,ihalas","bunifu","v","5","html-keyboard-response","318","f","tambok","false","","",""
"1878.199999988079","","","","","5","html-slider-response","319","","","","2","",""
"3075","body","nyundu,tindashan,jibini,kununa","tindashan","v","5","html-keyboard-response","320","v","tindashan","true","","",""
"1877","","","","","5","html-slider-response","321","","","","4","",""
"1782","olive","jiwe,bata,siagi,welder","jiwe","f","5","html-keyboard-response","322","f","jiwe","true","","",""
"2047.9000000059605","","","","","5","html-slider-response","323","","","","4","",""
"1915","poster","nchi,madungog,fedha,kasuko","madungog","v","5","html-keyboard-response","324","v","madungog","true","","",""
"1906.4000000059605","","","","","5","html-slider-response","325","","","","5","",""
"2784","hammer","mekno,napakyas,kitovu,layag","napakyas","v","5","html-keyboard-response","326","f","mekno","false","","",""
"1835.9000000059605","","","","","5","html-slider-response","327","","","","4","",""
"3221","train","itik,dakika,mungu,sayari","sayari","n","5","html-keyboard-response","328","n","sayari","true","","",""
"1538.0999999940395","","","","","5","html-slider-response","329","","","","4","",""
"2904","cigar","adhabu,ndugu,kuta,mlango","adhabu","f","5","html-keyboard-response","330","j","kuta","false","","",""
"3139.7000000178814","","","","","5","html-slider-response","331","","","","4","",""
"5137","spider","bunyag,mkboa,kamwe,atop","kamwe","j","5","html-keyboard-response","332","j","kamwe","true","","",""
"1882.4000000059605","","","","","5","html-slider-response","333","","","","1","",""
"2911","notebook","kemia,msitu,kila,mdudu","kemia","f","5","html-keyboard-response","334","j","kila","false","","",""
"2218","","","","","5","html-slider-response","335","","","","2","",""
"3012","candle","gabi,geza,farasi,kupanda","geza","v","5","html-keyboard-response","336","v","geza","true","","",""
"1812.5999999940395","","","","","5","html-slider-response","337","","","","2","",""
"3753","column","ufagio,pundok,dila,pala","ufagio","f","5","html-keyboard-response","338","v","pundok","false","","",""
"2203.199999988079","","","","","5","html-slider-response","339","","","","4","",""
"7296","basket","kumbuka,kumba,utepe,hasira","kumba","v","5","html-keyboard-response","340","n","hasira","false","","",""
"2202.899999976158","","","","","5","html-slider-response","341","","","","1","",""
"3751","page","wimbo,wakala,ishiri,skina","wimbo","f","5","html-keyboard-response","342","f","wimbo","true","","",""
"1503.0999999940395","","","","","5","html-slider-response","343","","","","2","",""
"3063","bridge","daima,ngono,sahani,panya","sahani","j","5","html-keyboard-response","344","v","ngono","false","","",""
"3681.4000000059605","","","","","5","html-slider-response","345","","","","2","",""
"2801","window","kweli,nanga,kujenga,umaga","kweli","f","5","html-keyboard-response","346","v","nanga","false","","",""
"2368.300000011921","","","","","5","html-slider-response","347","","","","2","",""
"3334","snake","pagtukod,jansa,karon,mvringo","pagtukod","f","5","html-keyboard-response","348","f","pagtukod","true","","",""
"3282.699999988079","","","","","5","html-slider-response","349","","","","3","",""
"2043","flag","ndege,mkate,trekta,kawa","trekta","j","5","html-keyboard-response","350","j","trekta","true","","",""
"1664.9000000059605","","","","","5","html-slider-response","351","","","","5","",""
"4833","bed","kalipay,haraka,mapintas,starehe","mapintas","j","5","html-keyboard-response","352","f","kalipay","false","","",""
"2009.4000000059605","","","","","5","html-slider-response","353","","","","4","",""
"2688","music","baiski,mraba,mageho,tumbo","baiski","f","5","html-keyboard-response","354","n","tumbo","false","","",""
"2126.7999999821186","","","","","5","html-slider-response","355","","","","2","",""
"2342","gift","baba,nyange,pagtawag,baso","pagtawag","j","5","html-keyboard-response","356","j","pagtawag","true","","",""
"1834.199999988079","","","","","5","html-slider-response","357","","","","5","",""
"4611","bonfire","mwezi,goti,mfuko,kusanya","goti","v","5","html-keyboard-response","358","j","mfuko","false","","",""
"1754.300000011921","","","","","5","html-slider-response","359","","","","4","",""
"4540","scissors","tanuri,duga,mtawa,suga","tanuri","f","5","html-keyboard-response","360","n","suga","false","","",""
"2196.0999999940395","","","","","5","html-slider-response","361","","","","2","",""
"8565","eel","msumari,ishara,kunywa,kabuang","msumari","f","5","html-keyboard-response","362","j","kunywa","false","","",""
"2796.699999988079","","","","","5","html-slider-response","363","","","","4","",""
"2857","pants","pintal,haki,chuki,hari","haki","v","5","html-keyboard-response","364","v","haki","true","","",""
"1659.7999999821186","","","","","5","html-slider-response","365","","","","5","",""
"4959","triangle","kihozi,bentaha,kasadpan,liog","kasadpan","j","5","html-keyboard-response","366","v","bentaha","false","","",""
"2048.4000000059605","","","","","5","html-slider-response","367","","","","2","",""
"6209.9000000059605","","","","","6","html-slider-response","369","","","","","1",""
"4769","","","","","6","html-keyboard-response","370","","","","","","false"
