"rt","en_word","options","swa_word","correct_answer","phase","trial_type","trial_index","input_answer","input_word","accuracy","certainty","swahili_knowledge","previous_subject"
"4301","sun","basi,bendi,luha,uongo","basi","f","4","html-keyboard-response","5","f","basi","true","","",""
"4114.300000190735","","","","","4","html-slider-response","6","","","","2","",""
"2559","basket","kumbuka,utepe,hasira,kumba","kumba","n","4","html-keyboard-response","7","n","kumba","true","","",""
"2433.300000190735","","","","","4","html-slider-response","8","","","","4","",""
"1937","curtain","mchanga,lisud,bulwawan,chubani","mchanga","f","4","html-keyboard-response","9","f","mchanga","true","","",""
"2251.199999809265","","","","","4","html-slider-response","10","","","","5","",""
"4370","park","tambok,bunifu,pwani,ihalas","bunifu","v","4","html-keyboard-response","11","f","tambok","false","","",""
"2757.300000190735","","","","","4","html-slider-response","12","","","","2","",""
"2197","nose","gubat,kopa,kidole,sehemu","sehemu","n","4","html-keyboard-response","13","n","sehemu","true","","",""
"2875.0999994277954","","","","","4","html-slider-response","14","","","","5","",""
"4600","window","nanga,kweli,kujenga,umaga","kweli","v","4","html-keyboard-response","15","v","kweli","true","","",""
"3295.300000190735","","","","","4","html-slider-response","16","","","","4","",""
"1868","cave","ganti,maisha,kesho,nyundo","kesho","j","4","html-keyboard-response","17","j","kesho","true","","",""
"2547.3999996185303","","","","","4","html-slider-response","18","","","","5","",""
"6294","woman","pagtabon,bandari,bituin,kovuli","pagtabon","f","4","html-keyboard-response","19","f","pagtabon","true","","",""
"2781.699999809265","","","","","4","html-slider-response","20","","","","4","",""
"1839","bed","kalipay,haraka,mapintas,starehe","mapintas","j","4","html-keyboard-response","21","j","mapintas","true","","",""
"3556.9000005722046","","","","","4","html-slider-response","22","","","","3","",""
"5716","column","pundok,ufagio,dila,pala","ufagio","v","4","html-keyboard-response","23","v","ufagio","true","","",""
"4520.199999809265","","","","","4","html-slider-response","24","","","","2","",""
"4220","fish","bala,baho,imani,buli","buli","n","4","html-keyboard-response","25","n","buli","true","","",""
"2757.5","","","","","4","html-slider-response","26","","","","5","",""
"4335","boat","agalon,hamsi,pombe,kitanda","agalon","f","4","html-keyboard-response","27","f","agalon","true","","",""
"3144.0999994277954","","","","","4","html-slider-response","28","","","","4","",""
"1512","cop","bustani,jikoni,mechezo,bakus","mechezo","j","4","html-keyboard-response","29","j","mechezo","true","","",""
"2476.699999809265","","","","","4","html-slider-response","30","","","","5","",""
"8949","shoulder","kelele,mkuu,ndaniya,guruwe","mkuu","v","4","html-keyboard-response","31","v","mkuu","true","","",""
"4456.699999809265","","","","","4","html-slider-response","32","","","","4","",""
"1510","magazine","gundi,mchawi,bahandi,kiti","kiti","n","4","html-keyboard-response","33","n","kiti","true","","",""
"3059.699999809265","","","","","4","html-slider-response","34","","","","5","",""
"1731","gift","pagtawag,baba,nyange,baso","pagtawag","f","4","html-keyboard-response","35","f","pagtawag","true","","",""
"2602.8999996185303","","","","","4","html-slider-response","36","","","","4","",""
"4938","clock","kartasi,abang,osha,mbwa","mbwa","n","4","html-keyboard-response","37","n","mbwa","true","","",""
"2876.7000007629395","","","","","4","html-slider-response","38","","","","2","",""
"5910","squirrel","mahugaw,hofu,ukweli,kichwa","hofu","v","4","html-keyboard-response","39","v","hofu","true","","",""
"2531.199999809265","","","","","4","html-slider-response","40","","","","5","",""
"1709","key","miaka,goma,ahos,chombo","chombo","n","4","html-keyboard-response","41","n","chombo","true","","",""
"2770","","","","","4","html-slider-response","42","","","","5","",""
"3108","salmon","mzungu,seri,sensilyo,baharia","sensilyo","j","4","html-keyboard-response","43","j","sensilyo","true","","",""
"3058.3999996185303","","","","","4","html-slider-response","44","","","","5","",""
"1573","puppet","napulo,mazishi,lamok,godoro","mazishi","v","4","html-keyboard-response","45","v","mazishi","true","","",""
"2428.800000190735","","","","","4","html-slider-response","46","","","","5","",""
"4919","letter","filimbi,kifua,chuma,uhuru","kifua","v","4","html-keyboard-response","47","v","kifua","true","","",""
"2915.5999994277954","","","","","4","html-slider-response","48","","","","2","",""
"1382","flag","trekta,ndege,mkate,kawa","trekta","f","4","html-keyboard-response","49","f","trekta","true","","",""
"2386.9000005722046","","","","","4","html-slider-response","50","","","","5","",""
"2091","mother","babaye,kahawa,mbuzi,jokofu","babaye","f","4","html-keyboard-response","51","f","babaye","true","","",""
"2381.5","","","","","4","html-slider-response","52","","","","5","",""
"4778","ceiling","kugita,kawaida,rayna,maua","maua","n","4","html-keyboard-response","53","n","maua","true","","",""
"2472.300000190735","","","","","4","html-slider-response","54","","","","4","",""
"3683","stone","wingi,ulimwengu,mkasi,asili","wingi","f","4","html-keyboard-response","55","f","wingi","true","","",""
"2975.199999809265","","","","","4","html-slider-response","56","","","","4","",""
"1781","sock","ndoora,kimysa,mtirka,mamba","mamba","n","4","html-keyboard-response","57","n","mamba","true","","",""
"3054.199999809265","","","","","4","html-slider-response","58","","","","5","",""
"4829","rose","singizi,mwanake,paghalad,amani","paghalad","j","4","html-keyboard-response","59","j","paghalad","true","","",""
"2337.9000005722046","","","","","4","html-slider-response","60","","","","4","",""
"1490","office","hazini,yatima,leso,kuna","leso","j","4","html-keyboard-response","61","j","leso","true","","",""
"2389.4000005722046","","","","","4","html-slider-response","62","","","","5","",""
"2326","number","mundamo,shule,kengele,choori","mundamo","f","4","html-keyboard-response","63","f","mundamo","true","","",""
"2368.199999809265","","","","","4","html-slider-response","64","","","","5","",""
"9552","lamp","daub,bilaska,afya,mbolea","afya","j","4","html-keyboard-response","65","j","afya","true","","",""
"2204","","","","","4","html-slider-response","66","","","","2","",""
"4378","dog","lubi,bahari,washia,kalamu","bahari","v","4","html-keyboard-response","67","v","bahari","true","","",""
"2206.0999994277954","","","","","4","html-slider-response","68","","","","4","",""
"1652","mosquito","isda,taras,gutom,martilyo","martilyo","n","4","html-keyboard-response","69","n","martilyo","true","","",""
"2393.6000003814697","","","","","4","html-slider-response","70","","","","5","",""
"3703","notebook","kemia,msitu,kila,mdudu","kemia","f","4","html-keyboard-response","71","j","kila","false","","",""
"4787.5","","","","","4","html-slider-response","72","","","","3","",""
"8119","apple","ukame,estante,edad,kisu","kisu","n","4","html-keyboard-response","73","n","kisu","true","","",""
"2953.0999994277954","","","","","4","html-slider-response","74","","","","1","",""
"2755","cigar","ndugu,kuta,mlango,adhabu","adhabu","n","4","html-keyboard-response","75","n","adhabu","true","","",""
"3048.8999996185303","","","","","4","html-slider-response","76","","","","4","",""
"6899","coffin","barua,kioo,tubag,hulma","kioo","v","4","html-keyboard-response","77","v","kioo","true","","",""
"2801.9000005722046","","","","","4","html-slider-response","78","","","","4","",""
"3899","shelf","bungtod,pamahaw,kadaot,awit","pamahaw","v","4","html-keyboard-response","79","v","pamahaw","true","","",""
"3601.3999996185303","","","","","4","html-slider-response","80","","","","3","",""
"1372","bread","kaili,dizeli,bugas,dari","dari","n","4","html-keyboard-response","81","n","dari","true","","",""
"2799.2999992370605","","","","","4","html-slider-response","82","","","","5","",""
"1330","olive","bata,siagi,welder,jiwe","jiwe","n","4","html-keyboard-response","83","n","jiwe","true","","",""
"3404.199999809265","","","","","4","html-slider-response","84","","","","5","",""
"2082","spider","kamwe,bunyag,mkboa,atop","kamwe","f","4","html-keyboard-response","85","f","kamwe","true","","",""
"2451.699999809265","","","","","4","html-slider-response","86","","","","5","",""
"2260","cat","neyemba,baki,paghukom,akili","paghukom","j","4","html-keyboard-response","87","j","paghukom","true","","",""
"2862.300000190735","","","","","4","html-slider-response","88","","","","5","",""
"1898","pudding","abug,aibu,mpishi,iring","aibu","v","4","html-keyboard-response","89","v","aibu","true","","",""
"2939","","","","","4","html-slider-response","90","","","","5","",""
"3326","towel","pagpalit,tembo,funzi,pito","pagpalit","f","4","html-keyboard-response","91","f","pagpalit","true","","",""
"2378.1000003814697","","","","","4","html-slider-response","92","","","","4","",""
"10191","bucket","baga,ijayo,kiatu,init","kiatu","j","4","html-keyboard-response","93","n","init","false","","",""
"3111.6000003814697","","","","","4","html-slider-response","94","","","","2","",""
"3777","wheel","punda,tawo,bafuni,baadaye","bafuni","j","4","html-keyboard-response","95","n","baadaye","false","","",""
"2320.5999994277954","","","","","4","html-slider-response","96","","","","4","",""
"1958","ladder","mashua,pangalan,mwanga,kamba","pangalan","v","4","html-keyboard-response","97","v","pangalan","true","","",""
"2999.800000190735","","","","","4","html-slider-response","98","","","","5","",""
"5616","marker","mapafu,maji,salita,atay","maji","v","4","html-keyboard-response","99","v","maji","true","","",""
"2705.699999809265","","","","","4","html-slider-response","100","","","","4","",""
"2035","tomato","chupi,chupa,mvua,takatak","mvua","j","4","html-keyboard-response","101","j","mvua","true","","",""
"2439","","","","","4","html-slider-response","102","","","","5","",""
"3428","door","surali,tena,soko,nyota","surali","f","4","html-keyboard-response","103","f","surali","true","","",""
"2809.699999809265","","","","","4","html-slider-response","104","","","","5","",""
"1464","bonfire","goti,mwezi,mfuko,kusanya","goti","f","4","html-keyboard-response","105","f","goti","true","","",""
"2485.300000190735","","","","","4","html-slider-response","106","","","","5","",""
"2701","mirror","rangi,sulagma,kanding,furaha","sulagma","v","4","html-keyboard-response","107","v","sulagma","true","","",""
"2870.1000003814697","","","","","4","html-slider-response","108","","","","4","",""
"10434","giraffe","daraja,jumatu,mahitabo,hangyo","mahitabo","j","4","html-keyboard-response","109","n","hangyo","false","","",""
"3127.300000190735","","","","","4","html-slider-response","110","","","","2","",""
"6086","tissue","lamigas,ugomvi,kisiwa,katika","ugomvi","v","4","html-keyboard-response","111","f","lamigas","false","","",""
"2997.300000190735","","","","","4","html-slider-response","112","","","","1","",""
"2816","snake","jansa,pagtukod,karon,mvringo","pagtukod","v","4","html-keyboard-response","113","v","pagtukod","true","","",""
"2973.7000007629395","","","","","4","html-slider-response","114","","","","5","",""
"2776","finger","moyo,simu,sufuria,lima","moyo","f","4","html-keyboard-response","115","v","simu","false","","",""
"2401.300000190735","","","","","4","html-slider-response","116","","","","4","",""
"3730","train","itik,sayari,dakika,mungu","sayari","v","4","html-keyboard-response","117","v","sayari","true","","",""
"6324.299999237061","","","","","4","html-slider-response","118","","","","3","",""
"4924","candle","gabi,farasi,geza,kupanda","geza","j","4","html-keyboard-response","119","j","geza","true","","",""
"2844.7999992370605","","","","","4","html-slider-response","120","","","","5","",""
"2765","book","kuhesa,picha,mara,mali","mali","n","4","html-keyboard-response","121","n","mali","true","","",""
"2943","","","","","4","html-slider-response","122","","","","4","",""
"1832","elephant","petye,kito,pagduol,suka","kito","v","4","html-keyboard-response","123","v","kito","true","","",""
"2958","","","","","4","html-slider-response","124","","","","5","",""
"5537","sheet","juuya,bililhon,watu,kamantis","bililhon","v","4","html-keyboard-response","125","v","bililhon","true","","",""
"2153.3999996185303","","","","","4","html-slider-response","126","","","","4","",""
"2562","banana","kasamok,hagdan,twai,kazi","kazi","n","4","html-keyboard-response","127","n","kazi","true","","",""
"2504","","","","","4","html-slider-response","128","","","","5","",""
"2039","perfume","bino,katuyoan,sungura,ndogo","katuyoan","v","4","html-keyboard-response","129","v","katuyoan","true","","",""
"2296.5999994277954","","","","","4","html-slider-response","130","","","","5","",""
"2344","bank","kudhibi,silingan,tualya,ofisi","silingan","v","4","html-keyboard-response","131","v","silingan","true","","",""
"3186","","","","","4","html-slider-response","132","","","","5","",""
"8511","tooth","kijiko,uadui,pahiyum,kabalaka","kabalaka","n","4","html-keyboard-response","133","j","pahiyum","false","","",""
"2266.2999992370605","","","","","4","html-slider-response","134","","","","2","",""
"4806","hill","kushoto,matumbo,kukimba,sweta","matumbo","v","4","html-keyboard-response","135","v","matumbo","true","","",""
"2607.199999809265","","","","","4","html-slider-response","136","","","","4","",""
"1800","music","mraba,mageho,tumbo,baiski","baiski","n","4","html-keyboard-response","137","n","baiski","true","","",""
"2284.300000190735","","","","","4","html-slider-response","138","","","","5","",""
"1568","pants","pintal,chuki,haki,hari","haki","j","4","html-keyboard-response","139","j","haki","true","","",""
"4124","","","","","4","html-slider-response","140","","","","5","",""
"1888","donkey","elfu,bloke,lalake,rombus","elfu","f","4","html-keyboard-response","141","f","elfu","true","","",""
"2672.8999996185303","","","","","4","html-slider-response","142","","","","5","",""
"2153","bridge","daima,ngono,sahani,panya","sahani","j","4","html-keyboard-response","143","j","sahani","true","","",""
"2823.199999809265","","","","","4","html-slider-response","144","","","","4","",""
"4640","list","alizeti,kuzama,kaso,wingu","wingu","n","4","html-keyboard-response","145","n","wingu","true","","",""
"2796.199999809265","","","","","4","html-slider-response","146","","","","2","",""
"3457","box","kuacha,rafiki,kitande,adui","adui","n","4","html-keyboard-response","147","n","adui","true","","",""
"2780.0999994277954","","","","","4","html-slider-response","148","","","","4","",""
"2601","wolf","kaburi,ndizi,mchuzi,lugha","lugha","n","4","html-keyboard-response","149","n","lugha","true","","",""
"3598.5","","","","","4","html-slider-response","150","","","","5","",""
"3464","poster","nchi,madungog,fedha,kasuko","madungog","v","4","html-keyboard-response","151","v","madungog","true","","",""
"2309.7000007629395","","","","","4","html-slider-response","152","","","","4","",""
"5112","eel","ishara,kunywa,kabuang,msumari","msumari","n","4","html-keyboard-response","153","j","kabuang","false","","",""
"2482.4000005722046","","","","","4","html-slider-response","154","","","","2","",""
"5787","scissors","duga,tanuri,mtawa,suga","tanuri","v","4","html-keyboard-response","155","j","mtawa","false","","",""
"2809.199999809265","","","","","4","html-slider-response","156","","","","2","",""
"4304","shop","samaki,nopya,kerida,ndezu","samaki","f","4","html-keyboard-response","157","f","samaki","true","","",""
"4029.6000003814697","","","","","4","html-slider-response","158","","","","3","",""
"3927","flower","tamasha,lobo,bega,usiku","bega","j","4","html-keyboard-response","159","j","bega","true","","",""
"2241","","","","","4","html-slider-response","160","","","","4","",""
"3725","picture","kubwa,silya,chaki,asin","kubwa","f","4","html-keyboard-response","161","f","kubwa","true","","",""
"3055.6000003814697","","","","","4","html-slider-response","162","","","","3","",""
"1482","spoon","betri,nzuri,pagsulod,ngazi","pagsulod","j","4","html-keyboard-response","163","j","pagsulod","true","","",""
"2448","","","","","4","html-slider-response","164","","","","5","",""
"4176","fork","baboy,paghago,gorisi,mgonjwa","mgonjwa","n","4","html-keyboard-response","165","n","mgonjwa","true","","",""
"2589.5999994277954","","","","","4","html-slider-response","166","","","","4","",""
"5263","shoe","uyoga,nyeusi,hatua,kama","uyoga","f","4","html-keyboard-response","167","j","hatua","false","","",""
"2152.300000190735","","","","","4","html-slider-response","168","","","","2","",""
"1978","human","tinapay,bado,kikapu,punguza","tinapay","f","4","html-keyboard-response","169","f","tinapay","true","","",""
"3379.5","","","","","4","html-slider-response","170","","","","5","",""
"3273","cup","matumai,dagat,shimoni,jeraha","matumai","f","4","html-keyboard-response","171","f","matumai","true","","",""
"2331.8999996185303","","","","","4","html-slider-response","172","","","","5","",""
"4206","hammer","mekno,kitovu,layag,napakyas","napakyas","n","4","html-keyboard-response","173","n","napakyas","true","","",""
"3025","","","","","4","html-slider-response","174","","","","2","",""
"2361","body","tindashan,nyundu,jibini,kununa","tindashan","f","4","html-keyboard-response","175","f","tindashan","true","","",""
"2951.1000003814697","","","","","4","html-slider-response","176","","","","5","",""
"5612","page","wimbo,wakala,ishiri,skina","wimbo","f","4","html-keyboard-response","177","j","ishiri","false","","",""
"5044","","","","","4","html-slider-response","178","","","","2","",""
"2476","triangle","kihozi,bentaha,liog,kasadpan","kasadpan","n","4","html-keyboard-response","179","n","kasadpan","true","","",""
"2325.199999809265","","","","","4","html-slider-response","180","","","","5","",""
"2276","berry","abogado,kofia,nogozi,kinywa","kofia","v","4","html-keyboard-response","181","v","kofia","true","","",""
"2460","","","","","4","html-slider-response","182","","","","5","",""
"4173","knee","mvuke,duka,kubale,bili","duka","v","4","html-keyboard-response","183","v","duka","true","","",""
"2800.6000003814697","","","","","4","html-slider-response","184","","","","5","",""
"4220","picture","kubwa,silya,chaki,asin","kubwa","f","5","html-keyboard-response","188","f","kubwa","true","","",""
"3505.3999996185303","","","","","5","html-slider-response","189","","","","3","",""
"2004","elephant","petye,pagduol,suka,kito","kito","n","5","html-keyboard-response","190","n","kito","true","","",""
"3046","","","","","5","html-slider-response","191","","","","5","",""
"1547","office","hazini,leso,yatima,kuna","leso","v","5","html-keyboard-response","192","v","leso","true","","",""
"3462.4000005722046","","","","","5","html-slider-response","193","","","","5","",""
"1532","perfume","bino,katuyoan,sungura,ndogo","katuyoan","v","5","html-keyboard-response","194","v","katuyoan","true","","",""
"2398.300000190735","","","","","5","html-slider-response","195","","","","4","",""
"2209","salmon","mzungu,sensilyo,seri,baharia","sensilyo","v","5","html-keyboard-response","196","v","sensilyo","true","","",""
"2635.5","","","","","5","html-slider-response","197","","","","5","",""
"3630","dog","bahari,lubi,washia,kalamu","bahari","f","5","html-keyboard-response","198","f","bahari","true","","",""
"2645.800000190735","","","","","5","html-slider-response","199","","","","4","",""
"2760","wheel","bafuni,punda,tawo,baadaye","bafuni","f","5","html-keyboard-response","200","n","baadaye","false","","",""
"3552.4000005722046","","","","","5","html-slider-response","201","","","","3","",""
"1972","cat","neyemba,paghukom,baki,akili","paghukom","v","5","html-keyboard-response","202","v","paghukom","true","","",""
"2885.199999809265","","","","","5","html-slider-response","203","","","","4","",""
"1663","curtain","mchanga,lisud,bulwawan,chubani","mchanga","f","5","html-keyboard-response","204","f","mchanga","true","","",""
"3182.800000190735","","","","","5","html-slider-response","205","","","","5","",""
"1935","flower","tamasha,lobo,usiku,bega","bega","n","5","html-keyboard-response","206","n","bega","true","","",""
"2630","","","","","5","html-slider-response","207","","","","4","",""
"1604","number","shule,kengele,mundamo,choori","mundamo","j","5","html-keyboard-response","208","j","mundamo","true","","",""
"2587.0999994277954","","","","","5","html-slider-response","209","","","","5","",""
"1669","banana","kasamok,kazi,hagdan,twai","kazi","v","5","html-keyboard-response","210","v","kazi","true","","",""
"2462.0999994277954","","","","","5","html-slider-response","211","","","","5","",""
"2342","magazine","kiti,gundi,mchawi,bahandi","kiti","f","5","html-keyboard-response","212","f","kiti","true","","",""
"3031.8999996185303","","","","","5","html-slider-response","213","","","","5","",""
"1268","donkey","elfu,bloke,lalake,rombus","elfu","f","5","html-keyboard-response","214","f","elfu","true","","",""
"2336.7999992370605","","","","","5","html-slider-response","215","","","","5","",""
"1418","mosquito","isda,martilyo,taras,gutom","martilyo","v","5","html-keyboard-response","216","v","martilyo","true","","",""
"2443.1000003814697","","","","","5","html-slider-response","217","","","","5","",""
"5981","shoe","nyeusi,uyoga,hatua,kama","uyoga","v","5","html-keyboard-response","218","j","hatua","false","","",""
"3501","","","","","5","html-slider-response","219","","","","2","",""
"5715","stone","ulimwengu,mkasi,wingi,asili","wingi","j","5","html-keyboard-response","220","j","wingi","true","","",""
"3356.800000190735","","","","","5","html-slider-response","221","","","","3","",""
"1677","tomato","chupi,chupa,mvua,takatak","mvua","j","5","html-keyboard-response","222","j","mvua","true","","",""
"3282.9000005722046","","","","","5","html-slider-response","223","","","","5","",""
"3803","ceiling","maua,kugita,kawaida,rayna","maua","f","5","html-keyboard-response","224","f","maua","true","","",""
"2519.199999809265","","","","","5","html-slider-response","225","","","","4","",""
"2097","mirror","rangi,kanding,furaha,sulagma","sulagma","n","5","html-keyboard-response","226","n","sulagma","true","","",""
"2207.8999996185303","","","","","5","html-slider-response","227","","","","4","",""
"1874","coffin","barua,tubag,hulma,kioo","kioo","n","5","html-keyboard-response","228","n","kioo","true","","",""
"3884.699999809265","","","","","5","html-slider-response","229","","","","3","",""
"1384","spoon","betri,nzuri,ngazi,pagsulod","pagsulod","n","5","html-keyboard-response","230","n","pagsulod","true","","",""
"2476.5","","","","","5","html-slider-response","231","","","","5","",""
"3068","marker","mapafu,maji,salita,atay","maji","v","5","html-keyboard-response","232","v","maji","true","","",""
"2456.300000190735","","","","","5","html-slider-response","233","","","","2","",""
"4008","list","alizeti,kuzama,wingu,kaso","wingu","j","5","html-keyboard-response","234","j","wingu","true","","",""
"2888.7999992370605","","","","","5","html-slider-response","235","","","","2","",""
"5174","hill","matumbo,kushoto,kukimba,sweta","matumbo","f","5","html-keyboard-response","236","f","matumbo","true","","",""
"4063.3999996185303","","","","","5","html-slider-response","237","","","","4","",""
"1823","shelf","bungtod,kadaot,pamahaw,awit","pamahaw","j","5","html-keyboard-response","238","j","pamahaw","true","","",""
"2793.9000005722046","","","","","5","html-slider-response","239","","","","4","",""
"7945","bucket","baga,ijayo,kiatu,init","kiatu","j","5","html-keyboard-response","240","n","init","false","","",""
"2481.4000005722046","","","","","5","html-slider-response","241","","","","2","",""
"1249","ladder","pangalan,mashua,mwanga,kamba","pangalan","f","5","html-keyboard-response","242","f","pangalan","true","","",""
"2454.6000003814697","","","","","5","html-slider-response","243","","","","5","",""
"1240","human","tinapay,bado,kikapu,punguza","tinapay","f","5","html-keyboard-response","244","f","tinapay","true","","",""
"2378.300000190735","","","","","5","html-slider-response","245","","","","5","",""
"3514","tissue","lamigas,kisiwa,katika,ugomvi","ugomvi","n","5","html-keyboard-response","246","f","lamigas","false","","",""
"2447.699999809265","","","","","5","html-slider-response","247","","","","2","",""
"2592","finger","moyo,simu,sufuria,lima","moyo","f","5","html-keyboard-response","248","v","simu","false","","",""
"3187.9000005722046","","","","","5","html-slider-response","249","","","","3","",""
"1847","cave","ganti,kesho,maisha,nyundo","kesho","v","5","html-keyboard-response","250","v","kesho","true","","",""
"2342.6000003814697","","","","","5","html-slider-response","251","","","","5","",""
"2216","rose","singizi,mwanake,amani,paghalad","paghalad","n","5","html-keyboard-response","252","n","paghalad","true","","",""
"2350.6000003814697","","","","","5","html-slider-response","253","","","","5","",""
"4088","lamp","afya,daub,bilaska,mbolea","afya","f","5","html-keyboard-response","254","v","daub","false","","",""
"2646.1000003814697","","","","","5","html-slider-response","255","","","","2","",""
"5620","shoulder","mkuu,kelele,ndaniya,guruwe","mkuu","f","5","html-keyboard-response","256","f","mkuu","true","","",""
"3414.5999994277954","","","","","5","html-slider-response","257","","","","3","",""
"2235","sock","ndoora,mamba,kimysa,mtirka","mamba","v","5","html-keyboard-response","258","v","mamba","true","","",""
"2873.300000190735","","","","","5","html-slider-response","259","","","","5","",""
"1605","mother","kahawa,babaye,mbuzi,jokofu","babaye","v","5","html-keyboard-response","260","v","babaye","true","","",""
"2437.4000005722046","","","","","5","html-slider-response","261","","","","5","",""
"3653","key","chombo,miaka,goma,ahos","chombo","f","5","html-keyboard-response","262","f","chombo","true","","",""
"2271.4000005722046","","","","","5","html-slider-response","263","","","","4","",""
"2599","squirrel","mahugaw,ukweli,hofu,kichwa","hofu","j","5","html-keyboard-response","264","j","hofu","true","","",""
"2487.8999996185303","","","","","5","html-slider-response","265","","","","4","",""
"1418","nose","sehemu,gubat,kopa,kidole","sehemu","f","5","html-keyboard-response","266","f","sehemu","true","","",""
"3140.7999992370605","","","","","5","html-slider-response","267","","","","5","",""
"3655","book","kuhesa,mali,picha,mara","mali","v","5","html-keyboard-response","268","v","mali","true","","",""
"3569.5999994277954","","","","","5","html-slider-response","269","","","","3","",""
"2011","bank","kudhibi,silingan,tualya,ofisi","silingan","v","5","html-keyboard-response","270","v","silingan","true","","",""
"2802.699999809265","","","","","5","html-slider-response","271","","","","5","",""
"1835","cup","dagat,matumai,shimoni,jeraha","matumai","v","5","html-keyboard-response","272","v","matumai","true","","",""
"2451.5","","","","","5","html-slider-response","273","","","","5","",""
"3766","boat","hamsi,pombe,agalon,kitanda","agalon","j","5","html-keyboard-response","274","j","agalon","true","","",""
"3482.6000003814697","","","","","5","html-slider-response","275","","","","3","",""
"3462","letter","filimbi,chuma,uhuru,kifua","kifua","n","5","html-keyboard-response","276","j","uhuru","false","","",""
"3194.300000190735","","","","","5","html-slider-response","277","","","","2","",""
"1632","puppet","napulo,lamok,godoro,mazishi","mazishi","n","5","html-keyboard-response","278","n","mazishi","true","","",""
"2538.699999809265","","","","","5","html-slider-response","279","","","","5","",""
"6775","apple","ukame,estante,kisu,edad","kisu","j","5","html-keyboard-response","280","f","ukame","false","","",""
"3229.199999809265","","","","","5","html-slider-response","281","","","","1","",""
"5822","tooth","kabalaka,kijiko,uadui,pahiyum","kabalaka","f","5","html-keyboard-response","282","n","pahiyum","false","","",""
"2680.699999809265","","","","","5","html-slider-response","283","","","","2","",""
"2769","shop","nopya,kerida,ndezu,samaki","samaki","n","5","html-keyboard-response","284","n","samaki","true","","",""
"2213.5","","","","","5","html-slider-response","285","","","","2","",""
"2931","sun","bendi,luha,uongo,basi","basi","n","5","html-keyboard-response","286","n","basi","true","","",""
"2428.5","","","","","5","html-slider-response","287","","","","2","",""
"2348","knee","mvuke,duka,kubale,bili","duka","v","5","html-keyboard-response","288","v","duka","true","","",""
"4845.099999427795","","","","","5","html-slider-response","289","","","","5","",""
"3892","fork","baboy,mgonjwa,paghago,gorisi","mgonjwa","v","5","html-keyboard-response","290","v","mgonjwa","true","","",""
"5370.10000038147","","","","","5","html-slider-response","291","","","","5","",""
"1997","wolf","kaburi,ndizi,lugha,mchuzi","lugha","j","5","html-keyboard-response","292","j","lugha","true","","",""
"2434.800000190735","","","","","5","html-slider-response","293","","","","5","",""
"2639","sheet","bililhon,juuya,watu,kamantis","bililhon","f","5","html-keyboard-response","294","f","bililhon","true","","",""
"2490","","","","","5","html-slider-response","295","","","","4","",""
"5424","giraffe","daraja,jumatu,mahitabo,hangyo","mahitabo","j","5","html-keyboard-response","296","j","mahitabo","true","","",""
"2598.699999809265","","","","","5","html-slider-response","297","","","","2","",""
"1368","bread","dari,kaili,dizeli,bugas","dari","f","5","html-keyboard-response","298","f","dari","true","","",""
"2507.7000007629395","","","","","5","html-slider-response","299","","","","5","",""
"2324","box","adui,kuacha,rafiki,kitande","adui","f","5","html-keyboard-response","300","f","adui","true","","",""
"2832.699999809265","","","","","5","html-slider-response","301","","","","4","",""
"1583","cop","bustani,jikoni,mechezo,bakus","mechezo","j","5","html-keyboard-response","302","j","mechezo","true","","",""
"2785.5","","","","","5","html-slider-response","303","","","","5","",""
"4557","fish","bala,buli,baho,imani","buli","v","5","html-keyboard-response","304","n","imani","false","","",""
"2320.699999809265","","","","","5","html-slider-response","305","","","","4","",""
"2213","door","tena,soko,nyota,surali","surali","n","5","html-keyboard-response","306","n","surali","true","","",""
"2392.5","","","","","5","html-slider-response","307","","","","4","",""
"1645","woman","pagtabon,bandari,bituin,kovuli","pagtabon","f","5","html-keyboard-response","308","f","pagtabon","true","","",""
"2620.0999994277954","","","","","5","html-slider-response","309","","","","4","",""
"3009","clock","kartasi,abang,mbwa,osha","mbwa","j","5","html-keyboard-response","310","j","mbwa","true","","",""
"3280","","","","","5","html-slider-response","311","","","","2","",""
"1188","berry","kofia,abogado,nogozi,kinywa","kofia","f","5","html-keyboard-response","312","f","kofia","true","","",""
"2688","","","","","5","html-slider-response","313","","","","5","",""
"1606","towel","tembo,pagpalit,funzi,pito","pagpalit","v","5","html-keyboard-response","314","v","pagpalit","true","","",""
"2425","","","","","5","html-slider-response","315","","","","5","",""
"1750","pudding","abug,mpishi,iring,aibu","aibu","n","5","html-keyboard-response","316","n","aibu","true","","",""
"2455.300000190735","","","","","5","html-slider-response","317","","","","5","",""
"4907","park","tambok,pwani,bunifu,ihalas","bunifu","j","5","html-keyboard-response","318","f","tambok","false","","",""
"3873.699999809265","","","","","5","html-slider-response","319","","","","3","",""
"1537","body","nyundu,tindashan,jibini,kununa","tindashan","v","5","html-keyboard-response","320","v","tindashan","true","","",""
"2272.5999994277954","","","","","5","html-slider-response","321","","","","5","",""
"1489","olive","jiwe,bata,siagi,welder","jiwe","f","5","html-keyboard-response","322","f","jiwe","true","","",""
"2392.9000005722046","","","","","5","html-slider-response","323","","","","5","",""
"1906","poster","nchi,fedha,madungog,kasuko","madungog","j","5","html-keyboard-response","324","j","madungog","true","","",""
"3440.5999994277954","","","","","5","html-slider-response","325","","","","5","",""
"3935","hammer","napakyas,mekno,kitovu,layag","napakyas","f","5","html-keyboard-response","326","f","napakyas","true","","",""
"2534.6000003814697","","","","","5","html-slider-response","327","","","","4","",""
"2192","train","itik,dakika,mungu,sayari","sayari","n","5","html-keyboard-response","328","n","sayari","true","","",""
"2814.0999994277954","","","","","5","html-slider-response","329","","","","4","",""
"3813","cigar","ndugu,kuta,adhabu,mlango","adhabu","j","5","html-keyboard-response","330","j","adhabu","true","","",""
"2749.5","","","","","5","html-slider-response","331","","","","5","",""
"1432","spider","bunyag,mkboa,kamwe,atop","kamwe","j","5","html-keyboard-response","332","j","kamwe","true","","",""
"2779.8999996185303","","","","","5","html-slider-response","333","","","","5","",""
"2815","notebook","kemia,msitu,kila,mdudu","kemia","f","5","html-keyboard-response","334","j","kila","false","","",""
"3215.6000003814697","","","","","5","html-slider-response","335","","","","2","",""
"2027","candle","gabi,farasi,geza,kupanda","geza","j","5","html-keyboard-response","336","j","geza","true","","",""
"2387.3999996185303","","","","","5","html-slider-response","337","","","","4","",""
"2285","column","pundok,dila,pala,ufagio","ufagio","n","5","html-keyboard-response","338","f","pundok","false","","",""
"3289.3999996185303","","","","","5","html-slider-response","339","","","","3","",""
"1999","basket","kumbuka,utepe,kumba,hasira","kumba","j","5","html-keyboard-response","340","j","kumba","true","","",""
"2818.800000190735","","","","","5","html-slider-response","341","","","","5","",""
"4117","page","wakala,ishiri,wimbo,skina","wimbo","j","5","html-keyboard-response","342","v","ishiri","false","","",""
"2420.8999996185303","","","","","5","html-slider-response","343","","","","2","",""
"2464","bridge","sahani,daima,ngono,panya","sahani","f","5","html-keyboard-response","344","f","sahani","true","","",""
"2127.2000007629395","","","","","5","html-slider-response","345","","","","5","",""
"3169","window","kweli,nanga,kujenga,umaga","kweli","f","5","html-keyboard-response","346","f","kweli","true","","",""
"3631","","","","","5","html-slider-response","347","","","","4","",""
"1929","snake","pagtukod,jansa,karon,mvringo","pagtukod","f","5","html-keyboard-response","348","f","pagtukod","true","","",""
"4364.300000190735","","","","","5","html-slider-response","349","","","","5","",""
"1430","flag","ndege,mkate,trekta,kawa","trekta","j","5","html-keyboard-response","350","j","trekta","true","","",""
"3110.8999996185303","","","","","5","html-slider-response","351","","","","5","",""
"1744","bed","kalipay,haraka,starehe,mapintas","mapintas","n","5","html-keyboard-response","352","n","mapintas","true","","",""
"2687.800000190735","","","","","5","html-slider-response","353","","","","4","",""
"1557","music","mraba,mageho,tumbo,baiski","baiski","n","5","html-keyboard-response","354","n","baiski","true","","",""
"2549.199999809265","","","","","5","html-slider-response","355","","","","5","",""
"1626","gift","baba,nyange,pagtawag,baso","pagtawag","j","5","html-keyboard-response","356","j","pagtawag","true","","",""
"3269.6000003814697","","","","","5","html-slider-response","357","","","","5","",""
"1437","bonfire","mwezi,mfuko,goti,kusanya","goti","j","5","html-keyboard-response","358","j","goti","true","","",""
"2654.800000190735","","","","","5","html-slider-response","359","","","","5","",""
"4345","scissors","tanuri,duga,mtawa,suga","tanuri","f","5","html-keyboard-response","360","j","mtawa","false","","",""
"2331.9000005722046","","","","","5","html-slider-response","361","","","","2","",""
"4625","eel","ishara,kunywa,kabuang,msumari","msumari","n","5","html-keyboard-response","362","j","kabuang","false","","",""
"2739.4000005722046","","","","","5","html-slider-response","363","","","","2","",""
"2141","pants","haki,pintal,chuki,hari","haki","f","5","html-keyboard-response","364","f","haki","true","","",""
"4244.60000038147","","","","","5","html-slider-response","365","","","","5","",""
"1529","triangle","kihozi,bentaha,liog,kasadpan","kasadpan","n","5","html-keyboard-response","366","n","kasadpan","true","","",""
"2561.800000190735","","","","","5","html-slider-response","367","","","","5","",""
"8750.699999809265","","","","","6","html-slider-response","369","","","","","1",""
"5152","","","","","6","html-keyboard-response","370","","","","","","false"
