"rt","en_word","options","swa_word","correct_answer","phase","trial_type","trial_index","input_answer","input_word","accuracy","certainty","swahili_knowledge","previous_subject"
"2263","sun","bendi,luha,uongo,basi","basi","n","4","html-keyboard-response","5","n","basi","true","","",""
"1504.3999998569489","","","","","4","html-slider-response","6","","","","5","",""
"4117","basket","kumbuka,kumba,utepe,hasira","kumba","v","4","html-keyboard-response","7","n","hasira","false","","",""
"1880.7000000476837","","","","","4","html-slider-response","8","","","","2","",""
"7508","curtain","lisud,bulwawan,chubani,mchanga","mchanga","n","4","html-keyboard-response","9","v","bulwawan","false","","",""
"1988.4000000953674","","","","","4","html-slider-response","10","","","","1","",""
"2513","park","bunifu,tambok,pwani,ihalas","bunifu","f","4","html-keyboard-response","11","f","bunifu","true","","",""
"1376","","","","","4","html-slider-response","12","","","","4","",""
"5763","nose","gubat,kopa,sehemu,kidole","sehemu","j","4","html-keyboard-response","13","j","sehemu","true","","",""
"2157","","","","","4","html-slider-response","14","","","","4","",""
"4905","window","kweli,nanga,kujenga,umaga","kweli","f","4","html-keyboard-response","15","n","umaga","false","","",""
"2062.899999856949","","","","","4","html-slider-response","16","","","","1","",""
"2431","cave","ganti,maisha,nyundo,kesho","kesho","n","4","html-keyboard-response","17","n","kesho","true","","",""
"1846.5","","","","","4","html-slider-response","18","","","","4","",""
"3903","woman","bandari,bituin,pagtabon,kovuli","pagtabon","j","4","html-keyboard-response","19","j","pagtabon","true","","",""
"1260.2999999523163","","","","","4","html-slider-response","20","","","","4","",""
"3617","bed","mapintas,kalipay,haraka,starehe","mapintas","f","4","html-keyboard-response","21","v","kalipay","false","","",""
"2930.5","","","","","4","html-slider-response","22","","","","1","",""
"1643","column","pundok,ufagio,dila,pala","ufagio","v","4","html-keyboard-response","23","v","ufagio","true","","",""
"2282.899999856949","","","","","4","html-slider-response","24","","","","4","",""
"2635","fish","buli,bala,baho,imani","buli","f","4","html-keyboard-response","25","f","buli","true","","",""
"1644.7000000476837","","","","","4","html-slider-response","26","","","","4","",""
"3105","boat","hamsi,pombe,agalon,kitanda","agalon","j","4","html-keyboard-response","27","j","agalon","true","","",""
"2324.7999999523163","","","","","4","html-slider-response","28","","","","3","",""
"1681","cop","bustani,mechezo,jikoni,bakus","mechezo","v","4","html-keyboard-response","29","v","mechezo","true","","",""
"2134.9000000953674","","","","","4","html-slider-response","30","","","","4","",""
"4303","shoulder","kelele,mkuu,ndaniya,guruwe","mkuu","v","4","html-keyboard-response","31","f","kelele","false","","",""
"2531.2999999523163","","","","","4","html-slider-response","32","","","","3","",""
"3795","magazine","kiti,gundi,mchawi,bahandi","kiti","f","4","html-keyboard-response","33","f","kiti","true","","",""
"1932.7000000476837","","","","","4","html-slider-response","34","","","","1","",""
"2449","gift","baba,nyange,pagtawag,baso","pagtawag","j","4","html-keyboard-response","35","n","baso","false","","",""
"1750.5999999046326","","","","","4","html-slider-response","36","","","","1","",""
"4210","clock","kartasi,mbwa,abang,osha","mbwa","v","4","html-keyboard-response","37","v","mbwa","true","","",""
"2164.7999999523163","","","","","4","html-slider-response","38","","","","1","",""
"1464","squirrel","hofu,mahugaw,ukweli,kichwa","hofu","f","4","html-keyboard-response","39","f","hofu","true","","",""
"2621.5","","","","","4","html-slider-response","40","","","","4","",""
"2504","key","miaka,chombo,goma,ahos","chombo","v","4","html-keyboard-response","41","v","chombo","true","","",""
"1593.5","","","","","4","html-slider-response","42","","","","4","",""
"2724","salmon","mzungu,sensilyo,seri,baharia","sensilyo","v","4","html-keyboard-response","43","v","sensilyo","true","","",""
"1787.2999999523163","","","","","4","html-slider-response","44","","","","5","",""
"4939","puppet","mazishi,napulo,lamok,godoro","mazishi","f","4","html-keyboard-response","45","n","godoro","false","","",""
"1360.9000000953674","","","","","4","html-slider-response","46","","","","4","",""
"2477","letter","filimbi,kifua,chuma,uhuru","kifua","v","4","html-keyboard-response","47","v","kifua","true","","",""
"2080.2000000476837","","","","","4","html-slider-response","48","","","","2","",""
"3590","flag","trekta,ndege,mkate,kawa","trekta","f","4","html-keyboard-response","49","f","trekta","true","","",""
"1715.3999998569489","","","","","4","html-slider-response","50","","","","3","",""
"4027","mother","babaye,kahawa,mbuzi,jokofu","babaye","f","4","html-keyboard-response","51","f","babaye","true","","",""
"3276.699999809265","","","","","4","html-slider-response","52","","","","4","",""
"3713","ceiling","kugita,maua,kawaida,rayna","maua","v","4","html-keyboard-response","53","v","maua","true","","",""
"3584.5","","","","","4","html-slider-response","54","","","","2","",""
"2877","stone","ulimwengu,wingi,mkasi,asili","wingi","v","4","html-keyboard-response","55","v","wingi","true","","",""
"1458.6999998092651","","","","","4","html-slider-response","56","","","","2","",""
"4219","sock","mamba,ndoora,kimysa,mtirka","mamba","f","4","html-keyboard-response","57","f","mamba","true","","",""
"1708.1000001430511","","","","","4","html-slider-response","58","","","","1","",""
"3256","rose","singizi,paghalad,mwanake,amani","paghalad","v","4","html-keyboard-response","59","v","paghalad","true","","",""
"2510.9000000953674","","","","","4","html-slider-response","60","","","","2","",""
"1119","office","hazini,leso,yatima,kuna","leso","v","4","html-keyboard-response","61","v","leso","true","","",""
"1327","","","","","4","html-slider-response","62","","","","4","",""
"1662","number","shule,kengele,mundamo,choori","mundamo","j","4","html-keyboard-response","63","j","mundamo","true","","",""
"2076.7000000476837","","","","","4","html-slider-response","64","","","","5","",""
"6072","lamp","daub,bilaska,mbolea,afya","afya","n","4","html-keyboard-response","65","n","afya","true","","",""
"1318.2000000476837","","","","","4","html-slider-response","66","","","","1","",""
"2937","dog","lubi,washia,bahari,kalamu","bahari","j","4","html-keyboard-response","67","f","lubi","false","","",""
"2629","","","","","4","html-slider-response","68","","","","4","",""
"1688","mosquito","isda,taras,gutom,martilyo","martilyo","n","4","html-keyboard-response","69","n","martilyo","true","","",""
"1541.0999999046326","","","","","4","html-slider-response","70","","","","5","",""
"2073","notebook","kemia,msitu,kila,mdudu","kemia","f","4","html-keyboard-response","71","j","kila","false","","",""
"2237","","","","","4","html-slider-response","72","","","","4","",""
"1945","apple","ukame,estante,kisu,edad","kisu","j","4","html-keyboard-response","73","j","kisu","true","","",""
"1454.7999999523163","","","","","4","html-slider-response","74","","","","4","",""
"4935","cigar","ndugu,adhabu,kuta,mlango","adhabu","v","4","html-keyboard-response","75","v","adhabu","true","","",""
"1352.7999999523163","","","","","4","html-slider-response","76","","","","2","",""
"4837","coffin","kioo,barua,tubag,hulma","kioo","f","4","html-keyboard-response","77","f","kioo","true","","",""
"1218.7999999523163","","","","","4","html-slider-response","78","","","","2","",""
"5146","shelf","bungtod,kadaot,pamahaw,awit","pamahaw","j","4","html-keyboard-response","79","j","pamahaw","true","","",""
"3835.2000000476837","","","","","4","html-slider-response","80","","","","3","",""
"2075","bread","kaili,dizeli,dari,bugas","dari","j","4","html-keyboard-response","81","j","dari","true","","",""
"1742.6000001430511","","","","","4","html-slider-response","82","","","","5","",""
"1727","olive","bata,jiwe,siagi,welder","jiwe","v","4","html-keyboard-response","83","v","jiwe","true","","",""
"1144.7000000476837","","","","","4","html-slider-response","84","","","","5","",""
"1997","spider","kamwe,bunyag,mkboa,atop","kamwe","f","4","html-keyboard-response","85","f","kamwe","true","","",""
"1388.8999998569489","","","","","4","html-slider-response","86","","","","5","",""
"3857","cat","neyemba,paghukom,baki,akili","paghukom","v","4","html-keyboard-response","87","f","neyemba","false","","",""
"2006.9000000953674","","","","","4","html-slider-response","88","","","","1","",""
"3598","pudding","aibu,abug,mpishi,iring","aibu","f","4","html-keyboard-response","89","f","aibu","true","","",""
"2043.7999999523163","","","","","4","html-slider-response","90","","","","2","",""
"2371","towel","tembo,funzi,pito,pagpalit","pagpalit","n","4","html-keyboard-response","91","n","pagpalit","true","","",""
"2015","","","","","4","html-slider-response","92","","","","1","",""
"7454","bucket","baga,ijayo,kiatu,init","kiatu","j","4","html-keyboard-response","93","f","baga","false","","",""
"2288.300000190735","","","","","4","html-slider-response","94","","","","2","",""
"2439","wheel","punda,bafuni,tawo,baadaye","bafuni","v","4","html-keyboard-response","95","v","bafuni","true","","",""
"1898.5999999046326","","","","","4","html-slider-response","96","","","","4","",""
"1523","ladder","mashua,pangalan,mwanga,kamba","pangalan","v","4","html-keyboard-response","97","v","pangalan","true","","",""
"1257.3999998569489","","","","","4","html-slider-response","98","","","","5","",""
"3437","marker","mapafu,salita,atay,maji","maji","n","4","html-keyboard-response","99","f","mapafu","false","","",""
"2544.800000190735","","","","","4","html-slider-response","100","","","","1","",""
"4045","tomato","chupi,chupa,takatak,mvua","mvua","n","4","html-keyboard-response","101","n","mvua","true","","",""
"1834.5","","","","","4","html-slider-response","102","","","","2","",""
"5539","door","tena,surali,soko,nyota","surali","v","4","html-keyboard-response","103","f","tena","false","","",""
"2152.600000143051","","","","","4","html-slider-response","104","","","","2","",""
"2606","bonfire","mwezi,mfuko,goti,kusanya","goti","j","4","html-keyboard-response","105","j","goti","true","","",""
"2039","","","","","4","html-slider-response","106","","","","4","",""
"5359","mirror","rangi,sulagma,kanding,furaha","sulagma","v","4","html-keyboard-response","107","v","sulagma","true","","",""
"2196.7000000476837","","","","","4","html-slider-response","108","","","","2","",""
"3464","giraffe","daraja,mahitabo,jumatu,hangyo","mahitabo","v","4","html-keyboard-response","109","v","mahitabo","true","","",""
"2017.2999999523163","","","","","4","html-slider-response","110","","","","2","",""
"5109","tissue","ugomvi,lamigas,kisiwa,katika","ugomvi","f","4","html-keyboard-response","111","f","ugomvi","true","","",""
"1981.9000000953674","","","","","4","html-slider-response","112","","","","1","",""
"2582","snake","jansa,pagtukod,karon,mvringo","pagtukod","v","4","html-keyboard-response","113","f","jansa","false","","",""
"1585.2000000476837","","","","","4","html-slider-response","114","","","","1","",""
"1428","finger","moyo,simu,sufuria,lima","moyo","f","4","html-keyboard-response","115","f","moyo","true","","",""
"2532.7000000476837","","","","","4","html-slider-response","116","","","","4","",""
"6785","train","itik,sayari,dakika,mungu","sayari","v","4","html-keyboard-response","117","v","sayari","true","","",""
"2057","","","","","4","html-slider-response","118","","","","3","",""
"3966","candle","geza,gabi,farasi,kupanda","geza","f","4","html-keyboard-response","119","j","farasi","false","","",""
"1511.2000000476837","","","","","4","html-slider-response","120","","","","1","",""
"1949","book","kuhesa,picha,mali,mara","mali","j","4","html-keyboard-response","121","j","mali","true","","",""
"1634.2999999523163","","","","","4","html-slider-response","122","","","","4","",""
"1971","elephant","petye,kito,pagduol,suka","kito","v","4","html-keyboard-response","123","v","kito","true","","",""
"1456.2000000476837","","","","","4","html-slider-response","124","","","","4","",""
"3222","sheet","bililhon,juuya,watu,kamantis","bililhon","f","4","html-keyboard-response","125","f","bililhon","true","","",""
"1420.9000000953674","","","","","4","html-slider-response","126","","","","4","",""
"2065","banana","kasamok,kazi,hagdan,twai","kazi","v","4","html-keyboard-response","127","v","kazi","true","","",""
"1514.7999999523163","","","","","4","html-slider-response","128","","","","4","",""
"5065","perfume","bino,sungura,katuyoan,ndogo","katuyoan","j","4","html-keyboard-response","129","n","ndogo","false","","",""
"1566.2999999523163","","","","","4","html-slider-response","130","","","","1","",""
"6655","bank","kudhibi,tualya,silingan,ofisi","silingan","j","4","html-keyboard-response","131","j","silingan","true","","",""
"1624.7000000476837","","","","","4","html-slider-response","132","","","","1","",""
"4333","tooth","kijiko,uadui,pahiyum,kabalaka","kabalaka","n","4","html-keyboard-response","133","n","kabalaka","true","","",""
"1296.5","","","","","4","html-slider-response","134","","","","4","",""
"1933","hill","kushoto,matumbo,kukimba,sweta","matumbo","v","4","html-keyboard-response","135","v","matumbo","true","","",""
"1463.9000000953674","","","","","4","html-slider-response","136","","","","4","",""
"2366","music","mraba,mageho,tumbo,baiski","baiski","n","4","html-keyboard-response","137","n","baiski","true","","",""
"1347.6000001430511","","","","","4","html-slider-response","138","","","","5","",""
"2571","pants","haki,pintal,chuki,hari","haki","f","4","html-keyboard-response","139","f","haki","true","","",""
"1652.5999999046326","","","","","4","html-slider-response","140","","","","5","",""
"3233","donkey","bloke,lalake,rombus,elfu","elfu","n","4","html-keyboard-response","141","n","elfu","true","","",""
"1511","","","","","4","html-slider-response","142","","","","4","",""
"14863","bridge","sahani,daima,ngono,panya","sahani","f","4","html-keyboard-response","143","n","panya","false","","",""
"1280.9000000953674","","","","","4","html-slider-response","144","","","","1","",""
"11774","list","alizeti,kuzama,wingu,kaso","wingu","j","4","html-keyboard-response","145","n","kaso","false","","",""
"1356.1999998092651","","","","","4","html-slider-response","146","","","","1","",""
"2096","box","kuacha,rafiki,adui,kitande","adui","j","4","html-keyboard-response","147","v","rafiki","false","","",""
"2639.2000000476837","","","","","4","html-slider-response","148","","","","3","",""
"2342","wolf","kaburi,ndizi,lugha,mchuzi","lugha","j","4","html-keyboard-response","149","j","lugha","true","","",""
"1633.1000001430511","","","","","4","html-slider-response","150","","","","4","",""
"3500","poster","nchi,madungog,fedha,kasuko","madungog","v","4","html-keyboard-response","151","v","madungog","true","","",""
"1559.8000001907349","","","","","4","html-slider-response","152","","","","2","",""
"4270","eel","msumari,ishara,kunywa,kabuang","msumari","f","4","html-keyboard-response","153","f","msumari","true","","",""
"1097.5999999046326","","","","","4","html-slider-response","154","","","","4","",""
"5357","scissors","duga,mtawa,tanuri,suga","tanuri","j","4","html-keyboard-response","155","f","duga","false","","",""
"1488.4000000953674","","","","","4","html-slider-response","156","","","","1","",""
"6533","shop","nopya,kerida,samaki,ndezu","samaki","j","4","html-keyboard-response","157","j","samaki","true","","",""
"1520.7999999523163","","","","","4","html-slider-response","158","","","","1","",""
"6045","flower","tamasha,lobo,usiku,bega","bega","n","4","html-keyboard-response","159","v","lobo","false","","",""
"2036.7000000476837","","","","","4","html-slider-response","160","","","","1","",""
"3985","picture","silya,kubwa,chaki,asin","kubwa","v","4","html-keyboard-response","161","v","kubwa","true","","",""
"3145.0999999046326","","","","","4","html-slider-response","162","","","","2","",""
"2309","spoon","betri,pagsulod,nzuri,ngazi","pagsulod","v","4","html-keyboard-response","163","n","ngazi","false","","",""
"1929.6000001430511","","","","","4","html-slider-response","164","","","","2","",""
"5027","fork","baboy,mgonjwa,paghago,gorisi","mgonjwa","v","4","html-keyboard-response","165","n","gorisi","false","","",""
"1216.7999999523163","","","","","4","html-slider-response","166","","","","1","",""
"2510","shoe","nyeusi,hatua,uyoga,kama","uyoga","j","4","html-keyboard-response","167","j","uyoga","true","","",""
"1519.9000000953674","","","","","4","html-slider-response","168","","","","2","",""
"3181","human","bado,tinapay,kikapu,punguza","tinapay","v","4","html-keyboard-response","169","v","tinapay","true","","",""
"2661","","","","","4","html-slider-response","170","","","","5","",""
"3385","cup","dagat,shimoni,jeraha,matumai","matumai","n","4","html-keyboard-response","171","n","matumai","true","","",""
"1811.9000000953674","","","","","4","html-slider-response","172","","","","3","",""
"5497","hammer","mekno,kitovu,napakyas,layag","napakyas","j","4","html-keyboard-response","173","j","napakyas","true","","",""
"2052.7999999523163","","","","","4","html-slider-response","174","","","","2","",""
"3433","body","tindashan,nyundu,jibini,kununa","tindashan","f","4","html-keyboard-response","175","f","tindashan","true","","",""
"1532.9000000953674","","","","","4","html-slider-response","176","","","","2","",""
"3328","page","wakala,ishiri,wimbo,skina","wimbo","j","4","html-keyboard-response","177","j","wimbo","true","","",""
"1214.7999999523163","","","","","4","html-slider-response","178","","","","1","",""
"1983","triangle","kihozi,bentaha,liog,kasadpan","kasadpan","n","4","html-keyboard-response","179","n","kasadpan","true","","",""
"2555.0999999046326","","","","","4","html-slider-response","180","","","","3","",""
"2491","berry","kofia,abogado,nogozi,kinywa","kofia","f","4","html-keyboard-response","181","n","kinywa","false","","",""
"1824.8999998569489","","","","","4","html-slider-response","182","","","","1","",""
"3020","knee","duka,mvuke,kubale,bili","duka","f","4","html-keyboard-response","183","f","duka","true","","",""
"2290.9000000953674","","","","","4","html-slider-response","184","","","","1","",""
"2695","picture","silya,kubwa,chaki,asin","kubwa","v","5","html-keyboard-response","188","v","kubwa","true","","",""
"8488.400000095367","","","","","5","html-slider-response","189","","","","1","",""
"1309","elephant","petye,kito,pagduol,suka","kito","v","5","html-keyboard-response","190","v","kito","true","","",""
"3723.5","","","","","5","html-slider-response","191","","","","4","",""
"2475","office","hazini,yatima,leso,kuna","leso","j","5","html-keyboard-response","192","j","leso","true","","",""
"2011.3999998569489","","","","","5","html-slider-response","193","","","","5","",""
"8675","perfume","bino,sungura,katuyoan,ndogo","katuyoan","j","5","html-keyboard-response","194","j","katuyoan","true","","",""
"1758.4000000953674","","","","","5","html-slider-response","195","","","","1","",""
"1175","salmon","mzungu,seri,sensilyo,baharia","sensilyo","j","5","html-keyboard-response","196","j","sensilyo","true","","",""
"1867.2000000476837","","","","","5","html-slider-response","197","","","","5","",""
"1314","dog","lubi,bahari,washia,kalamu","bahari","v","5","html-keyboard-response","198","f","lubi","false","","",""
"3057","","","","","5","html-slider-response","199","","","","5","",""
"2005","wheel","punda,tawo,bafuni,baadaye","bafuni","j","5","html-keyboard-response","200","j","bafuni","true","","",""
"1182.5","","","","","5","html-slider-response","201","","","","5","",""
"4334","cat","paghukom,neyemba,baki,akili","paghukom","f","5","html-keyboard-response","202","v","neyemba","false","","",""
"1846.7000000476837","","","","","5","html-slider-response","203","","","","1","",""
"8496","curtain","mchanga,lisud,bulwawan,chubani","mchanga","f","5","html-keyboard-response","204","j","bulwawan","false","","",""
"1992.5999999046326","","","","","5","html-slider-response","205","","","","1","",""
"2581","flower","bega,tamasha,lobo,usiku","bega","f","5","html-keyboard-response","206","j","lobo","false","","",""
"1373.0999999046326","","","","","5","html-slider-response","207","","","","1","",""
"985","number","mundamo,shule,kengele,choori","mundamo","f","5","html-keyboard-response","208","f","mundamo","true","","",""
"1735","","","","","5","html-slider-response","209","","","","5","",""
"1495","banana","kasamok,kazi,hagdan,twai","kazi","v","5","html-keyboard-response","210","v","kazi","true","","",""
"1324.9000000953674","","","","","5","html-slider-response","211","","","","5","",""
"985","magazine","gundi,kiti,mchawi,bahandi","kiti","v","5","html-keyboard-response","212","v","kiti","true","","",""
"1512.4000000953674","","","","","5","html-slider-response","213","","","","5","",""
"1366","donkey","bloke,lalake,rombus,elfu","elfu","n","5","html-keyboard-response","214","n","elfu","true","","",""
"2930.2999999523163","","","","","5","html-slider-response","215","","","","4","",""
"1339","mosquito","isda,martilyo,taras,gutom","martilyo","v","5","html-keyboard-response","216","v","martilyo","true","","",""
"2069","","","","","5","html-slider-response","217","","","","5","",""
"4104","shoe","nyeusi,uyoga,hatua,kama","uyoga","v","5","html-keyboard-response","218","v","uyoga","true","","",""
"2203.199999809265","","","","","5","html-slider-response","219","","","","2","",""
"1418","stone","ulimwengu,wingi,mkasi,asili","wingi","v","5","html-keyboard-response","220","v","wingi","true","","",""
"1274","","","","","5","html-slider-response","221","","","","2","",""
"3589","tomato","chupi,chupa,mvua,takatak","mvua","j","5","html-keyboard-response","222","j","mvua","true","","",""
"1870.7000000476837","","","","","5","html-slider-response","223","","","","1","",""
"1895","ceiling","maua,kugita,kawaida,rayna","maua","f","5","html-keyboard-response","224","f","maua","true","","",""
"1574.8999998569489","","","","","5","html-slider-response","225","","","","4","",""
"3599","mirror","rangi,kanding,sulagma,furaha","sulagma","j","5","html-keyboard-response","226","f","rangi","false","","",""
"1404.5999999046326","","","","","5","html-slider-response","227","","","","1","",""
"2514","coffin","kioo,barua,tubag,hulma","kioo","f","5","html-keyboard-response","228","f","kioo","true","","",""
"3125.100000143051","","","","","5","html-slider-response","229","","","","3","",""
"6305","spoon","betri,pagsulod,nzuri,ngazi","pagsulod","v","5","html-keyboard-response","230","v","pagsulod","true","","",""
"1468.7999999523163","","","","","5","html-slider-response","231","","","","1","",""
"2409","marker","maji,mapafu,salita,atay","maji","f","5","html-keyboard-response","232","f","maji","true","","",""
"1211.0999999046326","","","","","5","html-slider-response","233","","","","1","",""
"1355","list","alizeti,kuzama,wingu,kaso","wingu","j","5","html-keyboard-response","234","n","kaso","false","","",""
"2838.2000000476837","","","","","5","html-slider-response","235","","","","1","",""
"1599","hill","kushoto,kukimba,sweta,matumbo","matumbo","n","5","html-keyboard-response","236","n","matumbo","true","","",""
"1625.0999999046326","","","","","5","html-slider-response","237","","","","5","",""
"3661","shelf","bungtod,kadaot,pamahaw,awit","pamahaw","j","5","html-keyboard-response","238","j","pamahaw","true","","",""
"1214.5","","","","","5","html-slider-response","239","","","","4","",""
"5839","bucket","baga,ijayo,kiatu,init","kiatu","j","5","html-keyboard-response","240","f","baga","false","","",""
"1346.7000000476837","","","","","5","html-slider-response","241","","","","1","",""
"946","ladder","pangalan,mashua,mwanga,kamba","pangalan","f","5","html-keyboard-response","242","f","pangalan","true","","",""
"2302.399999856949","","","","","5","html-slider-response","243","","","","5","",""
"993","human","tinapay,bado,kikapu,punguza","tinapay","f","5","html-keyboard-response","244","f","tinapay","true","","",""
"2003.2000000476837","","","","","5","html-slider-response","245","","","","5","",""
"3355","tissue","lamigas,ugomvi,kisiwa,katika","ugomvi","v","5","html-keyboard-response","246","v","ugomvi","true","","",""
"1792","","","","","5","html-slider-response","247","","","","1","",""
"1726","finger","simu,sufuria,moyo,lima","moyo","j","5","html-keyboard-response","248","j","moyo","true","","",""
"3010.7999999523163","","","","","5","html-slider-response","249","","","","4","",""
"1443","cave","kesho,ganti,maisha,nyundo","kesho","f","5","html-keyboard-response","250","f","kesho","true","","",""
"1365.2000000476837","","","","","5","html-slider-response","251","","","","5","",""
"1665","rose","singizi,mwanake,paghalad,amani","paghalad","j","5","html-keyboard-response","252","j","paghalad","true","","",""
"2309.2999999523163","","","","","5","html-slider-response","253","","","","4","",""
"4073","lamp","daub,bilaska,afya,mbolea","afya","j","5","html-keyboard-response","254","n","mbolea","false","","",""
"1654.2999999523163","","","","","5","html-slider-response","255","","","","1","",""
"3223","shoulder","kelele,ndaniya,guruwe,mkuu","mkuu","n","5","html-keyboard-response","256","f","kelele","false","","",""
"1362.5","","","","","5","html-slider-response","257","","","","2","",""
"2299","sock","ndoora,kimysa,mtirka,mamba","mamba","n","5","html-keyboard-response","258","n","mamba","true","","",""
"1499.4000000953674","","","","","5","html-slider-response","259","","","","1","",""
"1434","mother","kahawa,mbuzi,jokofu,babaye","babaye","n","5","html-keyboard-response","260","n","babaye","true","","",""
"2050.7999999523163","","","","","5","html-slider-response","261","","","","5","",""
"1916","key","chombo,miaka,goma,ahos","chombo","f","5","html-keyboard-response","262","f","chombo","true","","",""
"2732.199999809265","","","","","5","html-slider-response","263","","","","5","",""
"865","squirrel","hofu,mahugaw,ukweli,kichwa","hofu","f","5","html-keyboard-response","264","f","hofu","true","","",""
"1748.8999998569489","","","","","5","html-slider-response","265","","","","5","",""
"1777","nose","gubat,sehemu,kopa,kidole","sehemu","v","5","html-keyboard-response","266","v","sehemu","true","","",""
"1553.8999998569489","","","","","5","html-slider-response","267","","","","4","",""
"2260","book","kuhesa,picha,mara,mali","mali","n","5","html-keyboard-response","268","n","mali","true","","",""
"1992.5","","","","","5","html-slider-response","269","","","","5","",""
"4517","bank","kudhibi,tualya,silingan,ofisi","silingan","j","5","html-keyboard-response","270","j","silingan","true","","",""
"1674.9000000953674","","","","","5","html-slider-response","271","","","","1","",""
"3410","cup","dagat,shimoni,jeraha,matumai","matumai","n","5","html-keyboard-response","272","n","matumai","true","","",""
"2971.2000000476837","","","","","5","html-slider-response","273","","","","2","",""
"2586","boat","hamsi,agalon,pombe,kitanda","agalon","v","5","html-keyboard-response","274","v","agalon","true","","",""
"1672.7999999523163","","","","","5","html-slider-response","275","","","","4","",""
"3573","letter","filimbi,chuma,uhuru,kifua","kifua","n","5","html-keyboard-response","276","n","kifua","true","","",""
"1500.6000001430511","","","","","5","html-slider-response","277","","","","1","",""
"2689","puppet","napulo,lamok,mazishi,godoro","mazishi","j","5","html-keyboard-response","278","j","mazishi","true","","",""
"1940.7000000476837","","","","","5","html-slider-response","279","","","","4","",""
"1681","apple","ukame,kisu,estante,edad","kisu","v","5","html-keyboard-response","280","v","kisu","true","","",""
"1916.4000000953674","","","","","5","html-slider-response","281","","","","4","",""
"2152","tooth","kijiko,uadui,kabalaka,pahiyum","kabalaka","j","5","html-keyboard-response","282","j","kabalaka","true","","",""
"2020","","","","","5","html-slider-response","283","","","","5","",""
"2244","shop","samaki,nopya,kerida,ndezu","samaki","f","5","html-keyboard-response","284","f","samaki","true","","",""
"1182.9000000953674","","","","","5","html-slider-response","285","","","","4","",""
"1599","sun","bendi,luha,uongo,basi","basi","n","5","html-keyboard-response","286","n","basi","true","","",""
"1914.2999999523163","","","","","5","html-slider-response","287","","","","5","",""
"3561","knee","mvuke,kubale,bili,duka","duka","n","5","html-keyboard-response","288","n","duka","true","","",""
"1510.2999999523163","","","","","5","html-slider-response","289","","","","1","",""
"1574","fork","mgonjwa,baboy,paghago,gorisi","mgonjwa","f","5","html-keyboard-response","290","f","mgonjwa","true","","",""
"1380.1000001430511","","","","","5","html-slider-response","291","","","","1","",""
"1210","wolf","lugha,kaburi,ndizi,mchuzi","lugha","f","5","html-keyboard-response","292","f","lugha","true","","",""
"2083.0999999046326","","","","","5","html-slider-response","293","","","","5","",""
"1156","sheet","bililhon,juuya,watu,kamantis","bililhon","f","5","html-keyboard-response","294","f","bililhon","true","","",""
"2174.5999999046326","","","","","5","html-slider-response","295","","","","4","",""
"2255","giraffe","daraja,mahitabo,jumatu,hangyo","mahitabo","v","5","html-keyboard-response","296","v","mahitabo","true","","",""
"2205","","","","","5","html-slider-response","297","","","","2","",""
"1393","bread","kaili,dizeli,bugas,dari","dari","n","5","html-keyboard-response","298","n","dari","true","","",""
"1216.8000001907349","","","","","5","html-slider-response","299","","","","5","",""
"1253","box","kuacha,rafiki,kitande,adui","adui","n","5","html-keyboard-response","300","v","rafiki","false","","",""
"2124.899999856949","","","","","5","html-slider-response","301","","","","4","",""
"849","cop","bustani,mechezo,jikoni,bakus","mechezo","v","5","html-keyboard-response","302","v","mechezo","true","","",""
"1442.7999999523163","","","","","5","html-slider-response","303","","","","5","",""
"1155","fish","buli,bala,baho,imani","buli","f","5","html-keyboard-response","304","f","buli","true","","",""
"1554.7999999523163","","","","","5","html-slider-response","305","","","","5","",""
"3227","door","tena,surali,soko,nyota","surali","v","5","html-keyboard-response","306","v","surali","true","","",""
"1856.5999999046326","","","","","5","html-slider-response","307","","","","1","",""
"1621","woman","bandari,bituin,pagtabon,kovuli","pagtabon","j","5","html-keyboard-response","308","j","pagtabon","true","","",""
"1822.5","","","","","5","html-slider-response","309","","","","5","",""
"6599","clock","kartasi,abang,mbwa,osha","mbwa","j","5","html-keyboard-response","310","j","mbwa","true","","",""
"2191.2000000476837","","","","","5","html-slider-response","311","","","","2","",""
"2886","berry","kofia,abogado,nogozi,kinywa","kofia","f","5","html-keyboard-response","312","n","kinywa","false","","",""
"1745.2999999523163","","","","","5","html-slider-response","313","","","","1","",""
"1309","towel","pagpalit,tembo,funzi,pito","pagpalit","f","5","html-keyboard-response","314","f","pagpalit","true","","",""
"2162.7000000476837","","","","","5","html-slider-response","315","","","","3","",""
"3139","pudding","abug,mpishi,aibu,iring","aibu","j","5","html-keyboard-response","316","j","aibu","true","","",""
"2320.699999809265","","","","","5","html-slider-response","317","","","","3","",""
"2923","park","tambok,pwani,bunifu,ihalas","bunifu","j","5","html-keyboard-response","318","j","bunifu","true","","",""
"1801.2999999523163","","","","","5","html-slider-response","319","","","","4","",""
"1805","body","nyundu,tindashan,jibini,kununa","tindashan","v","5","html-keyboard-response","320","v","tindashan","true","","",""
"2495.0999999046326","","","","","5","html-slider-response","321","","","","4","",""
"991","olive","bata,siagi,welder,jiwe","jiwe","n","5","html-keyboard-response","322","n","jiwe","true","","",""
"1433","","","","","5","html-slider-response","323","","","","5","",""
"2644","poster","madungog,nchi,fedha,kasuko","madungog","f","5","html-keyboard-response","324","f","madungog","true","","",""
"1454.7999999523163","","","","","5","html-slider-response","325","","","","4","",""
"4071","hammer","mekno,kitovu,layag,napakyas","napakyas","n","5","html-keyboard-response","326","n","napakyas","true","","",""
"2112.600000143051","","","","","5","html-slider-response","327","","","","4","",""
"4996","train","itik,dakika,sayari,mungu","sayari","j","5","html-keyboard-response","328","j","sayari","true","","",""
"1163.2000000476837","","","","","5","html-slider-response","329","","","","2","",""
"5003","cigar","ndugu,kuta,adhabu,mlango","adhabu","j","5","html-keyboard-response","330","j","adhabu","true","","",""
"1848.9000000953674","","","","","5","html-slider-response","331","","","","4","",""
"2093","spider","bunyag,mkboa,atop,kamwe","kamwe","n","5","html-keyboard-response","332","n","kamwe","true","","",""
"1592.7999999523163","","","","","5","html-slider-response","333","","","","5","",""
"1693","notebook","msitu,kila,kemia,mdudu","kemia","j","5","html-keyboard-response","334","v","kila","false","","",""
"1398.6000001430511","","","","","5","html-slider-response","335","","","","4","",""
"6631","candle","gabi,farasi,geza,kupanda","geza","j","5","html-keyboard-response","336","v","farasi","false","","",""
"2478.600000143051","","","","","5","html-slider-response","337","","","","1","",""
"1023","column","pundok,dila,pala,ufagio","ufagio","n","5","html-keyboard-response","338","n","ufagio","true","","",""
"1984.8000001907349","","","","","5","html-slider-response","339","","","","5","",""
"2062","basket","kumbuka,kumba,utepe,hasira","kumba","v","5","html-keyboard-response","340","v","kumba","true","","",""
"1721.2999999523163","","","","","5","html-slider-response","341","","","","1","",""
"2029","page","wakala,ishiri,wimbo,skina","wimbo","j","5","html-keyboard-response","342","j","wimbo","true","","",""
"1290.9000000953674","","","","","5","html-slider-response","343","","","","2","",""
"2702","bridge","sahani,daima,ngono,panya","sahani","f","5","html-keyboard-response","344","n","panya","false","","",""
"1772.7999999523163","","","","","5","html-slider-response","345","","","","1","",""
"4994","window","nanga,kujenga,kweli,umaga","kweli","j","5","html-keyboard-response","346","f","nanga","false","","",""
"1468.7999999523163","","","","","5","html-slider-response","347","","","","1","",""
"2609","snake","pagtukod,jansa,karon,mvringo","pagtukod","f","5","html-keyboard-response","348","n","mvringo","false","","",""
"2474.7999999523163","","","","","5","html-slider-response","349","","","","1","",""
"2323","flag","ndege,mkate,kawa,trekta","trekta","n","5","html-keyboard-response","350","n","trekta","true","","",""
"1354.7999999523163","","","","","5","html-slider-response","351","","","","4","",""
"2578","bed","kalipay,haraka,starehe,mapintas","mapintas","n","5","html-keyboard-response","352","f","kalipay","false","","",""
"1516.6000001430511","","","","","5","html-slider-response","353","","","","1","",""
"1153","music","mraba,mageho,baiski,tumbo","baiski","j","5","html-keyboard-response","354","j","baiski","true","","",""
"2324.9000000953674","","","","","5","html-slider-response","355","","","","5","",""
"2777","gift","baba,nyange,pagtawag,baso","pagtawag","j","5","html-keyboard-response","356","j","pagtawag","true","","",""
"1104.9000000953674","","","","","5","html-slider-response","357","","","","2","",""
"1940","bonfire","goti,mwezi,mfuko,kusanya","goti","f","5","html-keyboard-response","358","f","goti","true","","",""
"1834.8999998569489","","","","","5","html-slider-response","359","","","","4","",""
"2803","scissors","duga,mtawa,suga,tanuri","tanuri","n","5","html-keyboard-response","360","n","tanuri","true","","",""
"1720.6999998092651","","","","","5","html-slider-response","361","","","","2","",""
"2981","eel","ishara,msumari,kunywa,kabuang","msumari","v","5","html-keyboard-response","362","v","msumari","true","","",""
"1740.7999999523163","","","","","5","html-slider-response","363","","","","4","",""
"1824","pants","pintal,chuki,hari,haki","haki","n","5","html-keyboard-response","364","n","haki","true","","",""
"2215.199999809265","","","","","5","html-slider-response","365","","","","5","",""
"1606","triangle","kihozi,kasadpan,bentaha,liog","kasadpan","v","5","html-keyboard-response","366","v","kasadpan","true","","",""
"1490.9000000953674","","","","","5","html-slider-response","367","","","","2","",""
"8504","","","","","6","html-slider-response","369","","","","","1",""
"5829","","","","","6","html-keyboard-response","370","","","","","","true"
