,participant,en_word,swa_word,reward2,reward3,reward4,reward5,confidence2,confidence3,confidence4,confidence5,learning_method,rt2,rt3,rt4,rt5,rt_confidence2,rt_confidence3,rt_confidence4,rt_confidence5,options2,options3,options4,options5,correct_answer2,correct_answer3,correct_answer4,correct_answer5,input_answer2,input_answer3,input_answer4,input_answer5,input_word2,input_word3,input_word4,input_word5,trial2,trial3,trial4,trial5,reward,confidence,srpe,urpe,accuracy_binary,accuracy_continuous,individual_binary_acc,individual_continuous_acc
0,1,apple,kisu,0,1,1,1,0.25,1.0,1.0,1.0,0.0,6416.0,7990.0,2647.0,5312.0,1493.800000011921,1693.5,1758.0999999642372,1206.300000011921,"kisu,ukame,estante,edad","ukame,kisu,estante,edad","ukame,estante,kisu,edad","ukame,estante,kisu,edad",f,v,j,j,n,v,j,j,edad,kisu,kisu,kisu,168,335,944,1073,1,1,0,0,1,1.0,0.7111111111111111,0.7555555555555555
1,1,banana,kazi,1,1,1,1,0.0,1.0,1.0,1.0,0.0,8792.0,2847.0,2728.0,1919.0,1709.100000023842,1245.0999999642372,1149.100000023842,1094.2000000476835,"kasamok,kazi,hagdan,twai","kasamok,hagdan,kazi,twai","kasamok,kazi,hagdan,twai","kasamok,hagdan,twai,kazi",v,j,v,n,v,j,v,n,kazi,kazi,kazi,kazi,120,533,932,1231,1,1,0,0,1,1.0,0.7111111111111111,0.7555555555555555
2,1,bank,silingan,1,0,1,1,0.75,1.0,1.0,1.0,1.0,10097.0,2478.0,3216.0,2511.0,1901.4000000357628,1214.600000023842,1333.9000000357628,1238.199999988079,"kudhibi,tualya,ofisi,silingan","kudhibi,tualya,silingan,ofisi","kudhibi,silingan,tualya,ofisi","kudhibi,tualya,ofisi,silingan",n,j,v,n,n,n,v,n,silingan,ofisi,silingan,silingan,184,503,1046,1111,0,1.0,-1.0,1.0,1,1.0,0.7111111111111111,0.7555555555555555
3,1,basket,kumba,0,1,0,1,0.0,1.0,0.25,0.25,0.0,7240.0,3142.0,4768.0,6639.0,1557.800000011921,1581.399999976158,2589.300000011921,2877.199999988079,"kumba,kumbuka,utepe,hasira","kumbuka,kumba,utepe,hasira","kumbuka,utepe,hasira,kumba","kumbuka,kumba,utepe,hasira",f,v,n,v,v,v,f,v,kumbuka,kumba,kumbuka,kumba,226,344,966,1203,1,1,0,0,0,0.5,0.7111111111111111,0.7555555555555555
4,1,bed,mapintas,1,1,1,1,0.0,0.0,0.75,0.75,1.0,13520.0,5167.0,5480.0,3247.0,1525.300000011921,1197.600000023842,1365.9000000357628,1118.199999988079,"kalipay,haraka,mapintas,starehe","kalipay,haraka,starehe,mapintas","kalipay,haraka,mapintas,starehe","kalipay,haraka,mapintas,starehe",j,n,j,j,j,n,j,j,mapintas,mapintas,mapintas,mapintas,202,542,948,1135,1,0.0,1.0,1.0,1,1.0,0.7111111111111111,0.7555555555555555
5,1,berry,kofia,1,1,1,1,0.75,1.0,1.0,1.0,0.0,8168.0,4238.0,2767.0,2479.0,1733.300000011921,1524.699999988079,1478.0,1614.800000011921,"abogado,kofia,nogozi,kinywa","abogado,kofia,nogozi,kinywa","kofia,abogado,nogozi,kinywa","abogado,nogozi,kofia,kinywa",v,v,f,j,v,v,f,j,kofia,kofia,kofia,kofia,256,461,950,1079,1,1,0,0,1,1.0,0.7111111111111111,0.7555555555555555
6,1,boat,agalon,1,1,1,1,0.0,0.0,1.0,1.0,1.0,4912.0,7351.0,5632.0,2784.0,1646.5,1653.7999999523165,1277.2999999523165,1094.5,"hamsi,pombe,kitanda,agalon","hamsi,pombe,kitanda,agalon","hamsi,pombe,agalon,kitanda","hamsi,pombe,kitanda,agalon",n,n,j,n,n,n,j,n,agalon,agalon,agalon,agalon,268,353,900,1131,1,0.0,1.0,1.0,1,1.0,0.7111111111111111,0.7555555555555555
7,1,body,tindashan,1,1,1,1,0.0,0.0,0.25,0.25,1.0,8336.0,4799.0,6968.0,3487.0,1485.9000000357628,2037.5999999642368,1269.0,1862.699999988079,"nyundu,jibini,kununa,tindashan","nyundu,tindashan,jibini,kununa","nyundu,tindashan,jibini,kununa","nyundu,tindashan,jibini,kununa",n,v,v,v,n,v,v,v,tindashan,tindashan,tindashan,tindashan,136,539,942,1133,1,0.0,1.0,1.0,1,1.0,0.7111111111111111,0.7555555555555555
8,1,bonfire,goti,1,1,1,1,1.0,1.0,1.0,1.0,1.0,3855.0,2919.0,2240.0,2415.0,2991.400000035763,1773.399999976158,1590.4000000357628,1414.5,"mwezi,goti,mfuko,kusanya","mwezi,mfuko,kusanya,goti","mwezi,mfuko,goti,kusanya","goti,mwezi,mfuko,kusanya",v,n,j,f,v,n,j,f,goti,goti,goti,goti,106,434,934,1141,1,1.0,0.0,0.0,1,1.0,0.7111111111111111,0.7555555555555555
9,1,book,mali,1,0,1,1,0.0,0.25,0.75,1.0,1.0,6688.0,4383.0,5672.0,4063.0,1574.0999999642372,1270.5,2013.1000000238416,1174.0999999642372,"kuhesa,picha,mara,mali","kuhesa,picha,mali,mara","kuhesa,picha,mali,mara","mali,kuhesa,picha,mara",n,j,j,f,n,v,j,f,mali,picha,mali,mali,130,437,904,1233,0,0.25,-0.25,0.25,1,1.0,0.7111111111111111,0.7555555555555555
10,1,box,adui,1,1,1,1,0.75,0.75,1.0,1.0,1.0,7848.0,6870.0,2280.0,1992.0,1638.100000023842,4197.799999952316,1581.600000023842,1350.4000000357628,"kuacha,adui,rafiki,kitande","adui,kuacha,rafiki,kitande","kuacha,adui,rafiki,kitande","kuacha,adui,rafiki,kitande",v,f,v,v,v,f,v,v,adui,adui,adui,adui,220,293,988,1239,1,0.75,0.25,0.25,1,1.0,0.7111111111111111,0.7555555555555555
11,1,bread,dari,1,1,1,1,1.0,1.0,1.0,1.0,1.0,3152.0,2614.0,3480.0,1759.0,1965.4000000357628,1614.399999976158,1925.4000000357628,1141.699999988079,"kaili,dari,dizeli,bugas","dari,kaili,dizeli,bugas","kaili,dizeli,dari,bugas","kaili,dizeli,dari,bugas",v,f,j,j,v,f,j,j,dari,dari,dari,dari,144,422,1018,1117,1,1.0,0.0,0.0,1,1.0,0.7111111111111111,0.7555555555555555
12,1,bridge,sahani,0,1,0,1,0.25,0.25,0.25,0.25,1.0,4112.0,4943.0,7776.0,6727.0,1741.300000011921,1630.199999988079,1773.899999976158,1021.5,"sahani,daima,ngono,panya","sahani,daima,ngono,panya","daima,ngono,panya,sahani","daima,sahani,ngono,panya",f,f,n,v,n,f,f,v,panya,sahani,daima,sahani,254,431,978,1081,1,0.25,0.75,0.75,0,0.5,0.7111111111111111,0.7555555555555555
13,1,bucket,kiatu,1,0,1,1,0.0,0.25,0.5,0.5,1.0,7775.0,5046.0,6248.0,3984.0,1926.4000000357628,1069.800000011921,2390.5,1533.0,"baga,kiatu,ijayo,init","kiatu,baga,ijayo,init","baga,ijayo,kiatu,init","kiatu,baga,ijayo,init",v,f,j,f,v,v,j,f,kiatu,baga,kiatu,kiatu,128,458,992,1177,0,0.25,-0.25,0.25,1,1.0,0.7111111111111111,0.7555555555555555
14,1,candle,geza,0,1,0,0,0.0,0.0,0.0,0.0,1.0,4552.0,4014.0,3416.0,7224.0,1429.800000011921,1245.4000000357628,1245.199999988079,2517.600000023842,"gabi,farasi,geza,kupanda","gabi,geza,farasi,kupanda","gabi,farasi,kupanda,geza","gabi,geza,farasi,kupanda",j,v,n,v,v,v,v,n,farasi,geza,farasi,kupanda,250,548,1028,1115,1,0.0,1.0,1.0,0,0.0,0.7111111111111111,0.7555555555555555
15,1,cat,paghukom,0,0,0,1,0.0,0.0,0.25,0.25,1.0,3327.0,2703.0,4328.0,10592.0,1517.800000011921,2270.300000011921,1685.5999999642372,1029.699999988079,"neyemba,paghukom,baki,akili","neyemba,baki,akili,paghukom","neyemba,baki,paghukom,akili","neyemba,baki,akili,paghukom",v,n,j,n,n,v,v,n,akili,baki,baki,paghukom,224,401,922,1145,0,0.0,0.0,0.0,0,0.5,0.7111111111111111,0.7555555555555555
16,1,cave,kesho,1,1,1,1,1.0,1.0,1.0,1.0,1.0,7655.0,2822.0,2023.0,3543.0,1926.1000000238416,1438.0,1478.0,1437.7000000476835,"ganti,maisha,nyundo,kesho","ganti,maisha,kesho,nyundo","ganti,maisha,nyundo,kesho","kesho,ganti,maisha,nyundo",n,j,n,f,n,j,n,f,kesho,kesho,kesho,kesho,146,419,928,1159,1,1.0,0.0,0.0,1,1.0,0.7111111111111111,0.7555555555555555
17,1,ceiling,maua,0,0,1,1,0.0,0.0,0.5,0.5,1.0,3615.0,5519.0,3126.0,2870.0,1501.899999976158,1398.5999999642372,2389.400000035763,2581.900000035763,"kugita,kawaida,maua,rayna","kugita,kawaida,maua,rayna","kugita,kawaida,maua,rayna","kugita,kawaida,maua,rayna",j,j,j,j,v,f,j,j,kawaida,kugita,maua,maua,244,455,1050,1099,0,0.0,0.0,0.0,1,1.0,0.7111111111111111,0.7555555555555555
18,1,cigar,adhabu,0,1,1,1,0.0,1.0,0.5,0.75,0.0,3983.0,6175.0,6632.0,4575.0,1413.800000011921,1581.399999976158,1644.7000000476835,1214.300000011921,"adhabu,ndugu,kuta,mlango","ndugu,kuta,adhabu,mlango","ndugu,adhabu,kuta,mlango","ndugu,kuta,adhabu,mlango",f,j,v,j,v,j,v,j,ndugu,adhabu,adhabu,adhabu,274,518,1064,1193,1,1,0,0,1,1.0,0.7111111111111111,0.7555555555555555
19,1,clock,mbwa,1,1,1,1,0.25,0.0,0.75,1.0,1.0,4168.0,8390.0,3223.0,3439.0,2605.699999988079,1853.800000011921,1231.100000023842,1605.399999976158,"kartasi,mbwa,abang,osha","kartasi,abang,osha,mbwa","kartasi,mbwa,abang,osha","kartasi,abang,mbwa,osha",v,n,v,j,v,n,v,j,mbwa,mbwa,mbwa,mbwa,152,308,1048,1171,1,0.0,1.0,1.0,1,1.0,0.7111111111111111,0.7555555555555555
20,1,coffin,kioo,1,1,1,1,0.25,1.0,1.0,1.0,0.0,5121.0,4990.0,2951.0,2063.0,5901.399999976158,1798.0,1773.699999988079,1374.300000011921,"barua,tubag,kioo,hulma","barua,tubag,hulma,kioo","kioo,barua,tubag,hulma","barua,tubag,hulma,kioo",j,n,f,n,j,n,f,n,kioo,kioo,kioo,kioo,158,314,1010,1091,1,1,0,0,1,1.0,0.7111111111111111,0.7555555555555555
21,1,column,ufagio,1,1,1,1,0.25,1.0,1.0,1.0,0.0,5485.0,4926.0,4591.0,2288.0,2214.100000023842,1814.0,2125.700000047684,1453.800000011921,"ufagio,pundok,dila,pala","pundok,dila,ufagio,pala","pundok,dila,ufagio,pala","pundok,dila,pala,ufagio",f,j,j,n,f,j,j,n,ufagio,ufagio,ufagio,ufagio,110,320,1040,1165,1,1,0,0,1,1.0,0.7111111111111111,0.7555555555555555
22,1,cop,mechezo,1,1,1,1,0.0,0.0,1.0,1.0,1.0,7168.0,5118.0,3104.0,2095.0,2037.800000011921,1461.9000000357628,1214.0999999642372,1150.199999988079,"mechezo,bustani,jikoni,bakus","bustani,mechezo,jikoni,bakus","bustani,jikoni,mechezo,bakus","bustani,jikoni,bakus,mechezo",f,v,j,n,f,v,j,n,mechezo,mechezo,mechezo,mechezo,174,500,936,1105,1,0.0,1.0,1.0,1,1.0,0.7111111111111111,0.7555555555555555
23,1,cup,matumai,1,1,1,1,0.0,0.0,0.25,0.25,1.0,3855.0,4840.0,7239.0,8096.0,1725.7999999523165,1741.5,1174.100000023842,1357.899999976158,"dagat,shimoni,jeraha,matumai","dagat,shimoni,matumai,jeraha","dagat,matumai,shimoni,jeraha","dagat,shimoni,matumai,jeraha",n,j,v,j,n,j,v,j,matumai,matumai,matumai,matumai,122,299,906,1219,1,0.0,1.0,1.0,1,1.0,0.7111111111111111,0.7555555555555555
24,1,curtain,mchanga,1,0,0,1,0.25,0.0,0.25,0.25,1.0,4767.0,3270.0,5912.0,4119.0,1582.2999999523165,1309.5,1125.699999988079,1310.199999988079,"mchanga,lisud,bulwawan,chubani","lisud,bulwawan,chubani,mchanga","mchanga,lisud,bulwawan,chubani","mchanga,lisud,bulwawan,chubani",f,n,f,f,f,v,n,f,mchanga,bulwawan,chubani,mchanga,264,305,968,1213,0,0.0,0.0,0.0,0,0.5,0.7111111111111111,0.7555555555555555
25,1,dog,bahari,0,1,0,0,0.0,1.0,0.5,0.25,0.0,5216.0,8872.0,6216.0,5575.0,1462.0,7613.900000035763,2477.399999976158,1485.600000023842,"lubi,bahari,washia,kalamu","lubi,washia,bahari,kalamu","bahari,lubi,washia,kalamu","lubi,washia,kalamu,bahari",v,j,f,n,f,j,v,f,lubi,bahari,lubi,lubi,218,509,1002,1217,1,1,0,0,0,0.0,0.7111111111111111,0.7555555555555555
26,1,donkey,elfu,1,1,1,1,1.0,1.0,1.0,1.0,1.0,4847.0,3526.0,2552.0,2048.0,1998.0,1678.100000023842,1517.199999988079,1246.100000023842,"bloke,elfu,lalake,rombus","elfu,bloke,lalake,rombus","bloke,elfu,lalake,rombus","bloke,elfu,lalake,rombus",v,f,v,v,v,f,v,v,elfu,elfu,elfu,elfu,186,428,902,1189,1,1.0,0.0,0.0,1,1.0,0.7111111111111111,0.7555555555555555
27,1,door,surali,0,1,1,1,0.0,0.0,0.75,1.0,1.0,5184.0,4375.0,6631.0,3607.0,1606.399999976158,1382.300000011921,1485.800000011921,1374.0,"tena,soko,surali,nyota","tena,surali,soko,nyota","surali,tena,soko,nyota","surali,tena,soko,nyota",j,v,f,f,n,v,f,f,nyota,surali,surali,surali,260,380,894,1199,1,0.0,1.0,1.0,1,1.0,0.7111111111111111,0.7555555555555555
28,1,eel,msumari,0,1,1,1,0.25,0.0,0.25,0.25,1.0,5415.0,4997.0,6455.0,4079.0,1917.899999976158,1750.199999988079,1439.300000011921,997.6999999880792,"ishara,kunywa,msumari,kabuang","msumari,ishara,kunywa,kabuang","ishara,msumari,kunywa,kabuang","ishara,kunywa,kabuang,msumari",j,f,v,n,f,f,v,n,ishara,msumari,msumari,msumari,172,329,1004,1149,1,0.0,1.0,1.0,1,1.0,0.7111111111111111,0.7555555555555555
29,1,elephant,kito,1,0,1,1,0.0,0.0,0.75,0.25,1.0,6031.0,5382.0,3984.0,4400.0,1789.899999976158,1661.800000011921,1333.0,1173.9000000357628,"petye,pagduol,kito,suka","petye,pagduol,kito,suka","petye,kito,pagduol,suka","petye,kito,pagduol,suka",j,j,v,v,j,v,v,v,kito,pagduol,kito,kito,126,416,1034,1205,0,0.0,0.0,0.0,1,1.0,0.7111111111111111,0.7555555555555555
30,1,finger,moyo,0,0,1,1,0.0,0.0,0.75,0.75,1.0,4695.0,3933.0,4360.0,3328.0,1389.9000000357628,1670.5,1012.600000023842,965.4000000357628,"simu,sufuria,moyo,lima","simu,moyo,sufuria,lima","moyo,simu,sufuria,lima","moyo,simu,sufuria,lima",j,v,f,f,n,n,f,f,lima,lima,moyo,moyo,212,350,964,1179,0,0.0,0.0,0.0,1,1.0,0.7111111111111111,0.7555555555555555
31,1,fish,buli,0,0,1,1,0.0,0.25,1.0,1.0,1.0,3303.0,3678.0,2599.0,2135.0,1406.0999999642372,1461.800000011921,1357.800000011921,1286.2999999523165,"bala,baho,imani,buli","bala,baho,buli,imani","bala,baho,imani,buli","bala,buli,baho,imani",n,j,n,v,v,n,n,v,baho,imani,buli,buli,262,440,924,1143,0,0.25,-0.25,0.25,1,1.0,0.7111111111111111,0.7555555555555555
32,1,flag,trekta,1,1,1,1,0.0,1.0,1.0,1.0,1.0,2640.0,7191.0,3144.0,2359.0,1749.699999988079,1613.2000000476835,1597.4000000357628,1189.800000011921,"ndege,mkate,kawa,trekta","trekta,ndege,mkate,kawa","ndege,trekta,mkate,kawa","trekta,ndege,mkate,kawa",n,f,v,f,n,f,v,f,trekta,trekta,trekta,trekta,266,374,954,1215,1,1.0,0.0,0.0,1,1.0,0.7111111111111111,0.7555555555555555
33,1,flower,bega,0,0,1,0,0.0,0.0,0.25,0.0,1.0,14871.0,49619.0,4992.0,7159.0,2445.399999976158,2029.200000047684,1189.5999999642372,1718.699999988079,"tamasha,bega,lobo,usiku","tamasha,bega,lobo,usiku","tamasha,lobo,usiku,bega","tamasha,lobo,bega,usiku",v,v,n,j,f,j,n,n,tamasha,lobo,bega,usiku,108,515,1026,1225,0,0.0,0.0,0.0,0,0.5,0.7111111111111111,0.7555555555555555
34,1,fork,mgonjwa,0,0,0,0,0.25,0.0,0.0,0.25,1.0,3607.0,45542.0,4816.0,5711.0,3773.699999988079,2038.199999988079,1676.5,1157.899999976158,"baboy,paghago,gorisi,mgonjwa","mgonjwa,baboy,paghago,gorisi","mgonjwa,baboy,paghago,gorisi","baboy,mgonjwa,paghago,gorisi",n,f,f,v,v,n,j,j,paghago,gorisi,paghago,paghago,116,524,986,1187,0,0.0,0.0,0.0,0,0.0,0.7111111111111111,0.7555555555555555
35,1,gift,pagtawag,0,1,1,1,0.0,0.0,1.0,1.0,1.0,7991.0,5110.0,4848.0,3592.0,1605.800000011921,1694.0,1221.399999976158,1085.0,"baba,nyange,baso,pagtawag","baba,nyange,baso,pagtawag","baba,pagtawag,nyange,baso","baba,pagtawag,nyange,baso",n,n,v,v,j,n,v,v,baso,pagtawag,pagtawag,pagtawag,230,332,990,1107,1,0.0,1.0,1.0,1,1.0,0.7111111111111111,0.7555555555555555
36,1,giraffe,mahitabo,1,1,1,1,0.0,0.0,0.75,1.0,1.0,6816.0,4214.0,3639.0,4440.0,1692.0,1421.399999976158,1373.699999988079,1310.399999976158,"mahitabo,daraja,jumatu,hangyo","mahitabo,daraja,jumatu,hangyo","daraja,jumatu,hangyo,mahitabo","mahitabo,daraja,jumatu,hangyo",f,f,n,f,f,f,n,f,mahitabo,mahitabo,mahitabo,mahitabo,216,413,1024,1095,1,0.0,1.0,1.0,1,1.0,0.7111111111111111,0.7555555555555555
37,1,hammer,napakyas,0,0,0,0,0.0,0.0,0.5,0.5,1.0,4968.0,5800.0,4135.0,3415.0,1622.199999988079,1798.4000000357628,1902.0999999642368,1550.0,"mekno,kitovu,napakyas,layag","mekno,kitovu,layag,napakyas","napakyas,mekno,kitovu,layag","napakyas,mekno,kitovu,layag",j,n,f,f,f,f,v,v,mekno,mekno,mekno,mekno,240,521,1062,1247,0,0.0,0.0,0.0,0,0.0,0.7111111111111111,0.7555555555555555
38,1,hill,matumbo,0,0,1,1,0.0,0.0,0.75,1.0,1.0,6592.0,5677.0,6256.0,2688.0,1493.0999999642372,1462.0999999642372,1141.9000000357628,1357.300000011921,"matumbo,kushoto,kukimba,sweta","matumbo,kushoto,kukimba,sweta","kushoto,matumbo,kukimba,sweta","kushoto,kukimba,sweta,matumbo",f,f,v,n,j,n,v,n,kukimba,sweta,matumbo,matumbo,192,356,980,1123,0,0.0,0.0,0.0,1,1.0,0.7111111111111111,0.7555555555555555
39,1,human,tinapay,0,0,1,1,0.0,0.0,0.25,0.25,1.0,7200.0,4758.0,3407.0,3103.0,1941.5,1358.5999999642372,1333.699999988079,1613.9000000357628,"bado,kikapu,tinapay,punguza","bado,kikapu,punguza,tinapay","bado,kikapu,punguza,tinapay","bado,kikapu,punguza,tinapay",j,n,n,n,f,j,n,n,bado,punguza,tinapay,tinapay,150,395,912,1183,0,0.0,0.0,0.0,1,1.0,0.7111111111111111,0.7555555555555555
40,1,key,chombo,0,0,1,1,0.0,0.0,1.0,0.75,1.0,7624.0,6118.0,4231.0,5048.0,1422.100000023842,1877.300000011921,1261.699999988079,1757.4000000357628,"miaka,goma,chombo,ahos","chombo,miaka,goma,ahos","miaka,chombo,goma,ahos","chombo,miaka,goma,ahos",j,f,v,f,n,n,v,f,ahos,ahos,chombo,chombo,204,485,972,1197,0,0.0,0.0,0.0,1,1.0,0.7111111111111111,0.7555555555555555
41,1,knee,duka,0,0,0,0,0.0,0.0,0.5,0.5,1.0,2335.0,4950.0,9487.0,3416.0,1534.4000000357628,1830.0,1813.5999999642368,1581.5,"duka,mvuke,kubale,bili","duka,mvuke,kubale,bili","mvuke,kubale,duka,bili","mvuke,duka,kubale,bili",f,f,j,v,n,v,f,f,bili,mvuke,mvuke,mvuke,242,341,1012,1075,0,0.0,0.0,0.0,0,0.0,0.7111111111111111,0.7555555555555555
42,1,ladder,pangalan,0,0,0,0,0.25,0.0,0.0,0.25,1.0,16241.0,4014.0,7144.0,7424.0,2660.900000035763,1694.399999976158,1318.600000023842,1093.899999976158,"mashua,pangalan,mwanga,kamba","mashua,mwanga,pangalan,kamba","mashua,pangalan,mwanga,kamba","pangalan,mashua,mwanga,kamba",v,j,v,f,f,n,n,j,mashua,kamba,kamba,mwanga,148,530,892,1085,0,0.0,0.0,0.0,0,0.0,0.7111111111111111,0.7555555555555555
43,1,lamp,afya,0,1,1,1,0.25,0.0,0.75,1.0,1.0,7327.0,4277.0,3399.0,3896.0,1694.199999988079,1734.0999999642372,1478.2999999523165,1021.8000000119208,"afya,daub,bilaska,mbolea","afya,daub,bilaska,mbolea","daub,bilaska,afya,mbolea","daub,bilaska,mbolea,afya",f,f,j,n,j,f,j,n,bilaska,afya,afya,afya,272,389,930,1157,1,0.0,1.0,1.0,1,1.0,0.7111111111111111,0.7555555555555555
44,1,letter,kifua,1,1,1,1,0.0,1.0,0.75,1.0,0.0,9208.0,6519.0,4880.0,5702.0,1653.5999999642372,1974.1000000238416,1269.699999988079,1286.7999999523165,"filimbi,kifua,chuma,uhuru","filimbi,chuma,kifua,uhuru","filimbi,chuma,uhuru,kifua","filimbi,chuma,kifua,uhuru",v,j,n,j,v,j,n,j,kifua,kifua,kifua,kifua,170,506,982,1113,1,1,0,0,1,1.0,0.7111111111111111,0.7555555555555555
45,1,list,wingu,1,1,1,1,0.75,1.0,1.0,1.0,1.0,5319.0,18696.0,3320.0,4208.0,1541.800000011921,1485.2999999523165,1277.9000000357628,1470.9000000357628,"alizeti,kuzama,kaso,wingu","alizeti,kuzama,wingu,kaso","alizeti,kuzama,wingu,kaso","alizeti,wingu,kuzama,kaso",n,j,j,v,n,j,j,v,wingu,wingu,wingu,wingu,276,554,1044,1069,1,1.0,0.0,0.0,1,1.0,0.7111111111111111,0.7555555555555555
46,1,magazine,kiti,0,0,1,1,0.25,0.0,0.5,1.0,1.0,5128.0,6727.0,2983.0,4055.0,1494.300000011921,3093.599999964237,2444.899999976158,1229.5999999642372,"kiti,gundi,mchawi,bahandi","kiti,gundi,mchawi,bahandi","gundi,mchawi,kiti,bahandi","kiti,gundi,mchawi,bahandi",f,f,j,f,j,j,j,f,mchawi,mchawi,kiti,kiti,142,317,1054,1153,0,0.0,0.0,0.0,1,1.0,0.7111111111111111,0.7555555555555555
47,1,marker,maji,1,0,1,1,0.0,0.0,0.75,0.5,1.0,2007.0,6055.0,10255.0,6017.0,1525.600000023842,1389.5999999642372,1109.5999999642372,2148.800000011921,"mapafu,salita,maji,atay","mapafu,salita,maji,atay","mapafu,salita,atay,maji","mapafu,salita,atay,maji",j,j,n,n,j,f,n,n,maji,mapafu,maji,maji,248,491,938,1101,0,0.0,0.0,0.0,1,1.0,0.7111111111111111,0.7555555555555555
48,1,mirror,sulagma,0,1,1,1,0.0,0.0,0.75,0.5,1.0,6800.0,4966.0,5904.0,3488.0,1612.800000011921,1845.6000000238416,1197.9000000357628,2341.800000011921,"rangi,sulagma,kanding,furaha","sulagma,rangi,kanding,furaha","rangi,sulagma,kanding,furaha","rangi,kanding,furaha,sulagma",v,f,v,n,j,f,v,n,kanding,sulagma,sulagma,sulagma,132,311,952,1097,1,0.0,1.0,1.0,1,1.0,0.7111111111111111,0.7555555555555555
49,1,mosquito,martilyo,0,1,1,1,0.25,0.25,1.0,1.0,1.0,3864.0,6735.0,2719.0,3047.0,1870.300000011921,1693.7999999523165,1262.199999988079,1350.100000023842,"martilyo,isda,taras,gutom","isda,martilyo,taras,gutom","isda,taras,gutom,martilyo","martilyo,isda,taras,gutom",f,v,n,f,n,v,n,f,gutom,martilyo,martilyo,martilyo,118,467,1038,1241,1,0.25,0.75,0.75,1,1.0,0.7111111111111111,0.7555555555555555
50,1,mother,babaye,1,1,1,1,0.0,1.0,0.75,1.0,0.0,4608.0,5382.0,6616.0,2792.0,1541.899999976158,1677.800000011921,1406.100000023842,1815.0,"kahawa,babaye,mbuzi,jokofu","kahawa,mbuzi,jokofu,babaye","babaye,kahawa,mbuzi,jokofu","kahawa,babaye,mbuzi,jokofu",v,n,f,v,v,n,f,v,babaye,babaye,babaye,babaye,200,464,1030,1181,1,1,0,0,1,1.0,0.7111111111111111,0.7555555555555555
51,1,music,baiski,1,1,1,1,0.25,0.75,1.0,1.0,1.0,5967.0,4206.0,2799.0,2592.0,5406.099999964237,1461.800000011921,1230.699999988079,1382.100000023842,"baiski,mraba,mageho,tumbo","mraba,baiski,mageho,tumbo","mraba,baiski,mageho,tumbo","mraba,mageho,baiski,tumbo",f,v,v,j,f,v,v,j,baiski,baiski,baiski,baiski,112,482,1000,1209,1,0.75,0.25,0.25,1,1.0,0.7111111111111111,0.7555555555555555
52,1,nose,sehemu,0,1,0,0,0.0,1.0,0.0,0.0,0.0,3735.0,4238.0,3200.0,5967.0,1741.7999999523165,1685.5,2133.900000035763,1605.600000023842,"sehemu,gubat,kopa,kidole","gubat,kopa,sehemu,kidole","gubat,kopa,sehemu,kidole","gubat,sehemu,kopa,kidole",f,j,j,v,v,j,v,j,gubat,sehemu,kopa,kopa,180,452,998,1129,1,1,0,0,0,0.0,0.7111111111111111,0.7555555555555555
53,1,notebook,kemia,0,0,1,1,0.25,0.75,0.75,0.75,1.0,8815.0,2719.0,6583.0,4807.0,1485.9000000357628,3078.199999988079,1166.0,1046.199999988079,"kemia,msitu,kila,mdudu","msitu,kila,mdudu,kemia","msitu,kila,mdudu,kemia","msitu,kila,mdudu,kemia",f,n,n,n,j,v,n,n,kila,kila,kemia,kemia,160,371,960,1109,0,0.75,-0.75,0.75,1,1.0,0.7111111111111111,0.7555555555555555
54,1,number,mundamo,0,1,1,1,1.0,1.0,1.0,1.0,1.0,5111.0,5838.0,3240.0,2710.0,1751.7000000476835,2110.5,1173.0999999642372,1566.199999988079,"mundamo,shule,kengele,choori","shule,kengele,mundamo,choori","shule,kengele,mundamo,choori","mundamo,shule,kengele,choori",f,j,j,f,j,j,j,f,kengele,mundamo,mundamo,mundamo,166,323,1006,1071,1,1.0,0.0,0.0,1,1.0,0.7111111111111111,0.7555555555555555
55,1,office,leso,1,1,1,1,0.25,1.0,1.0,1.0,1.0,4392.0,4086.0,2976.0,4135.0,2293.0,1414.100000023842,1414.0999999642372,1101.100000023842,"hazini,leso,yatima,kuna","hazini,leso,yatima,kuna","hazini,yatima,kuna,leso","hazini,leso,yatima,kuna",v,v,n,v,v,v,n,v,leso,leso,leso,leso,134,494,1056,1207,1,1.0,0.0,0.0,1,1.0,0.7111111111111111,0.7555555555555555
56,1,olive,jiwe,1,0,1,1,0.25,0.0,1.0,1.0,1.0,5512.0,4735.0,2792.0,3327.0,2078.099999964237,1461.7999999523165,1293.699999988079,1357.800000011921,"bata,siagi,jiwe,welder","bata,jiwe,siagi,welder","bata,jiwe,siagi,welder","bata,siagi,jiwe,welder",j,v,v,j,j,j,v,j,jiwe,siagi,jiwe,jiwe,140,557,974,1195,0,0.0,0.0,0.0,1,1.0,0.7111111111111111,0.7555555555555555
57,1,page,wimbo,0,1,1,1,0.0,0.75,1.0,1.0,1.0,13135.0,2607.0,5066.0,4527.0,1693.699999988079,1222.0,1726.199999988079,1349.9000000357628,"wimbo,wakala,ishiri,skina","wimbo,wakala,ishiri,skina","wakala,wimbo,ishiri,skina","wimbo,wakala,ishiri,skina",f,f,v,f,j,f,v,f,ishiri,wimbo,wimbo,wimbo,206,449,888,1167,1,0.75,0.25,0.25,1,1.0,0.7111111111111111,0.7555555555555555
58,1,pants,haki,0,0,0,0,0.25,0.25,0.5,0.25,1.0,7974.0,4735.0,6383.0,2400.0,1325.699999988079,1821.5999999642368,1773.399999976158,1077.600000023842,"pintal,chuki,hari,haki","pintal,chuki,haki,hari","pintal,haki,chuki,hari","haki,pintal,chuki,hari",n,j,v,f,f,f,n,n,pintal,pintal,hari,hari,208,296,1042,1087,0,0.25,-0.25,0.25,0,0.0,0.7111111111111111,0.7555555555555555
59,1,park,bunifu,0,0,1,1,0.0,0.0,0.0,0.25,1.0,6896.0,5312.0,3807.0,4096.0,1493.699999988079,1950.0,2712.800000011921,1029.600000023842,"tambok,bunifu,pwani,ihalas","tambok,pwani,bunifu,ihalas","bunifu,tambok,pwani,ihalas","tambok,bunifu,pwani,ihalas",v,j,f,v,n,f,f,v,ihalas,tambok,bunifu,bunifu,164,347,916,1093,0,0.0,0.0,0.0,1,1.0,0.7111111111111111,0.7555555555555555
60,1,perfume,katuyoan,0,0,1,1,0.0,0.25,1.0,1.0,1.0,5536.0,5006.0,5744.0,2631.0,2078.5,1181.899999976158,1381.2999999523165,1157.5,"bino,sungura,katuyoan,ndogo","bino,sungura,ndogo,katuyoan","katuyoan,bino,sungura,ndogo","katuyoan,bino,sungura,ndogo",j,n,f,f,f,v,f,f,bino,sungura,katuyoan,katuyoan,138,470,970,1083,0,0.25,-0.25,0.25,1,1.0,0.7111111111111111,0.7555555555555555
61,1,picture,kubwa,1,1,1,1,0.0,1.0,0.25,0.0,0.0,5969.0,3990.0,7207.0,4688.0,1261.300000011921,2109.399999976158,1149.9000000357628,1563.699999988079,"kubwa,silya,chaki,asin","silya,chaki,asin,kubwa","silya,chaki,kubwa,asin","silya,chaki,kubwa,asin",f,n,j,j,f,n,j,j,kubwa,kubwa,kubwa,kubwa,280,560,898,1227,1,1,0,0,1,1.0,0.7111111111111111,0.7555555555555555
62,1,poster,madungog,0,0,0,0,0.0,0.25,0.0,0.25,1.0,14633.0,3934.0,4360.0,4831.0,1981.300000011921,1198.4000000357628,1316.899999976158,1126.5999999642372,"nchi,madungog,fedha,kasuko","madungog,nchi,fedha,kasuko","nchi,fedha,madungog,kasuko","nchi,fedha,kasuko,madungog",v,f,j,n,j,v,v,f,fedha,nchi,fedha,nchi,188,479,918,1237,0,0.25,-0.25,0.25,0,0.0,0.7111111111111111,0.7555555555555555
63,1,pudding,aibu,0,1,1,1,0.0,0.0,0.25,0.75,1.0,3271.0,5182.0,6479.0,2959.0,1334.300000011921,1358.199999988079,1613.899999976158,1030.2000000476835,"abug,mpishi,iring,aibu","abug,mpishi,aibu,iring","aibu,abug,mpishi,iring","abug,mpishi,iring,aibu",n,j,f,n,v,j,f,n,mpishi,aibu,aibu,aibu,234,536,910,1155,1,0.0,1.0,1.0,1,1.0,0.7111111111111111,0.7555555555555555
64,1,puppet,mazishi,0,1,0,0,0.0,1.0,0.25,0.0,0.0,3159.0,5062.0,6144.0,4008.0,1461.800000011921,2134.0,1181.800000011921,1261.800000011921,"napulo,lamok,mazishi,godoro","napulo,mazishi,lamok,godoro","mazishi,napulo,lamok,godoro","napulo,lamok,godoro,mazishi",j,v,f,n,v,v,n,v,lamok,mazishi,godoro,lamok,190,476,996,1229,1,1,0,0,0,0.0,0.7111111111111111,0.7555555555555555
65,1,rose,paghalad,0,0,1,1,0.0,0.0,1.0,1.0,1.0,16199.0,7999.0,4865.0,4920.0,1389.399999976158,1494.0,1117.199999988079,1365.4000000357628,"singizi,mwanake,amani,paghalad","singizi,paghalad,mwanake,amani","singizi,mwanake,paghalad,amani","singizi,mwanake,amani,paghalad",n,v,j,n,v,j,j,n,mwanake,mwanake,paghalad,paghalad,270,326,976,1121,0,0.0,0.0,0.0,1,1.0,0.7111111111111111,0.7555555555555555
66,1,salmon,sensilyo,1,1,1,1,1.0,1.0,1.0,1.0,1.0,5424.0,4791.0,3047.0,2480.0,1661.5999999642372,1749.699999988079,1229.899999976158,1294.0,"mzungu,seri,baharia,sensilyo","sensilyo,mzungu,seri,baharia","sensilyo,mzungu,seri,baharia","mzungu,seri,sensilyo,baharia",n,f,f,j,n,f,f,j,sensilyo,sensilyo,sensilyo,sensilyo,156,383,946,1089,1,1.0,0.0,0.0,1,1.0,0.7111111111111111,0.7555555555555555
67,1,scissors,tanuri,0,0,0,0,0.0,0.0,0.25,0.25,1.0,8058.0,2462.0,2967.0,4239.0,1894.399999976158,1455.0,998.1999999880792,1950.5,"duga,tanuri,mtawa,suga","tanuri,duga,mtawa,suga","duga,mtawa,tanuri,suga","duga,mtawa,tanuri,suga",v,f,j,j,j,v,f,v,mtawa,duga,duga,mtawa,222,446,1022,1245,0,0.0,0.0,0.0,0,0.0,0.7111111111111111,0.7555555555555555
68,1,sheet,bililhon,0,0,1,1,0.0,0.0,0.25,0.25,1.0,5783.0,3839.0,5816.0,4319.0,1886.199999988079,2190.399999976158,1853.6000000238416,949.1999999880792,"juuya,watu,kamantis,bililhon","juuya,watu,bililhon,kamantis","juuya,watu,bililhon,kamantis","juuya,bililhon,watu,kamantis",n,j,j,v,j,v,j,v,kamantis,watu,bililhon,bililhon,278,473,890,1221,0,0.0,0.0,0.0,1,1.0,0.7111111111111111,0.7555555555555555
69,1,shelf,pamahaw,0,1,0,0,0.0,1.0,0.5,0.25,0.0,6176.0,4991.0,4919.0,4127.0,1718.0,1837.9000000357628,2230.5,1061.699999988079,"bungtod,pamahaw,kadaot,awit","bungtod,kadaot,awit,pamahaw","bungtod,kadaot,awit,pamahaw","bungtod,pamahaw,kadaot,awit",v,n,n,v,n,n,j,j,awit,pamahaw,awit,kadaot,154,392,1036,1243,1,1,0,0,0,0.0,0.7111111111111111,0.7555555555555555
70,1,shoe,uyoga,0,0,0,0,0.0,0.0,0.25,0.25,1.0,3104.0,5374.0,4751.0,5415.0,1333.7999999523165,1622.699999988079,2726.2999999523163,1046.0,"nyeusi,uyoga,hatua,kama","nyeusi,uyoga,hatua,kama","nyeusi,hatua,uyoga,kama","uyoga,nyeusi,hatua,kama",v,v,j,f,n,j,v,j,kama,hatua,hatua,hatua,214,497,1066,1169,0,0.0,0.0,0.0,0,0.0,0.7111111111111111,0.7555555555555555
71,1,shop,samaki,1,1,1,1,0.0,0.0,0.0,0.0,1.0,5439.0,16262.0,7727.0,5199.0,1726.0,2710.099999964237,1317.800000011921,2109.800000011921,"samaki,nopya,kerida,ndezu","nopya,samaki,kerida,ndezu","nopya,kerida,samaki,ndezu","nopya,samaki,kerida,ndezu",f,v,j,v,f,v,j,v,samaki,samaki,samaki,samaki,124,512,994,1127,1,0.0,1.0,1.0,1,1.0,0.7111111111111111,0.7555555555555555
72,1,shoulder,mkuu,0,0,1,1,0.0,0.0,1.0,1.0,1.0,4815.0,3438.0,4184.0,3176.0,1839.5,1220.9000000357628,1276.9000000357628,1069.699999988079,"kelele,ndaniya,mkuu,guruwe","kelele,ndaniya,guruwe,mkuu","kelele,mkuu,ndaniya,guruwe","mkuu,kelele,ndaniya,guruwe",j,n,v,f,f,v,v,f,kelele,ndaniya,mkuu,mkuu,162,386,956,1161,0,0.0,0.0,0.0,1,1.0,0.7111111111111111,0.7555555555555555
73,1,snake,pagtukod,0,0,1,1,0.0,0.0,1.0,0.75,1.0,11064.0,5006.0,3838.0,3190.0,1557.600000023842,1566.300000011921,1126.199999988079,1231.0,"jansa,pagtukod,karon,mvringo","pagtukod,jansa,karon,mvringo","jansa,pagtukod,karon,mvringo","jansa,pagtukod,karon,mvringo",v,f,v,v,f,v,v,v,jansa,jansa,pagtukod,pagtukod,228,365,962,1119,0,0.0,0.0,0.0,1,1.0,0.7111111111111111,0.7555555555555555
74,1,sock,mamba,0,1,1,1,0.0,0.25,0.75,0.5,1.0,5423.0,3382.0,3217.0,3639.0,2366.300000011921,1181.7999999523165,1076.0999999642372,1694.5,"ndoora,kimysa,mtirka,mamba","ndoora,mamba,kimysa,mtirka","ndoora,kimysa,mamba,mtirka","ndoora,kimysa,mtirka,mamba",n,v,j,n,j,v,j,n,mtirka,mamba,mamba,mamba,182,488,984,1103,1,0.25,0.75,0.75,1,1.0,0.7111111111111111,0.7555555555555555
75,1,spider,kamwe,1,0,1,1,0.25,0.0,1.0,0.5,1.0,6207.0,4782.0,3456.0,5111.0,1942.699999988079,1789.9000000357628,1269.600000023842,1718.0999999642372,"kamwe,bunyag,mkboa,atop","bunyag,mkboa,kamwe,atop","bunyag,mkboa,atop,kamwe","bunyag,mkboa,kamwe,atop",f,j,n,j,f,f,n,j,kamwe,bunyag,kamwe,kamwe,114,404,896,1147,0,0.0,0.0,0.0,1,1.0,0.7111111111111111,0.7555555555555555
76,1,spoon,pagsulod,0,0,1,1,0.0,0.0,0.25,0.0,1.0,3488.0,3846.0,3272.0,4471.0,1750.4000000357628,2374.0,1357.600000023842,1461.199999988079,"betri,nzuri,pagsulod,ngazi","pagsulod,betri,nzuri,ngazi","pagsulod,betri,nzuri,ngazi","betri,pagsulod,nzuri,ngazi",j,f,f,v,f,n,f,v,betri,ngazi,pagsulod,pagsulod,246,443,1060,1223,0,0.0,0.0,0.0,1,1.0,0.7111111111111111,0.7555555555555555
77,1,squirrel,hofu,1,0,1,0,0.0,0.25,0.25,0.25,1.0,5960.0,3742.0,7312.0,4215.0,1742.600000023842,1511.300000011921,1309.4000000357628,1558.0,"hofu,mahugaw,ukweli,kichwa","mahugaw,hofu,ukweli,kichwa","mahugaw,ukweli,hofu,kichwa","hofu,mahugaw,ukweli,kichwa",f,v,j,f,f,n,j,n,hofu,kichwa,hofu,kichwa,178,377,914,1137,0,0.25,-0.25,0.25,0,0.5,0.7111111111111111,0.7555555555555555
78,1,stone,wingi,0,1,1,1,0.0,0.25,0.5,0.5,1.0,4455.0,9391.0,5279.0,6400.0,1837.5999999642368,2429.300000011921,1517.7000000476835,1709.100000023842,"ulimwengu,mkasi,asili,wingi","wingi,ulimwengu,mkasi,asili","ulimwengu,mkasi,asili,wingi","ulimwengu,mkasi,asili,wingi",n,f,n,n,v,f,n,n,mkasi,wingi,wingi,wingi,238,425,1016,1163,1,0.25,0.75,0.75,1,1.0,0.7111111111111111,0.7555555555555555
79,1,sun,basi,0,1,1,0,0.0,1.0,1.0,1.0,0.0,9023.0,2911.0,4303.0,3688.0,1614.0,1134.5,1382.399999976158,2229.800000011921,"bendi,basi,luha,uongo","bendi,luha,uongo,basi","bendi,luha,uongo,basi","bendi,luha,uongo,basi",v,n,n,n,j,n,n,v,luha,basi,basi,luha,210,527,908,1185,1,1,0,0,0,0.5,0.7111111111111111,0.7555555555555555
80,1,tissue,ugomvi,0,0,0,0,0.0,0.0,0.25,0.25,1.0,3608.0,9198.0,9953.0,7767.0,1485.300000011921,1494.0,1293.199999988079,1326.300000011921,"ugomvi,lamigas,kisiwa,katika","lamigas,kisiwa,katika,ugomvi","ugomvi,lamigas,kisiwa,katika","lamigas,kisiwa,katika,ugomvi",f,n,f,n,n,j,n,j,katika,katika,katika,katika,252,545,958,1211,0,0.0,0.0,0.0,0,0.0,0.7111111111111111,0.7555555555555555
81,1,tomato,mvua,0,1,1,1,0.0,1.0,1.0,1.0,0.0,9131.0,8591.0,4960.0,3991.0,1965.699999988079,1541.399999976158,1293.2999999523165,1574.0,"chupi,mvua,chupa,takatak","chupi,chupa,mvua,takatak","chupi,chupa,mvua,takatak","chupi,chupa,takatak,mvua",v,j,j,n,n,j,j,n,takatak,mvua,mvua,mvua,236,551,1008,1175,1,1,0,0,1,1.0,0.7111111111111111,0.7555555555555555
82,1,tooth,kabalaka,0,0,0,0,0.0,0.0,0.25,0.25,1.0,2826.0,4286.0,4991.0,3936.0,1397.9000000357628,1574.5,1445.399999976158,2669.5,"kijiko,uadui,pahiyum,kabalaka","kijiko,uadui,kabalaka,pahiyum","kabalaka,kijiko,uadui,pahiyum","kabalaka,kijiko,uadui,pahiyum",n,j,f,f,v,v,j,v,uadui,uadui,uadui,kijiko,194,368,926,1077,0,0.0,0.0,0.0,0,0.0,0.7111111111111111,0.7555555555555555
83,1,towel,pagpalit,1,1,0,0,0.25,0.0,0.25,0.0,1.0,5448.0,4655.0,4287.0,9056.0,1542.0,1470.5,1422.399999976158,1133.4000000357628,"tembo,funzi,pito,pagpalit","tembo,pagpalit,funzi,pito","pagpalit,tembo,funzi,pito","tembo,pagpalit,funzi,pito",n,v,f,v,n,v,v,j,pagpalit,pagpalit,tembo,funzi,282,398,1032,1173,1,0.0,1.0,1.0,0,0.0,0.7111111111111111,0.7555555555555555
84,1,train,sayari,0,0,1,1,0.0,0.0,1.0,1.0,1.0,7463.0,5527.0,4791.0,3111.0,1934.199999988079,1486.0,1158.5,1070.0,"sayari,itik,dakika,mungu","sayari,itik,dakika,mungu","itik,sayari,dakika,mungu","itik,dakika,sayari,mungu",f,f,v,j,n,j,v,j,mungu,dakika,sayari,sayari,232,359,1052,1125,0,0.0,0.0,0.0,1,1.0,0.7111111111111111,0.7555555555555555
85,1,triangle,kasadpan,0,0,0,0,0.0,0.0,0.0,0.0,1.0,31170.0,5550.0,2849.0,5119.0,1597.699999988079,1645.5,1197.699999988079,1557.5,"kihozi,bentaha,kasadpan,liog","kihozi,bentaha,liog,kasadpan","kasadpan,kihozi,bentaha,liog","kihozi,bentaha,kasadpan,liog",j,n,f,j,f,j,v,f,kihozi,liog,kihozi,kihozi,258,302,1020,1235,0,0.0,0.0,0.0,0,0.0,0.7111111111111111,0.7555555555555555
86,1,wheel,bafuni,1,1,1,0,0.0,1.0,0.25,0.25,0.0,2959.0,5118.0,2670.0,3016.0,1413.5999999642372,1502.100000023842,2029.699999988079,1037.699999988079,"punda,tawo,bafuni,baadaye","punda,tawo,baadaye,bafuni","bafuni,punda,tawo,baadaye","punda,tawo,bafuni,baadaye",j,n,f,j,j,n,f,f,bafuni,bafuni,bafuni,punda,198,338,1058,1201,1,1,0,0,0,0.5,0.7111111111111111,0.7555555555555555
87,1,window,kweli,0,1,0,0,0.0,0.0,0.25,0.25,1.0,4351.0,3598.0,6559.0,8055.0,1621.699999988079,1414.0,1206.199999988079,1342.7000000476835,"nanga,kujenga,kweli,umaga","kweli,nanga,kujenga,umaga","nanga,kujenga,umaga,kweli","nanga,kujenga,umaga,kweli",j,f,n,n,n,f,j,j,umaga,kweli,umaga,umaga,284,407,940,1139,1,0.0,1.0,1.0,0,0.0,0.7111111111111111,0.7555555555555555
88,1,wolf,lugha,1,1,1,1,0.25,0.0,1.0,1.0,1.0,9760.0,4773.0,4151.0,2639.0,1477.199999988079,1543.600000023842,2285.800000011921,1565.5,"kaburi,lugha,ndizi,mchuzi","kaburi,lugha,ndizi,mchuzi","lugha,kaburi,ndizi,mchuzi","kaburi,ndizi,mchuzi,lugha",v,v,f,n,v,v,f,n,lugha,lugha,lugha,lugha,176,362,920,1191,1,0.0,1.0,1.0,1,1.0,0.7111111111111111,0.7555555555555555
89,1,woman,pagtabon,0,1,1,1,0.0,1.0,0.75,0.75,0.0,6936.0,5135.0,7352.0,3127.0,1676.9000000357628,1782.0999999642372,1077.5,949.4000000357628,"bandari,pagtabon,bituin,kovuli","bandari,pagtabon,bituin,kovuli","pagtabon,bandari,bituin,kovuli","bandari,pagtabon,bituin,kovuli",v,v,f,v,f,v,f,v,bandari,pagtabon,pagtabon,pagtabon,196,410,1014,1151,1,1,0,0,1,1.0,0.7111111111111111,0.7555555555555555
90,2,apple,kisu,0,1,1,1,0.0,1.0,0.25,0.25,0.0,5656.0,1972.0,2641.0,4122.0,2466.0,2905.0,2724.0,2124.0,"ukame,estante,kisu,edad","ukame,kisu,estante,edad","kisu,ukame,estante,edad","ukame,kisu,estante,edad",j,v,f,v,f,v,f,v,ukame,kisu,kisu,kisu,168,335,944,1073,1,1,0,0,1,1.0,0.45555555555555555,0.5611111111111111
91,2,banana,kazi,1,1,1,1,0.0,1.0,0.75,0.75,0.0,9973.0,2876.0,3587.0,2156.0,3293.0,2010.0,1936.0,2657.0,"kasamok,kazi,hagdan,twai","kasamok,kazi,hagdan,twai","kasamok,kazi,hagdan,twai","kasamok,kazi,hagdan,twai",v,v,v,v,v,v,v,v,kazi,kazi,kazi,kazi,120,533,932,1231,1,1,0,0,1,1.0,0.45555555555555555,0.5611111111111111
92,2,bank,silingan,0,0,1,0,0.25,0.25,0.25,0.25,1.0,3205.0,2249.0,3686.0,3216.0,1946.0,2689.0,2554.0,2530.0,"silingan,kudhibi,tualya,ofisi","kudhibi,tualya,silingan,ofisi","kudhibi,silingan,tualya,ofisi","silingan,kudhibi,tualya,ofisi",f,j,v,f,n,n,v,n,ofisi,ofisi,silingan,ofisi,184,503,1046,1111,0,0.25,-0.25,0.25,0,0.5,0.45555555555555555,0.5611111111111111
93,2,basket,kumba,0,1,1,1,0.0,1.0,0.25,0.25,0.0,11016.0,2744.0,3595.0,3539.0,2878.0,2881.0,4076.0,2310.0,"kumba,kumbuka,utepe,hasira","kumbuka,kumba,utepe,hasira","kumbuka,utepe,kumba,hasira","kumbuka,utepe,kumba,hasira",f,v,j,j,v,v,j,j,kumbuka,kumba,kumba,kumba,226,344,966,1203,1,1,0,0,1,1.0,0.45555555555555555,0.5611111111111111
94,2,bed,mapintas,0,0,0,0,0.0,0.0,0.25,0.25,1.0,4497.0,5163.0,3683.0,3959.0,2912.0,2260.0,2107.0,2598.0,"mapintas,kalipay,haraka,starehe","kalipay,haraka,mapintas,starehe","kalipay,haraka,mapintas,starehe","kalipay,haraka,starehe,mapintas",f,j,j,n,n,n,v,v,starehe,starehe,haraka,haraka,202,542,948,1135,0,0.0,0.0,0.0,0,0.0,0.45555555555555555,0.5611111111111111
95,2,berry,kofia,1,1,1,1,1.0,1.0,1.0,1.0,0.0,4509.0,1854.0,3359.0,1654.0,3044.0,2335.0,2128.0,2771.0,"abogado,nogozi,kinywa,kofia","kofia,abogado,nogozi,kinywa","abogado,kofia,nogozi,kinywa","abogado,nogozi,kinywa,kofia",n,f,v,n,n,f,v,n,kofia,kofia,kofia,kofia,256,461,950,1079,1,1,0,0,1,1.0,0.45555555555555555,0.5611111111111111
96,2,boat,agalon,1,1,1,1,0.75,0.0,0.0,0.25,1.0,5247.0,2598.0,5160.0,3750.0,2834.0,5328.0,2338.0,2650.0,"hamsi,pombe,agalon,kitanda","hamsi,agalon,pombe,kitanda","hamsi,agalon,pombe,kitanda","hamsi,pombe,agalon,kitanda",j,v,v,j,j,v,v,j,agalon,agalon,agalon,agalon,268,353,900,1131,1,0.0,1.0,1.0,1,1.0,0.45555555555555555,0.5611111111111111
97,2,body,tindashan,0,0,1,1,0.25,0.0,0.25,0.25,1.0,3988.0,4633.0,7513.0,3359.0,2718.0,2971.0,1769.0,2949.0,"tindashan,nyundu,jibini,kununa","nyundu,jibini,tindashan,kununa","tindashan,nyundu,jibini,kununa","nyundu,tindashan,jibini,kununa",f,j,f,v,n,n,f,v,kununa,kununa,tindashan,tindashan,136,539,942,1133,0,0.0,0.0,0.0,1,1.0,0.45555555555555555,0.5611111111111111
98,2,bonfire,goti,0,0,1,1,0.0,0.0,0.75,0.75,1.0,11699.0,3721.0,3532.0,1516.0,2765.0,2772.0,1825.0,2199.0,"mwezi,goti,mfuko,kusanya","mwezi,mfuko,kusanya,goti","goti,mwezi,mfuko,kusanya","mwezi,goti,mfuko,kusanya",v,n,f,v,n,j,f,v,kusanya,kusanya,goti,goti,106,434,934,1141,0,0.0,0.0,0.0,1,1.0,0.45555555555555555,0.5611111111111111
99,2,book,mali,0,0,0,0,0.25,0.0,0.0,0.0,1.0,3657.0,3170.0,4656.0,2700.0,2363.0,2516.0,2971.0,2550.0,"kuhesa,picha,mali,mara","kuhesa,mali,picha,mara","kuhesa,picha,mali,mara","kuhesa,mali,picha,mara",j,v,j,v,n,f,n,f,mara,kuhesa,mara,kuhesa,130,437,904,1233,0,0.0,0.0,0.0,0,0.0,0.45555555555555555,0.5611111111111111
100,2,box,adui,1,1,1,1,0.0,0.0,1.0,1.0,1.0,5159.0,10782.0,13572.0,2599.0,3414.0,2524.0,2552.0,2740.0,"kuacha,rafiki,kitande,adui","adui,kuacha,rafiki,kitande","kuacha,adui,rafiki,kitande","kuacha,adui,rafiki,kitande",n,f,v,v,n,f,v,v,adui,adui,adui,adui,220,293,988,1239,1,0.0,1.0,1.0,1,1.0,0.45555555555555555,0.5611111111111111
101,2,bread,dari,1,1,1,1,0.0,0.25,0.75,0.25,1.0,4031.0,2755.0,3867.0,2065.0,2404.0,2232.0,2898.0,2492.0,"kaili,dizeli,bugas,dari","dari,kaili,dizeli,bugas","kaili,dari,dizeli,bugas","kaili,dizeli,bugas,dari",n,f,v,n,n,f,v,n,dari,dari,dari,dari,144,422,1018,1117,1,0.25,0.75,0.75,1,1.0,0.45555555555555555,0.5611111111111111
102,2,bridge,sahani,0,0,0,0,0.0,0.0,0.25,0.25,1.0,2901.0,5767.0,3924.0,2604.0,2916.0,2505.0,2111.0,2537.0,"daima,ngono,panya,sahani","sahani,daima,ngono,panya","daima,sahani,ngono,panya","daima,ngono,panya,sahani",n,f,v,n,v,j,f,f,ngono,ngono,daima,daima,254,431,978,1081,0,0.0,0.0,0.0,0,0.0,0.45555555555555555,0.5611111111111111
103,2,bucket,kiatu,0,1,0,0,0.25,0.0,0.0,0.25,1.0,5901.0,4191.0,2585.0,2819.0,2433.0,4422.0,2515.0,2134.0,"baga,kiatu,ijayo,init","baga,ijayo,kiatu,init","baga,ijayo,init,kiatu","baga,kiatu,ijayo,init",v,j,n,v,f,j,f,f,baga,kiatu,baga,baga,128,458,992,1177,1,0.0,1.0,1.0,0,0.0,0.45555555555555555,0.5611111111111111
104,2,candle,geza,1,0,0,0,0.0,0.0,0.0,0.25,1.0,2109.0,2792.0,4084.0,2872.0,2527.0,2736.0,2132.0,1972.0,"gabi,geza,farasi,kupanda","geza,gabi,farasi,kupanda","geza,gabi,farasi,kupanda","geza,gabi,farasi,kupanda",v,f,f,f,v,j,n,n,geza,farasi,kupanda,kupanda,250,548,1028,1115,0,0.0,0.0,0.0,0,0.0,0.45555555555555555,0.5611111111111111
105,2,cat,paghukom,1,1,1,1,0.75,0.75,0.75,1.0,1.0,5559.0,3734.0,3542.0,3194.0,2828.0,4030.0,2259.0,3974.0,"neyemba,paghukom,baki,akili","neyemba,baki,paghukom,akili","paghukom,neyemba,baki,akili","neyemba,baki,paghukom,akili",v,j,f,j,v,j,f,j,paghukom,paghukom,paghukom,paghukom,224,401,922,1145,1,0.75,0.25,0.25,1,1.0,0.45555555555555555,0.5611111111111111
106,2,cave,kesho,1,0,0,0,0.0,0.0,0.25,0.0,1.0,43840.0,2898.0,2928.0,12477.0,2699.0,3327.0,2239.0,3197.0,"ganti,maisha,nyundo,kesho","ganti,maisha,kesho,nyundo","ganti,maisha,kesho,nyundo","ganti,maisha,nyundo,kesho",n,j,j,n,n,n,v,v,kesho,nyundo,maisha,maisha,146,419,928,1159,0,0.0,0.0,0.0,0,0.0,0.45555555555555555,0.5611111111111111
107,2,ceiling,maua,0,0,0,0,0.0,0.25,0.25,0.25,1.0,2568.0,2767.0,2353.0,1961.0,2274.0,2641.0,9714.0,2926.0,"kugita,kawaida,rayna,maua","kugita,kawaida,maua,rayna","kugita,maua,kawaida,rayna","kugita,kawaida,maua,rayna",n,j,v,j,j,n,n,n,rayna,rayna,rayna,rayna,244,455,1050,1099,0,0.25,-0.25,0.25,0,0.0,0.45555555555555555,0.5611111111111111
108,2,cigar,adhabu,1,1,1,0,0.0,1.0,0.0,0.0,0.0,4062.0,2855.0,2940.0,3822.0,2564.0,2329.0,2539.0,2285.0,"ndugu,kuta,adhabu,mlango","adhabu,ndugu,kuta,mlango","ndugu,kuta,adhabu,mlango","ndugu,kuta,adhabu,mlango",j,f,j,j,j,f,j,n,adhabu,adhabu,adhabu,mlango,274,518,1064,1193,1,1,0,0,0,0.5,0.45555555555555555,0.5611111111111111
109,2,clock,mbwa,0,0,1,1,0.0,0.0,1.0,0.75,1.0,12333.0,5574.0,7109.0,8820.0,2328.0,2653.0,2572.0,3401.0,"kartasi,abang,mbwa,osha","kartasi,abang,mbwa,osha","kartasi,abang,mbwa,osha","kartasi,abang,osha,mbwa",j,j,j,n,v,v,j,n,abang,abang,mbwa,mbwa,152,308,1048,1171,0,0.0,0.0,0.0,1,1.0,0.45555555555555555,0.5611111111111111
110,2,coffin,kioo,0,1,0,0,0.25,1.0,0.25,0.25,0.0,3889.0,2939.0,3144.0,3465.0,4588.0,2958.0,2571.0,2072.0,"barua,kioo,tubag,hulma","barua,tubag,kioo,hulma","barua,kioo,tubag,hulma","barua,tubag,kioo,hulma",v,j,v,j,j,j,j,v,tubag,kioo,tubag,tubag,158,314,1010,1091,1,1,0,0,0,0.0,0.45555555555555555,0.5611111111111111
111,2,column,ufagio,1,1,0,0,0.0,1.0,0.25,0.0,0.0,4053.0,1935.0,2398.0,2860.0,2979.0,2399.0,2109.0,2134.0,"pundok,dila,ufagio,pala","pundok,ufagio,dila,pala","ufagio,pundok,dila,pala","pundok,ufagio,dila,pala",j,v,f,v,j,v,v,f,ufagio,ufagio,pundok,pundok,110,320,1040,1165,1,1,0,0,0,0.0,0.45555555555555555,0.5611111111111111
112,2,cop,mechezo,0,0,1,1,0.0,0.0,1.0,1.0,1.0,2677.0,2871.0,4018.0,2121.0,4088.0,2567.0,2628.0,2334.0,"mechezo,bustani,jikoni,bakus","bustani,jikoni,bakus,mechezo","bustani,jikoni,mechezo,bakus","bustani,jikoni,mechezo,bakus",f,n,j,j,v,f,j,j,bustani,bustani,mechezo,mechezo,174,500,936,1105,0,0.0,0.0,0.0,1,1.0,0.45555555555555555,0.5611111111111111
113,2,cup,matumai,1,1,0,0,0.0,0.0,0.0,0.0,1.0,12057.0,3609.0,6280.0,2056.0,3235.0,2406.0,1991.0,2640.0,"dagat,shimoni,matumai,jeraha","dagat,shimoni,matumai,jeraha","dagat,shimoni,jeraha,matumai","dagat,shimoni,jeraha,matumai",j,j,n,n,j,j,v,f,matumai,matumai,shimoni,dagat,122,299,906,1219,1,0.0,1.0,1.0,0,0.0,0.45555555555555555,0.5611111111111111
114,2,curtain,mchanga,1,1,0,1,0.0,0.0,0.0,0.0,1.0,13942.0,4658.0,2694.0,3868.0,2336.0,2632.0,2377.0,2593.0,"lisud,mchanga,bulwawan,chubani","lisud,bulwawan,chubani,mchanga","lisud,bulwawan,mchanga,chubani","mchanga,lisud,bulwawan,chubani",v,n,j,f,v,n,v,f,mchanga,mchanga,bulwawan,mchanga,264,305,968,1213,1,0.0,1.0,1.0,0,0.5,0.45555555555555555,0.5611111111111111
115,2,dog,bahari,1,1,1,1,1.0,1.0,1.0,0.75,0.0,6157.0,1650.0,3518.0,2748.0,2399.0,2251.0,2190.0,2121.0,"lubi,washia,kalamu,bahari","lubi,washia,bahari,kalamu","lubi,bahari,washia,kalamu","bahari,lubi,washia,kalamu",n,j,v,f,n,j,v,f,bahari,bahari,bahari,bahari,218,509,1002,1217,1,1,0,0,1,1.0,0.45555555555555555,0.5611111111111111
116,2,donkey,elfu,1,1,1,1,0.0,0.75,1.0,1.0,1.0,3347.0,5752.0,3968.0,2715.0,2168.0,2552.0,2603.0,2052.0,"bloke,lalake,rombus,elfu","bloke,lalake,rombus,elfu","bloke,elfu,lalake,rombus","bloke,lalake,elfu,rombus",n,n,v,j,n,n,v,j,elfu,elfu,elfu,elfu,186,428,902,1189,1,0.75,0.25,0.25,1,1.0,0.45555555555555555,0.5611111111111111
117,2,door,surali,1,0,0,1,0.0,0.0,0.0,0.25,1.0,14632.0,3911.0,12828.0,5795.0,2554.0,2581.0,1724.0,2535.0,"tena,soko,nyota,surali","tena,soko,nyota,surali","surali,tena,soko,nyota","tena,soko,nyota,surali",n,n,f,n,n,v,v,n,surali,soko,tena,surali,260,380,894,1199,0,0.0,0.0,0.0,0,0.5,0.45555555555555555,0.5611111111111111
118,2,eel,msumari,0,0,1,1,0.25,0.25,1.0,0.75,1.0,2702.0,2486.0,12495.0,3890.0,2338.0,4448.0,2225.0,2649.0,"msumari,ishara,kunywa,kabuang","ishara,msumari,kunywa,kabuang","ishara,kunywa,msumari,kabuang","ishara,msumari,kunywa,kabuang",f,v,j,v,v,f,j,v,ishara,ishara,msumari,msumari,172,329,1004,1149,0,0.25,-0.25,0.25,1,1.0,0.45555555555555555,0.5611111111111111
119,2,elephant,kito,0,0,0,0,0.0,0.0,0.25,0.25,1.0,4737.0,2592.0,3362.0,2948.0,3268.0,2532.0,2518.0,2149.0,"kito,petye,pagduol,suka","petye,pagduol,suka,kito","petye,pagduol,kito,suka","petye,pagduol,kito,suka",f,n,j,j,v,v,v,v,petye,pagduol,pagduol,pagduol,126,416,1034,1205,0,0.0,0.0,0.0,0,0.0,0.45555555555555555,0.5611111111111111
120,2,finger,moyo,1,1,1,1,1.0,1.0,1.0,1.0,1.0,2963.0,2643.0,3580.0,2102.0,3038.0,2216.0,3934.0,2481.0,"simu,sufuria,moyo,lima","simu,moyo,sufuria,lima","simu,sufuria,lima,moyo","simu,sufuria,moyo,lima",j,v,n,j,j,v,n,j,moyo,moyo,moyo,moyo,212,350,964,1179,1,1.0,0.0,0.0,1,1.0,0.45555555555555555,0.5611111111111111
121,2,fish,buli,0,0,0,0,0.25,0.25,0.25,0.25,1.0,5373.0,3779.0,6997.0,31390.0,2332.0,2160.0,2323.0,3111.0,"bala,buli,baho,imani","bala,baho,imani,buli","bala,buli,baho,imani","buli,bala,baho,imani",v,n,v,f,j,v,j,j,baho,baho,baho,baho,262,440,924,1143,0,0.25,-0.25,0.25,0,0.0,0.45555555555555555,0.5611111111111111
122,2,flag,trekta,1,1,1,1,0.75,1.0,1.0,1.0,1.0,6817.0,3799.0,2187.0,3847.0,2272.0,2394.0,2266.0,2477.0,"ndege,mkate,kawa,trekta","ndege,trekta,mkate,kawa","ndege,trekta,mkate,kawa","ndege,mkate,kawa,trekta",n,v,v,n,n,v,v,n,trekta,trekta,trekta,trekta,266,374,954,1215,1,1.0,0.0,0.0,1,1.0,0.45555555555555555,0.5611111111111111
123,2,flower,bega,1,1,1,1,0.0,0.25,0.0,0.25,1.0,4251.0,4518.0,2962.0,3077.0,2885.0,2050.0,2471.0,2742.0,"bega,tamasha,lobo,usiku","bega,tamasha,lobo,usiku","tamasha,bega,lobo,usiku","tamasha,lobo,bega,usiku",f,f,v,j,f,f,v,j,bega,bega,bega,bega,108,515,1026,1225,1,0.25,0.75,0.75,1,1.0,0.45555555555555555,0.5611111111111111
124,2,fork,mgonjwa,1,1,0,1,0.75,0.0,0.0,0.25,1.0,2680.0,4627.0,2392.0,2548.0,3881.0,1738.0,4576.0,2879.0,"baboy,paghago,gorisi,mgonjwa","baboy,paghago,gorisi,mgonjwa","baboy,paghago,gorisi,mgonjwa","mgonjwa,baboy,paghago,gorisi",n,n,n,f,n,n,v,f,mgonjwa,mgonjwa,paghago,mgonjwa,116,524,986,1187,1,0.0,1.0,1.0,0,0.5,0.45555555555555555,0.5611111111111111
125,2,gift,pagtawag,0,0,0,1,0.0,0.0,0.0,0.25,1.0,2448.0,3485.0,12415.0,3802.0,2703.0,3770.0,2461.0,2461.0,"baba,nyange,baso,pagtawag","baba,pagtawag,nyange,baso","baba,nyange,pagtawag,baso","baba,nyange,baso,pagtawag",n,v,j,n,v,n,v,n,nyange,baso,nyange,pagtawag,230,332,990,1107,0,0.0,0.0,0.0,0,0.5,0.45555555555555555,0.5611111111111111
126,2,giraffe,mahitabo,1,0,1,1,0.0,0.0,0.25,0.0,1.0,2576.0,5064.0,3388.0,5768.0,2394.0,2735.0,2091.0,2240.0,"daraja,mahitabo,jumatu,hangyo","mahitabo,daraja,jumatu,hangyo","daraja,jumatu,hangyo,mahitabo","mahitabo,daraja,jumatu,hangyo",v,f,n,f,v,j,n,f,mahitabo,jumatu,mahitabo,mahitabo,216,413,1024,1095,0,0.0,0.0,0.0,1,1.0,0.45555555555555555,0.5611111111111111
127,2,hammer,napakyas,0,0,0,1,0.0,0.25,0.0,0.0,1.0,9032.0,2487.0,4085.0,3590.0,2467.0,3949.0,2769.0,2122.0,"mekno,kitovu,napakyas,layag","mekno,napakyas,kitovu,layag","mekno,kitovu,layag,napakyas","mekno,kitovu,layag,napakyas",j,v,n,n,f,n,f,n,mekno,layag,mekno,napakyas,240,521,1062,1247,0,0.25,-0.25,0.25,0,0.5,0.45555555555555555,0.5611111111111111
128,2,hill,matumbo,0,1,0,1,0.0,0.25,0.25,0.0,1.0,5025.0,3866.0,4223.0,2792.0,2452.0,3124.0,3019.0,2312.0,"kushoto,kukimba,sweta,matumbo","kushoto,kukimba,sweta,matumbo","kushoto,kukimba,sweta,matumbo","matumbo,kushoto,kukimba,sweta",n,n,n,f,v,n,j,f,kukimba,matumbo,sweta,matumbo,192,356,980,1123,1,0.25,0.75,0.75,0,0.5,0.45555555555555555,0.5611111111111111
129,2,human,tinapay,0,0,0,0,0.0,0.0,0.25,0.25,1.0,28472.0,3839.0,4694.0,4318.0,2475.0,3349.0,1858.0,3196.0,"bado,kikapu,tinapay,punguza","tinapay,bado,kikapu,punguza","bado,kikapu,punguza,tinapay","bado,tinapay,kikapu,punguza",j,f,n,v,n,n,j,n,punguza,punguza,punguza,punguza,150,395,912,1183,0,0.0,0.0,0.0,0,0.0,0.45555555555555555,0.5611111111111111
130,2,key,chombo,1,1,1,1,1.0,1.0,1.0,1.0,1.0,2515.0,2339.0,1863.0,2485.0,2984.0,2532.0,3325.0,2234.0,"chombo,miaka,goma,ahos","miaka,chombo,goma,ahos","miaka,chombo,goma,ahos","chombo,miaka,goma,ahos",f,v,v,f,f,v,v,f,chombo,chombo,chombo,chombo,204,485,972,1197,1,1.0,0.0,0.0,1,1.0,0.45555555555555555,0.5611111111111111
131,2,knee,duka,0,0,1,0,0.75,0.75,0.75,0.25,1.0,3406.0,7252.0,6558.0,6331.0,2428.0,2730.0,2037.0,2387.0,"duka,mvuke,kubale,bili","mvuke,kubale,bili,duka","mvuke,kubale,duka,bili","duka,mvuke,kubale,bili",f,n,j,f,n,j,j,n,bili,bili,duka,bili,242,341,1012,1075,0,0.75,-0.75,0.75,0,0.5,0.45555555555555555,0.5611111111111111
132,2,ladder,pangalan,0,1,1,0,0.0,0.0,0.0,0.25,1.0,2551.0,3915.0,20912.0,6127.0,2008.0,2358.0,2382.0,2268.0,"mashua,mwanga,kamba,pangalan","mashua,pangalan,mwanga,kamba","mashua,pangalan,mwanga,kamba","pangalan,mashua,mwanga,kamba",n,v,v,f,v,v,v,j,mwanga,pangalan,pangalan,mwanga,148,530,892,1085,1,0.0,1.0,1.0,0,0.5,0.45555555555555555,0.5611111111111111
133,2,lamp,afya,0,1,0,1,0.25,0.0,0.25,0.0,1.0,6889.0,8294.0,2783.0,5273.0,3221.0,2843.0,2879.0,2743.0,"daub,bilaska,mbolea,afya","daub,bilaska,mbolea,afya","afya,daub,bilaska,mbolea","daub,bilaska,mbolea,afya",n,n,f,n,v,n,j,n,bilaska,afya,bilaska,afya,272,389,930,1157,1,0.0,1.0,1.0,0,0.5,0.45555555555555555,0.5611111111111111
134,2,letter,kifua,1,1,0,0,0.25,1.0,0.25,0.25,0.0,13093.0,1422.0,4393.0,3357.0,2542.0,2389.0,2777.0,2156.0,"filimbi,chuma,kifua,uhuru","filimbi,chuma,kifua,uhuru","filimbi,chuma,uhuru,kifua","filimbi,chuma,uhuru,kifua",j,j,n,n,j,j,v,v,kifua,kifua,chuma,chuma,170,506,982,1113,1,1,0,0,0,0.0,0.45555555555555555,0.5611111111111111
135,2,list,wingu,1,0,1,1,0.75,0.25,1.0,1.0,1.0,3197.0,2649.0,13031.0,9524.0,2612.0,2192.0,2210.0,2591.0,"alizeti,kuzama,kaso,wingu","alizeti,kuzama,kaso,wingu","alizeti,kuzama,kaso,wingu","alizeti,kuzama,wingu,kaso",n,n,n,j,n,j,n,j,wingu,kaso,wingu,wingu,276,554,1044,1069,0,0.25,-0.25,0.25,1,1.0,0.45555555555555555,0.5611111111111111
136,2,magazine,kiti,0,1,1,1,0.0,0.0,1.0,1.0,1.0,2359.0,4270.0,2195.0,1677.0,2392.0,2842.0,2098.0,2483.0,"gundi,mchawi,kiti,bahandi","gundi,mchawi,kiti,bahandi","gundi,kiti,mchawi,bahandi","gundi,kiti,mchawi,bahandi",j,j,v,v,v,j,v,v,mchawi,kiti,kiti,kiti,142,317,1054,1153,1,0.0,1.0,1.0,1,1.0,0.45555555555555555,0.5611111111111111
137,2,marker,maji,0,0,1,1,0.0,0.0,0.0,0.0,1.0,4753.0,2939.0,5940.0,2736.0,2622.0,2364.0,2036.0,2560.0,"mapafu,salita,atay,maji","mapafu,salita,maji,atay","maji,mapafu,salita,atay","mapafu,salita,maji,atay",n,j,f,j,v,v,f,j,salita,salita,maji,maji,248,491,938,1101,0,0.0,0.0,0.0,1,1.0,0.45555555555555555,0.5611111111111111
138,2,mirror,sulagma,0,0,1,1,0.0,0.0,1.0,1.0,1.0,9082.0,5098.0,15611.0,7220.0,2513.0,2535.0,2588.0,2830.0,"rangi,kanding,furaha,sulagma","sulagma,rangi,kanding,furaha","rangi,kanding,furaha,sulagma","rangi,kanding,sulagma,furaha",n,f,n,j,j,j,n,j,furaha,kanding,sulagma,sulagma,132,311,952,1097,0,0.0,0.0,0.0,1,1.0,0.45555555555555555,0.5611111111111111
139,2,mosquito,martilyo,1,1,1,1,0.75,0.75,1.0,1.0,1.0,4597.0,4291.0,3098.0,1674.0,2539.0,2246.0,2463.0,2984.0,"isda,taras,gutom,martilyo","martilyo,isda,taras,gutom","isda,martilyo,taras,gutom","martilyo,isda,taras,gutom",n,f,v,f,n,f,v,f,martilyo,martilyo,martilyo,martilyo,118,467,1038,1241,1,0.75,0.25,0.25,1,1.0,0.45555555555555555,0.5611111111111111
140,2,mother,babaye,1,1,1,1,1.0,1.0,1.0,1.0,0.0,4471.0,1530.0,2357.0,1756.0,2769.0,2572.0,2292.0,2234.0,"kahawa,mbuzi,jokofu,babaye","kahawa,babaye,mbuzi,jokofu","kahawa,babaye,mbuzi,jokofu","kahawa,mbuzi,jokofu,babaye",n,v,v,n,n,v,v,n,babaye,babaye,babaye,babaye,200,464,1030,1181,1,1,0,0,1,1.0,0.45555555555555555,0.5611111111111111
141,2,music,baiski,0,0,1,1,0.0,0.25,0.75,0.75,1.0,3033.0,3311.0,4428.0,4715.0,3391.0,2273.0,2212.0,2528.0,"baiski,mraba,mageho,tumbo","mraba,baiski,mageho,tumbo","baiski,mraba,mageho,tumbo","mraba,baiski,mageho,tumbo",f,v,f,v,j,n,f,v,mageho,tumbo,baiski,baiski,112,482,1000,1209,0,0.25,-0.25,0.25,1,1.0,0.45555555555555555,0.5611111111111111
142,2,nose,sehemu,0,1,0,0,0.0,1.0,0.0,0.25,0.0,5581.0,1489.0,4201.0,1988.0,2578.0,2177.0,3013.0,2539.0,"gubat,kopa,sehemu,kidole","gubat,kopa,sehemu,kidole","gubat,kopa,sehemu,kidole","gubat,kopa,kidole,sehemu",j,j,j,n,v,j,v,v,kopa,sehemu,kopa,kopa,180,452,998,1129,1,1,0,0,0,0.0,0.45555555555555555,0.5611111111111111
143,2,notebook,kemia,0,0,1,1,0.0,0.0,0.0,0.25,1.0,3478.0,4337.0,4466.0,2493.0,2735.0,2473.0,2904.0,2126.0,"msitu,kemia,kila,mdudu","msitu,kila,mdudu,kemia","msitu,kila,mdudu,kemia","msitu,kila,kemia,mdudu",v,n,n,j,n,j,n,j,mdudu,mdudu,kemia,kemia,160,371,960,1109,0,0.0,0.0,0.0,1,1.0,0.45555555555555555,0.5611111111111111
144,2,number,mundamo,1,1,1,1,0.25,0.25,1.0,1.0,1.0,3720.0,4209.0,2600.0,2999.0,2732.0,2493.0,2362.0,2399.0,"shule,kengele,choori,mundamo","shule,kengele,mundamo,choori","shule,kengele,mundamo,choori","shule,kengele,mundamo,choori",n,j,j,j,n,j,j,j,mundamo,mundamo,mundamo,mundamo,166,323,1006,1071,1,0.25,0.75,0.75,1,1.0,0.45555555555555555,0.5611111111111111
145,2,office,leso,0,1,1,1,0.0,0.25,0.25,0.0,1.0,4826.0,3238.0,3276.0,5197.0,2931.0,2349.0,2178.0,3225.0,"hazini,yatima,kuna,leso","hazini,leso,yatima,kuna","leso,hazini,yatima,kuna","leso,hazini,yatima,kuna",n,v,f,f,v,v,f,f,yatima,leso,leso,leso,134,494,1056,1207,1,0.25,0.75,0.75,1,1.0,0.45555555555555555,0.5611111111111111
146,2,olive,jiwe,0,1,1,1,0.0,0.25,0.75,0.25,1.0,6306.0,3179.0,3668.0,3512.0,2939.0,3259.0,2048.0,3082.0,"bata,siagi,welder,jiwe","bata,siagi,welder,jiwe","bata,siagi,welder,jiwe","jiwe,bata,siagi,welder",n,n,n,f,f,n,n,f,bata,jiwe,jiwe,jiwe,140,557,974,1195,1,0.25,0.75,0.75,1,1.0,0.45555555555555555,0.5611111111111111
147,2,page,wimbo,0,1,1,0,0.0,0.0,0.25,0.0,1.0,3023.0,3845.0,5318.0,3476.0,2583.0,2480.0,4447.0,2744.0,"wimbo,wakala,ishiri,skina","wakala,wimbo,ishiri,skina","wakala,ishiri,wimbo,skina","wakala,ishiri,skina,wimbo",f,v,j,n,v,v,j,f,wakala,wimbo,wimbo,wakala,206,449,888,1167,1,0.0,1.0,1.0,0,0.5,0.45555555555555555,0.5611111111111111
148,2,pants,haki,1,1,1,1,1.0,0.75,1.0,1.0,1.0,5771.0,3192.0,4711.0,3023.0,2797.0,2438.0,3010.0,2329.0,"pintal,chuki,haki,hari","pintal,chuki,hari,haki","pintal,haki,chuki,hari","pintal,chuki,hari,haki",j,n,v,n,j,n,v,n,haki,haki,haki,haki,208,296,1042,1087,1,0.75,0.25,0.25,1,1.0,0.45555555555555555,0.5611111111111111
149,2,park,bunifu,0,0,0,0,0.0,0.25,0.25,0.0,1.0,2871.0,4051.0,3134.0,4162.0,2512.0,2535.0,2747.0,2511.0,"tambok,pwani,bunifu,ihalas","bunifu,tambok,pwani,ihalas","tambok,bunifu,pwani,ihalas","tambok,pwani,ihalas,bunifu",j,f,v,n,f,j,f,f,tambok,pwani,tambok,tambok,164,347,916,1093,0,0.25,-0.25,0.25,0,0.0,0.45555555555555555,0.5611111111111111
150,2,perfume,katuyoan,0,0,0,0,0.25,0.25,0.0,0.25,1.0,4050.0,3588.0,4133.0,4707.0,2339.0,3958.0,2119.0,2294.0,"bino,katuyoan,sungura,ndogo","bino,sungura,katuyoan,ndogo","bino,sungura,katuyoan,ndogo","bino,sungura,ndogo,katuyoan",v,j,j,n,j,v,f,v,sungura,sungura,bino,sungura,138,470,970,1083,0,0.25,-0.25,0.25,0,0.0,0.45555555555555555,0.5611111111111111
151,2,picture,kubwa,0,1,1,1,0.0,1.0,0.0,0.0,0.0,4892.0,3055.0,14475.0,2323.0,2407.0,2347.0,3581.0,2677.0,"silya,kubwa,chaki,asin","silya,kubwa,chaki,asin","kubwa,silya,chaki,asin","silya,chaki,asin,kubwa",v,v,f,n,n,v,f,n,asin,kubwa,kubwa,kubwa,280,560,898,1227,1,1,0,0,1,1.0,0.45555555555555555,0.5611111111111111
152,2,poster,madungog,1,0,0,1,0.0,0.25,0.25,0.0,1.0,4118.0,3415.0,3786.0,3778.0,2287.0,2678.0,3083.0,2153.0,"madungog,nchi,fedha,kasuko","nchi,fedha,madungog,kasuko","madungog,nchi,fedha,kasuko","nchi,madungog,fedha,kasuko",f,j,f,v,f,n,j,v,madungog,kasuko,fedha,madungog,188,479,918,1237,0,0.25,-0.25,0.25,0,0.5,0.45555555555555555,0.5611111111111111
153,2,pudding,aibu,0,1,1,1,0.0,0.0,0.0,0.25,1.0,2485.0,3157.0,3525.0,2002.0,3073.0,2638.0,2037.0,2422.0,"abug,aibu,mpishi,iring","abug,mpishi,aibu,iring","abug,aibu,mpishi,iring","abug,aibu,mpishi,iring",v,j,v,v,n,j,v,v,iring,aibu,aibu,aibu,234,536,910,1155,1,0.0,1.0,1.0,1,1.0,0.45555555555555555,0.5611111111111111
154,2,puppet,mazishi,0,1,0,0,0.0,1.0,0.0,0.0,0.0,4945.0,1356.0,3256.0,3136.0,2619.0,3428.0,2620.0,2289.0,"napulo,mazishi,lamok,godoro","napulo,mazishi,lamok,godoro","napulo,mazishi,lamok,godoro","napulo,lamok,mazishi,godoro",v,v,v,j,j,v,f,f,lamok,mazishi,napulo,napulo,190,476,996,1229,1,1,0,0,0,0.0,0.45555555555555555,0.5611111111111111
155,2,rose,paghalad,0,0,1,0,0.25,0.25,0.75,0.75,1.0,2482.0,3877.0,13364.0,2546.0,4851.0,2212.0,2432.0,2220.0,"singizi,mwanake,paghalad,amani","singizi,paghalad,mwanake,amani","singizi,paghalad,mwanake,amani","singizi,mwanake,amani,paghalad",j,v,v,n,v,n,v,j,mwanake,amani,paghalad,amani,270,326,976,1121,0,0.25,-0.25,0.25,0,0.5,0.45555555555555555,0.5611111111111111
156,2,salmon,sensilyo,0,1,1,1,0.0,0.0,1.0,1.0,1.0,2828.0,4302.0,2873.0,2014.0,2349.0,2751.0,2192.0,3199.0,"sensilyo,mzungu,seri,baharia","mzungu,seri,baharia,sensilyo","mzungu,sensilyo,seri,baharia","mzungu,sensilyo,seri,baharia",f,n,v,v,j,n,v,v,seri,sensilyo,sensilyo,sensilyo,156,383,946,1089,1,0.0,1.0,1.0,1,1.0,0.45555555555555555,0.5611111111111111
157,2,scissors,tanuri,0,1,0,0,0.0,0.0,0.25,0.0,1.0,3220.0,3288.0,10820.0,1806.0,2284.0,2884.0,2671.0,2432.0,"tanuri,duga,mtawa,suga","duga,tanuri,mtawa,suga","duga,tanuri,mtawa,suga","duga,mtawa,tanuri,suga",f,v,v,j,j,v,n,n,mtawa,tanuri,suga,suga,222,446,1022,1245,1,0.0,1.0,1.0,0,0.0,0.45555555555555555,0.5611111111111111
158,2,sheet,bililhon,0,0,0,0,0.25,0.25,0.0,0.0,1.0,2279.0,2918.0,3689.0,2152.0,2303.0,3066.0,2937.0,2228.0,"juuya,watu,kamantis,bililhon","juuya,watu,bililhon,kamantis","juuya,watu,kamantis,bililhon","bililhon,juuya,watu,kamantis",n,j,n,f,f,f,v,v,juuya,juuya,watu,juuya,278,473,890,1221,0,0.25,-0.25,0.25,0,0.0,0.45555555555555555,0.5611111111111111
159,2,shelf,pamahaw,0,1,0,1,0.0,1.0,0.0,0.0,0.0,3805.0,4701.0,1963.0,3175.0,2434.0,3080.0,3354.0,2158.0,"bungtod,kadaot,awit,pamahaw","bungtod,kadaot,pamahaw,awit","pamahaw,bungtod,kadaot,awit","bungtod,kadaot,awit,pamahaw",n,j,f,n,f,j,n,n,bungtod,pamahaw,awit,pamahaw,154,392,1036,1243,1,1,0,0,0,0.5,0.45555555555555555,0.5611111111111111
160,2,shoe,uyoga,0,0,0,0,0.0,0.0,0.25,0.0,1.0,4954.0,3998.0,4891.0,3876.0,3818.0,2546.0,2590.0,2730.0,"nyeusi,hatua,uyoga,kama","uyoga,nyeusi,hatua,kama","nyeusi,hatua,uyoga,kama","nyeusi,uyoga,hatua,kama",j,f,j,v,n,n,f,f,kama,kama,nyeusi,nyeusi,214,497,1066,1169,0,0.0,0.0,0.0,0,0.0,0.45555555555555555,0.5611111111111111
161,2,shop,samaki,0,0,0,0,0.0,0.25,0.0,0.0,1.0,5650.0,2472.0,5038.0,3434.0,2804.0,2727.0,2218.0,2396.0,"samaki,nopya,kerida,ndezu","samaki,nopya,kerida,ndezu","samaki,nopya,kerida,ndezu","nopya,kerida,samaki,ndezu",f,f,f,j,n,v,v,f,ndezu,nopya,nopya,nopya,124,512,994,1127,0,0.25,-0.25,0.25,0,0.0,0.45555555555555555,0.5611111111111111
162,2,shoulder,mkuu,0,0,0,0,0.0,0.0,0.25,0.25,1.0,3647.0,3066.0,15286.0,2355.0,2241.0,2980.0,2736.0,2188.0,"mkuu,kelele,ndaniya,guruwe","mkuu,kelele,ndaniya,guruwe","kelele,mkuu,ndaniya,guruwe","mkuu,kelele,ndaniya,guruwe",f,f,v,f,v,v,f,v,kelele,kelele,kelele,kelele,162,386,956,1161,0,0.0,0.0,0.0,0,0.0,0.45555555555555555,0.5611111111111111
163,2,snake,pagtukod,1,1,1,1,0.0,0.0,0.25,0.75,1.0,4403.0,3170.0,30666.0,11687.0,2709.0,2926.0,2261.0,2693.0,"jansa,karon,mvringo,pagtukod","jansa,karon,mvringo,pagtukod","pagtukod,jansa,karon,mvringo","jansa,karon,pagtukod,mvringo",n,n,f,j,n,n,f,j,pagtukod,pagtukod,pagtukod,pagtukod,228,365,962,1119,1,0.0,1.0,1.0,1,1.0,0.45555555555555555,0.5611111111111111
164,2,sock,mamba,1,0,0,1,0.0,0.0,0.25,0.25,1.0,7955.0,4360.0,5349.0,3245.0,2139.0,2640.0,2395.0,2186.0,"mamba,ndoora,kimysa,mtirka","ndoora,kimysa,mamba,mtirka","mamba,ndoora,kimysa,mtirka","ndoora,mamba,kimysa,mtirka",f,j,f,v,f,v,j,v,mamba,kimysa,kimysa,mamba,182,488,984,1103,0,0.0,0.0,0.0,0,0.5,0.45555555555555555,0.5611111111111111
165,2,spider,kamwe,1,0,0,1,0.0,0.0,0.0,1.0,1.0,3118.0,4517.0,3973.0,2374.0,2481.0,3268.0,5437.0,4117.0,"bunyag,kamwe,mkboa,atop","bunyag,kamwe,mkboa,atop","kamwe,bunyag,mkboa,atop","bunyag,mkboa,kamwe,atop",v,v,f,j,v,f,j,j,kamwe,bunyag,mkboa,kamwe,114,404,896,1147,0,0.0,0.0,0.0,0,0.5,0.45555555555555555,0.5611111111111111
166,2,spoon,pagsulod,0,1,0,1,0.0,0.25,0.25,0.25,1.0,6467.0,6004.0,4265.0,3761.0,2533.0,2429.0,4815.0,2380.0,"pagsulod,betri,nzuri,ngazi","betri,nzuri,pagsulod,ngazi","betri,nzuri,pagsulod,ngazi","pagsulod,betri,nzuri,ngazi",f,j,j,f,v,j,v,f,betri,pagsulod,nzuri,pagsulod,246,443,1060,1223,1,0.25,0.75,0.75,0,0.5,0.45555555555555555,0.5611111111111111
167,2,squirrel,hofu,0,0,0,0,0.0,0.0,0.25,0.0,1.0,4288.0,2560.0,3331.0,3337.0,4097.0,3023.0,1993.0,2943.0,"mahugaw,ukweli,kichwa,hofu","hofu,mahugaw,ukweli,kichwa","mahugaw,hofu,ukweli,kichwa","mahugaw,ukweli,hofu,kichwa",n,f,v,j,f,v,n,f,mahugaw,mahugaw,kichwa,mahugaw,178,377,914,1137,0,0.0,0.0,0.0,0,0.0,0.45555555555555555,0.5611111111111111
168,2,stone,wingi,0,0,0,0,0.0,0.25,0.0,0.0,1.0,2921.0,3721.0,1789.0,2526.0,2443.0,2352.0,2498.0,2501.0,"ulimwengu,mkasi,wingi,asili","ulimwengu,wingi,mkasi,asili","ulimwengu,mkasi,wingi,asili","ulimwengu,mkasi,asili,wingi",j,v,j,n,n,j,v,v,asili,mkasi,mkasi,mkasi,238,425,1016,1163,0,0.25,-0.25,0.25,0,0.0,0.45555555555555555,0.5611111111111111
169,2,sun,basi,1,1,1,1,0.0,1.0,0.75,0.0,0.0,2385.0,2367.0,3852.0,3010.0,3007.0,3656.0,2142.0,3192.0,"bendi,luha,uongo,basi","bendi,luha,uongo,basi","bendi,basi,luha,uongo","basi,bendi,luha,uongo",n,n,v,f,n,n,v,f,basi,basi,basi,basi,210,527,908,1185,1,1,0,0,1,1.0,0.45555555555555555,0.5611111111111111
170,2,tissue,ugomvi,0,0,0,0,0.0,0.0,0.0,0.0,1.0,4001.0,3444.0,4819.0,3310.0,2392.0,3654.0,3406.0,2666.0,"ugomvi,lamigas,kisiwa,katika","lamigas,kisiwa,katika,ugomvi","ugomvi,lamigas,kisiwa,katika","lamigas,kisiwa,ugomvi,katika",f,n,f,j,v,v,j,v,lamigas,kisiwa,kisiwa,kisiwa,252,545,958,1211,0,0.0,0.0,0.0,0,0.0,0.45555555555555555,0.5611111111111111
171,2,tomato,mvua,0,1,0,0,0.0,1.0,0.25,0.25,0.0,3064.0,4710.0,3901.0,2329.0,2973.0,2214.0,2524.0,2130.0,"mvua,chupi,chupa,takatak","chupi,chupa,takatak,mvua","chupi,mvua,chupa,takatak","chupi,chupa,takatak,mvua",f,n,v,n,n,n,n,j,takatak,mvua,takatak,takatak,236,551,1008,1175,1,1,0,0,0,0.0,0.45555555555555555,0.5611111111111111
172,2,tooth,kabalaka,0,0,0,0,0.0,0.0,0.25,0.0,1.0,4331.0,2566.0,6212.0,4397.0,3402.0,3351.0,3195.0,2059.0,"kabalaka,kijiko,uadui,pahiyum","kabalaka,kijiko,uadui,pahiyum","kijiko,uadui,pahiyum,kabalaka","kijiko,kabalaka,uadui,pahiyum",f,f,n,v,j,v,v,f,uadui,kijiko,uadui,kijiko,194,368,926,1077,0,0.0,0.0,0.0,0,0.0,0.45555555555555555,0.5611111111111111
173,2,towel,pagpalit,0,0,0,0,0.0,0.0,0.0,0.0,1.0,2201.0,3278.0,2546.0,3046.0,2516.0,2814.0,2548.0,2661.0,"pagpalit,tembo,funzi,pito","tembo,funzi,pito,pagpalit","pagpalit,tembo,funzi,pito","tembo,funzi,pito,pagpalit",f,n,f,n,v,f,v,f,tembo,tembo,tembo,tembo,282,398,1032,1173,0,0.0,0.0,0.0,0,0.0,0.45555555555555555,0.5611111111111111
174,2,train,sayari,0,1,1,1,0.25,0.25,0.75,0.75,1.0,7323.0,5241.0,4212.0,3989.0,3033.0,2383.0,2637.0,2103.0,"itik,sayari,dakika,mungu","sayari,itik,dakika,mungu","itik,sayari,dakika,mungu","itik,dakika,sayari,mungu",v,f,v,j,n,f,v,j,mungu,sayari,sayari,sayari,232,359,1052,1125,1,0.25,0.75,0.75,1,1.0,0.45555555555555555,0.5611111111111111
175,2,triangle,kasadpan,1,0,1,1,0.0,0.0,0.75,0.25,1.0,3391.0,4921.0,12995.0,4502.0,2357.0,2863.0,2435.0,2425.0,"kihozi,kasadpan,bentaha,liog","kihozi,bentaha,kasadpan,liog","kihozi,bentaha,kasadpan,liog","kihozi,bentaha,kasadpan,liog",v,j,j,j,v,v,j,j,kasadpan,bentaha,kasadpan,kasadpan,258,302,1020,1235,0,0.0,0.0,0.0,1,1.0,0.45555555555555555,0.5611111111111111
176,2,wheel,bafuni,0,1,0,0,0.25,1.0,0.0,0.0,0.0,5333.0,1925.0,2748.0,4260.0,2415.0,2793.0,2505.0,2801.0,"punda,tawo,bafuni,baadaye","punda,tawo,bafuni,baadaye","punda,tawo,bafuni,baadaye","punda,bafuni,tawo,baadaye",j,j,j,v,n,j,v,f,baadaye,bafuni,tawo,punda,198,338,1058,1201,1,1,0,0,0,0.0,0.45555555555555555,0.5611111111111111
177,2,window,kweli,1,1,1,1,0.75,1.0,1.0,1.0,1.0,2172.0,4637.0,2586.0,2262.0,2811.0,2474.0,2092.0,3006.0,"nanga,kweli,kujenga,umaga","nanga,kujenga,umaga,kweli","kweli,nanga,kujenga,umaga","nanga,kujenga,kweli,umaga",v,n,f,j,v,n,f,j,kweli,kweli,kweli,kweli,284,407,940,1139,1,1.0,0.0,0.0,1,1.0,0.45555555555555555,0.5611111111111111
178,2,wolf,lugha,0,1,1,0,0.0,0.0,0.25,0.0,1.0,4416.0,4408.0,5980.0,3637.0,2566.0,2322.0,3999.0,2466.0,"kaburi,ndizi,lugha,mchuzi","kaburi,lugha,ndizi,mchuzi","lugha,kaburi,ndizi,mchuzi","kaburi,ndizi,lugha,mchuzi",j,v,f,j,f,v,f,v,kaburi,lugha,lugha,ndizi,176,362,920,1191,1,0.0,1.0,1.0,0,0.5,0.45555555555555555,0.5611111111111111
179,2,woman,pagtabon,0,1,1,1,0.25,1.0,0.25,0.25,0.0,13403.0,4065.0,4352.0,4712.0,2505.0,2266.0,2553.0,2292.0,"bandari,bituin,pagtabon,kovuli","bandari,bituin,pagtabon,kovuli","pagtabon,bandari,bituin,kovuli","bandari,pagtabon,bituin,kovuli",j,j,f,v,f,j,f,v,bandari,pagtabon,pagtabon,pagtabon,196,410,1014,1151,1,1,0,0,1,1.0,0.45555555555555555,0.5611111111111111
180,3,apple,kisu,0,1,1,0,0.25,1.0,0.5,0.5,0.0,2329.0,1547.0,136.0,258.0,1074.8000000002794,1745.1999999997206,3478.2000000001863,2051.4000000003725,"ukame,kisu,estante,edad","ukame,estante,kisu,edad","ukame,kisu,estante,edad","ukame,kisu,estante,edad",v,j,v,v,j,j,v,j,estante,kisu,kisu,estante,168,335,944,1073,1,1,0,0,0,0.5,0.08888888888888889,0.2611111111111111
181,3,banana,kazi,1,1,1,1,0.5,1.0,0.0,0.75,0.0,2505.0,1156.0,224.0,1305798.0,1421.6000000000931,1059.1000000000931,1377.300000000745,1935.5,"kasamok,kazi,hagdan,twai","kasamok,hagdan,kazi,twai","kazi,kasamok,hagdan,twai","kasamok,kazi,hagdan,twai",v,j,f,v,v,j,f,v,kazi,kazi,kazi,kazi,120,533,932,1231,1,1,0,0,1,1.0,0.08888888888888889,0.2611111111111111
182,3,bank,silingan,1,0,0,1,0.5,0.75,0.5,0.25,1.0,1259.0,1192.0,650.0,899.0,1750.0,1830.5,2193.2000000001863,2875.2999999998137,"kudhibi,tualya,silingan,ofisi","kudhibi,silingan,tualya,ofisi","kudhibi,silingan,tualya,ofisi","kudhibi,silingan,tualya,ofisi",j,v,v,v,j,n,n,v,silingan,ofisi,ofisi,silingan,184,503,1046,1111,0,0.75,-0.75,0.75,0,0.5,0.08888888888888889,0.2611111111111111
183,3,basket,kumba,0,1,0,0,0.25,1.0,0.75,0.75,0.0,250.0,1418.0,446.0,85.0,967.1000000000932,1566.0999999996277,1084.5,2855.199999999255,"kumbuka,kumba,utepe,hasira","kumba,kumbuka,utepe,hasira","kumbuka,utepe,kumba,hasira","kumba,kumbuka,utepe,hasira",v,f,j,f,j,f,f,v,utepe,kumba,kumbuka,kumbuka,226,344,966,1203,1,1,0,0,0,0.0,0.08888888888888889,0.2611111111111111
184,3,bed,mapintas,0,1,1,1,0.25,0.75,0.0,0.25,1.0,1895.0,1558.0,19.0,82.0,1575.2000000001865,1529.2000000001865,1569.4000000003723,1067.3999999994412,"mapintas,kalipay,haraka,starehe","kalipay,haraka,starehe,mapintas","mapintas,kalipay,haraka,starehe","mapintas,kalipay,haraka,starehe",f,n,f,f,n,n,f,f,starehe,mapintas,mapintas,mapintas,202,542,948,1135,1,0.75,0.25,0.25,1,1.0,0.08888888888888889,0.2611111111111111
185,3,berry,kofia,0,1,0,0,0.75,1.0,0.25,1.0,0.0,1591.0,1141.0,294.0,85.0,1964.3000000002796,1438.6000000000931,1850.300000000745,1755.5,"abogado,nogozi,kinywa,kofia","abogado,kofia,nogozi,kinywa","abogado,nogozi,kofia,kinywa","abogado,nogozi,kofia,kinywa",n,v,j,j,v,v,f,n,nogozi,kofia,abogado,kinywa,256,461,950,1079,1,1,0,0,0,0.0,0.08888888888888889,0.2611111111111111
186,3,boat,agalon,0,0,0,0,0.25,0.25,0.75,0.25,1.0,1096.0,1572.0,1915.0,1142.0,1595.6000000000931,1724.1000000000931,1208.2000000001865,1995.199999999255,"agalon,hamsi,pombe,kitanda","hamsi,pombe,kitanda,agalon","hamsi,pombe,kitanda,agalon","hamsi,agalon,pombe,kitanda",f,n,n,v,v,v,v,n,hamsi,pombe,pombe,kitanda,268,353,900,1131,0,0.25,-0.25,0.25,0,0.0,0.08888888888888889,0.2611111111111111
187,3,body,tindashan,0,0,1,0,0.25,0.25,0.25,0.75,1.0,215.0,1134.0,22.0,310.0,1943.4000000003723,1659.7999999998135,2122.5,1712.2999999998135,"nyundu,jibini,tindashan,kununa","nyundu,jibini,kununa,tindashan","tindashan,nyundu,jibini,kununa","nyundu,jibini,tindashan,kununa",j,n,f,j,v,v,f,f,jibini,jibini,tindashan,nyundu,136,539,942,1133,0,0.25,-0.25,0.25,0,0.5,0.08888888888888889,0.2611111111111111
188,3,bonfire,goti,1,0,0,0,1.0,0.25,0.25,0.5,1.0,2537.0,1014.0,358.0,65.0,2043.5,1525.0,1230.3999999994412,2214.2999999998137,"mwezi,mfuko,kusanya,goti","mwezi,mfuko,kusanya,goti","mwezi,mfuko,goti,kusanya","goti,mwezi,mfuko,kusanya",n,n,j,f,n,v,f,n,goti,mfuko,mwezi,kusanya,106,434,934,1141,0,0.25,-0.25,0.25,0,0.0,0.08888888888888889,0.2611111111111111
189,3,book,mali,0,1,0,0,0.25,1.0,0.25,0.25,1.0,451.0,1351.0,2566.0,2629450.0,1452.5,1285.1999999997206,1587.5,6472.10000000149,"mali,kuhesa,picha,mara","kuhesa,picha,mara,mali","mali,kuhesa,picha,mara","kuhesa,picha,mali,mara",f,n,f,j,n,n,j,v,mara,mali,picha,picha,130,437,904,1233,1,1.0,0.0,0.0,0,0.0,0.08888888888888889,0.2611111111111111
190,3,box,adui,1,0,0,0,1.0,0.25,0.75,0.25,1.0,3158.0,4430.0,1270.0,102.0,1092.9000000003723,1370.5,3315.9000000003725,1261.199999999255,"adui,kuacha,rafiki,kitande","kuacha,rafiki,adui,kitande","kuacha,adui,rafiki,kitande","adui,kuacha,rafiki,kitande",f,j,v,f,f,v,j,n,adui,rafiki,rafiki,kitande,220,293,988,1239,0,0.25,-0.25,0.25,0,0.0,0.08888888888888889,0.2611111111111111
191,3,bread,dari,1,0,1,1,0.25,0.5,0.75,0.25,1.0,310.0,1859.0,193.0,355.0,1353.8000000002794,1998.6999999997208,996.4000000003724,1430.0999999996277,"dari,kaili,dizeli,bugas","kaili,dari,dizeli,bugas","kaili,dizeli,bugas,dari","dari,kaili,dizeli,bugas",f,v,n,f,f,j,n,f,dari,dizeli,dari,dari,144,422,1018,1117,0,0.5,-0.5,0.5,1,1.0,0.08888888888888889,0.2611111111111111
192,3,bridge,sahani,0,0,0,0,0.0,0.75,0.25,0.0,1.0,2702.0,1922.0,177.0,196.0,2308.7999999998137,1349.1000000000931,1147.2999999998135,2583.199999999255,"daima,ngono,panya,sahani","sahani,daima,ngono,panya","daima,ngono,panya,sahani","daima,ngono,sahani,panya",n,f,n,j,j,v,f,f,panya,daima,daima,daima,254,431,978,1081,0,0.75,-0.75,0.75,0,0.0,0.08888888888888889,0.2611111111111111
193,3,bucket,kiatu,1,1,1,1,0.25,0.5,0.5,0.5,1.0,208.0,2061.0,168.0,270.0,1502.5,1767.1000000000931,3989.200000000186,1967.199999999255,"kiatu,baga,ijayo,init","baga,kiatu,ijayo,init","kiatu,baga,ijayo,init","baga,kiatu,ijayo,init",f,v,f,v,f,v,f,v,kiatu,kiatu,kiatu,kiatu,128,458,992,1177,1,0.5,0.5,0.5,1,1.0,0.08888888888888889,0.2611111111111111
194,3,candle,geza,0,0,1,0,0.5,0.0,0.75,0.25,1.0,103.0,861.0,325.0,190.0,1405.3000000002794,1602.3000000002794,1119.2999999998135,1618.0999999996277,"gabi,geza,farasi,kupanda","gabi,farasi,geza,kupanda","gabi,farasi,geza,kupanda","gabi,farasi,kupanda,geza",v,j,j,n,f,f,j,j,gabi,gabi,geza,kupanda,250,548,1028,1115,0,0.0,0.0,0.0,0,0.5,0.08888888888888889,0.2611111111111111
195,3,cat,paghukom,1,0,0,0,0.5,0.25,0.25,0.0,1.0,1325.0,2749.0,5999.0,204.0,2263.9000000003725,1319.0,2047.7999999998135,1273.199999999255,"paghukom,neyemba,baki,akili","neyemba,paghukom,baki,akili","neyemba,baki,akili,paghukom","neyemba,paghukom,baki,akili",f,v,n,v,f,j,v,j,paghukom,baki,baki,baki,224,401,922,1145,0,0.25,-0.25,0.25,0,0.0,0.08888888888888889,0.2611111111111111
196,3,cave,kesho,0,0,1,1,0.25,0.5,0.5,0.25,1.0,781.0,2296.0,114.0,756.0,1807.7000000001865,4646.099999999628,2092.4000000003725,2060.2999999998137,"ganti,maisha,kesho,nyundo","kesho,ganti,maisha,nyundo","kesho,ganti,maisha,nyundo","ganti,kesho,maisha,nyundo",j,f,f,v,n,v,f,v,nyundo,ganti,kesho,kesho,146,419,928,1159,0,0.5,-0.5,0.5,1,1.0,0.08888888888888889,0.2611111111111111
197,3,ceiling,maua,0,0,0,1,1.0,0.25,0.5,0.25,1.0,2181.0,1477.0,297.0,944.0,1965.3000000002796,1134.1000000000931,1437.2999999998135,1109.0,"kugita,kawaida,rayna,maua","kugita,maua,kawaida,rayna","maua,kugita,kawaida,rayna","kugita,kawaida,rayna,maua",n,v,f,n,v,n,j,n,kawaida,rayna,kawaida,maua,244,455,1050,1099,0,0.25,-0.25,0.25,0,0.5,0.08888888888888889,0.2611111111111111
198,3,cigar,adhabu,0,1,1,0,0.0,1.0,1.0,0.25,0.0,531.0,1183.0,317.0,17409.0,2435.2999999998137,1531.1000000000931,1291.9000000003723,2783.5,"ndugu,kuta,adhabu,mlango","adhabu,ndugu,kuta,mlango","ndugu,adhabu,kuta,mlango","adhabu,ndugu,kuta,mlango",j,f,v,f,v,f,v,v,kuta,adhabu,adhabu,ndugu,274,518,1064,1193,1,1,0,0,0,0.5,0.08888888888888889,0.2611111111111111
199,3,clock,mbwa,1,1,0,0,0.75,1.0,0.5,0.5,1.0,1357.0,2825.0,312.0,566.0,1432.1999999997206,1176.8999999999069,1535.9000000003723,1241.199999999255,"kartasi,abang,osha,mbwa","kartasi,abang,osha,mbwa","kartasi,mbwa,abang,osha","kartasi,mbwa,abang,osha",n,n,v,v,n,n,n,j,mbwa,mbwa,osha,abang,152,308,1048,1171,1,1.0,0.0,0.0,0,0.0,0.08888888888888889,0.2611111111111111
200,3,coffin,kioo,1,1,1,0,0.75,0.25,0.5,1.0,0.0,2027.0,7378.0,199.0,260.0,1589.1999999997206,2258.0,2633.2000000001863,1518.2000000001865,"barua,tubag,kioo,hulma","kioo,barua,tubag,hulma","barua,kioo,tubag,hulma","barua,kioo,tubag,hulma",j,f,v,v,j,f,v,j,kioo,kioo,kioo,tubag,158,314,1010,1091,1,1,0,0,0,0.5,0.08888888888888889,0.2611111111111111
201,3,column,ufagio,1,1,0,0,1.0,1.0,0.75,0.5,0.0,2763.0,1677.0,777.0,2175.0,1873.7000000001865,1605.6000000000931,1438.0999999996277,2365.0,"pundok,dila,pala,ufagio","pundok,dila,ufagio,pala","pundok,ufagio,dila,pala","pundok,dila,ufagio,pala",n,j,v,j,n,j,f,v,ufagio,ufagio,pundok,dila,110,320,1040,1165,1,1,0,0,0,0.0,0.08888888888888889,0.2611111111111111
202,3,cop,mechezo,0,1,0,0,0.75,0.0,0.0,1.0,1.0,1253.0,1324.0,201.0,475.0,1231.1000000000931,1125.1000000000931,1254.4000000003723,1506.199999999255,"mechezo,bustani,jikoni,bakus","bustani,mechezo,jikoni,bakus","bustani,jikoni,bakus,mechezo","mechezo,bustani,jikoni,bakus",f,v,n,f,v,v,f,j,bustani,mechezo,bustani,jikoni,174,500,936,1105,1,0.0,1.0,1.0,0,0.0,0.08888888888888889,0.2611111111111111
203,3,cup,matumai,0,0,1,0,0.5,0.25,0.25,0.5,1.0,3746.0,2206.0,24.0,2004.0,1493.6999999997206,1441.0,2361.399999999907,2989.7000000001863,"matumai,dagat,shimoni,jeraha","dagat,shimoni,jeraha,matumai","dagat,shimoni,jeraha,matumai","dagat,shimoni,matumai,jeraha",f,n,n,j,v,f,n,v,dagat,dagat,matumai,shimoni,122,299,906,1219,0,0.25,-0.25,0.25,0,0.5,0.08888888888888889,0.2611111111111111
204,3,curtain,mchanga,0,0,0,1,0.5,0.75,0.0,0.0,1.0,639.0,4673.0,564.0,191.0,2092.399999999907,1393.1000000000931,1134.8999999994412,3476.399999999441,"lisud,bulwawan,mchanga,chubani","lisud,mchanga,bulwawan,chubani","mchanga,lisud,bulwawan,chubani","lisud,bulwawan,mchanga,chubani",j,v,f,j,n,n,n,j,chubani,chubani,chubani,mchanga,264,305,968,1213,0,0.75,-0.75,0.75,0,0.5,0.08888888888888889,0.2611111111111111
205,3,dog,bahari,0,1,0,0,1.0,1.0,0.25,0.75,0.0,5413.0,1269.0,260.0,137.0,1380.3999999999069,1006.1000000000932,1869.199999999255,1615.6000000005588,"lubi,bahari,washia,kalamu","bahari,lubi,washia,kalamu","lubi,bahari,washia,kalamu","lubi,bahari,washia,kalamu",v,f,v,v,f,f,j,n,lubi,bahari,washia,kalamu,218,509,1002,1217,1,1,0,0,0,0.0,0.08888888888888889,0.2611111111111111
206,3,donkey,elfu,0,0,0,0,0.5,0.25,0.25,0.25,1.0,671.0,3313.0,348.0,932.0,1717.9000000003723,1509.6000000000931,1587.1999999997206,1629.3999999994412,"bloke,elfu,lalake,rombus","bloke,elfu,lalake,rombus","bloke,elfu,lalake,rombus","bloke,lalake,elfu,rombus",v,v,v,j,j,n,n,f,lalake,rombus,rombus,bloke,186,428,902,1189,0,0.25,-0.25,0.25,0,0.0,0.08888888888888889,0.2611111111111111
207,3,door,surali,0,0,0,1,0.75,0.5,0.5,0.25,1.0,933.0,1290.0,1581.0,149.0,1530.7000000001865,2284.899999999907,2401.1999999997206,1247.2999999998135,"tena,soko,nyota,surali","tena,soko,nyota,surali","surali,tena,soko,nyota","tena,soko,nyota,surali",n,n,f,n,v,v,j,n,soko,soko,soko,surali,260,380,894,1199,0,0.5,-0.5,0.5,0,0.5,0.08888888888888889,0.2611111111111111
208,3,eel,msumari,0,0,0,0,0.75,0.0,0.0,1.0,1.0,2593.0,2257.0,154.0,161.0,2280.0,1316.0,1402.2000000001865,1181.0999999996277,"msumari,ishara,kunywa,kabuang","ishara,msumari,kunywa,kabuang","msumari,ishara,kunywa,kabuang","msumari,ishara,kunywa,kabuang",f,v,f,f,j,f,v,v,kunywa,ishara,ishara,ishara,172,329,1004,1149,0,0.0,0.0,0.0,0,0.0,0.08888888888888889,0.2611111111111111
209,3,elephant,kito,0,0,0,0,0.75,0.25,0.0,0.25,1.0,1087.0,1097.0,1172.0,235.0,1107.1999999997206,1035.1999999997206,1063.4000000003723,1704.3999999994412,"petye,pagduol,suka,kito","petye,pagduol,kito,suka","petye,pagduol,kito,suka","petye,pagduol,kito,suka",n,j,j,j,f,v,v,v,petye,pagduol,pagduol,pagduol,126,416,1034,1205,0,0.25,-0.25,0.25,0,0.0,0.08888888888888889,0.2611111111111111
210,3,finger,moyo,0,0,0,0,0.75,0.5,0.25,1.0,1.0,944.0,1569.0,638.0,132.0,1174.2000000001865,1838.8999999999069,1544.5,1385.3999999994412,"simu,sufuria,lima,moyo","simu,moyo,sufuria,lima","simu,sufuria,moyo,lima","simu,sufuria,moyo,lima",n,v,j,j,f,n,n,n,simu,lima,lima,lima,212,350,964,1179,0,0.5,-0.5,0.5,0,0.0,0.08888888888888889,0.2611111111111111
211,3,fish,buli,1,0,0,0,0.25,0.0,0.75,0.75,1.0,882.0,2415.0,111.0,173.0,2201.2999999998137,1766.1000000000931,1415.9000000003723,2007.2999999998135,"bala,baho,imani,buli","bala,buli,baho,imani","bala,buli,baho,imani","bala,buli,baho,imani",n,v,v,v,n,n,f,j,buli,imani,bala,baho,262,440,924,1143,0,0.0,0.0,0.0,0,0.0,0.08888888888888889,0.2611111111111111
212,3,flag,trekta,0,0,1,0,0.75,0.25,0.25,0.25,1.0,1453.0,1427.0,618.0,57.0,1559.6000000000931,1155.7999999998135,1648.199999999255,2014.2999999998135,"ndege,trekta,mkate,kawa","ndege,mkate,kawa,trekta","ndege,mkate,kawa,trekta","ndege,mkate,kawa,trekta",v,n,n,n,f,f,n,v,ndege,ndege,trekta,mkate,266,374,954,1215,0,0.25,-0.25,0.25,0,0.5,0.08888888888888889,0.2611111111111111
213,3,flower,bega,0,0,0,1,0.25,0.75,0.0,0.75,1.0,5274.0,950.0,224.0,313.0,2100.9000000003725,3658.200000000186,1615.2000000001865,1188.9000000003723,"tamasha,lobo,usiku,bega","bega,tamasha,lobo,usiku","tamasha,bega,lobo,usiku","tamasha,lobo,usiku,bega",n,f,v,n,j,v,f,n,usiku,tamasha,tamasha,bega,108,515,1026,1225,0,0.75,-0.75,0.75,0,0.5,0.08888888888888889,0.2611111111111111
214,3,fork,mgonjwa,0,0,0,0,0.75,0.75,0.0,0.75,1.0,3614.0,966.0,265.0,220.0,1355.0,1705.5,1231.2999999998135,1227.3999999994412,"baboy,paghago,gorisi,mgonjwa","baboy,paghago,mgonjwa,gorisi","baboy,mgonjwa,paghago,gorisi","baboy,paghago,mgonjwa,gorisi",n,j,v,j,j,f,f,n,gorisi,baboy,baboy,gorisi,116,524,986,1187,0,0.75,-0.75,0.75,0,0.0,0.08888888888888889,0.2611111111111111
215,3,gift,pagtawag,0,0,1,0,1.0,0.75,0.25,0.25,1.0,174.0,1981.0,157.0,468.0,2114.2999999998137,1626.3999999999069,2539.2999999998137,1255.9000000003723,"baba,pagtawag,nyange,baso","baba,pagtawag,nyange,baso","baba,nyange,pagtawag,baso","baba,nyange,pagtawag,baso",v,v,j,j,j,n,j,v,nyange,baso,pagtawag,nyange,230,332,990,1107,0,0.75,-0.75,0.75,0,0.5,0.08888888888888889,0.2611111111111111
216,3,giraffe,mahitabo,1,1,0,0,0.5,0.5,0.5,0.25,1.0,813.0,1594.0,432.0,564.0,1490.3000000002794,1626.2000000001865,3583.4000000003725,1204.2999999998135,"daraja,mahitabo,jumatu,hangyo","daraja,jumatu,hangyo,mahitabo","mahitabo,daraja,jumatu,hangyo","daraja,mahitabo,jumatu,hangyo",v,n,f,v,v,n,v,f,mahitabo,mahitabo,daraja,daraja,216,413,1024,1095,1,0.5,0.5,0.5,0,0.0,0.08888888888888889,0.2611111111111111
217,3,hammer,napakyas,0,0,0,1,0.0,0.0,0.75,0.25,1.0,961.0,171.0,212.0,245.0,1290.1000000000931,1900.3999999999069,1746.2999999998135,3416.2999999988824,"mekno,kitovu,napakyas,layag","mekno,napakyas,kitovu,layag","napakyas,mekno,kitovu,layag","napakyas,mekno,kitovu,layag",j,v,f,f,n,f,j,f,layag,mekno,kitovu,napakyas,240,521,1062,1247,0,0.0,0.0,0.0,0,0.5,0.08888888888888889,0.2611111111111111
218,3,hill,matumbo,0,0,0,0,0.5,0.25,0.75,1.0,1.0,862.0,1662.0,1005.0,295.0,1353.0999999996277,1119.5,1704.9000000003723,1164.4000000003723,"kushoto,kukimba,matumbo,sweta","kushoto,kukimba,sweta,matumbo","matumbo,kushoto,kukimba,sweta","matumbo,kushoto,kukimba,sweta",j,n,f,f,v,f,n,v,kukimba,kushoto,sweta,kushoto,192,356,980,1123,0,0.25,-0.25,0.25,0,0.0,0.08888888888888889,0.2611111111111111
219,3,human,tinapay,0,1,0,0,0.75,0.75,0.0,0.25,1.0,945.0,2665.0,453.0,418.0,1094.1999999997206,1222.5,1378.2000000001865,1223.0999999996277,"tinapay,bado,kikapu,punguza","bado,kikapu,punguza,tinapay","bado,tinapay,kikapu,punguza","bado,tinapay,kikapu,punguza",f,n,v,v,v,n,n,j,bado,tinapay,punguza,kikapu,150,395,912,1183,1,0.75,0.25,0.25,0,0.0,0.08888888888888889,0.2611111111111111
220,3,key,chombo,0,0,0,0,0.25,0.25,1.0,0.0,1.0,1135.0,934.0,794.0,1753.0,1091.3000000002794,1581.5,1822.2999999998135,1347.8999999994412,"miaka,goma,ahos,chombo","miaka,chombo,goma,ahos","miaka,goma,chombo,ahos","miaka,goma,chombo,ahos",n,v,j,j,v,n,f,f,goma,ahos,miaka,miaka,204,485,972,1197,0,0.25,-0.25,0.25,0,0.0,0.08888888888888889,0.2611111111111111
221,3,knee,duka,0,0,1,0,0.75,0.0,1.0,0.5,1.0,2042.0,2064.0,651.0,108.0,1436.0,1499.6000000000931,1274.4000000003723,1485.0999999996277,"mvuke,kubale,duka,bili","mvuke,kubale,bili,duka","mvuke,kubale,duka,bili","mvuke,kubale,duka,bili",j,n,j,j,f,v,j,n,mvuke,kubale,duka,bili,242,341,1012,1075,0,0.0,0.0,0.0,0,0.5,0.08888888888888889,0.2611111111111111
222,3,ladder,pangalan,0,0,0,0,0.5,0.0,0.25,0.75,1.0,800.0,1386.0,2876.0,236.0,2130.0999999996275,2099.600000000093,926.8999999999068,1516.0999999996277,"mashua,mwanga,kamba,pangalan","mashua,mwanga,pangalan,kamba","mashua,mwanga,pangalan,kamba","pangalan,mashua,mwanga,kamba",n,j,j,f,f,f,n,j,mashua,mashua,kamba,mwanga,148,530,892,1085,0,0.0,0.0,0.0,0,0.0,0.08888888888888889,0.2611111111111111
223,3,lamp,afya,0,0,0,0,0.25,0.25,1.0,0.75,1.0,695.0,1119.0,296.0,996.0,1504.0,1170.0,1489.1000000005588,1396.699999999255,"daub,bilaska,mbolea,afya","daub,bilaska,mbolea,afya","daub,bilaska,afya,mbolea","daub,bilaska,afya,mbolea",n,n,j,j,v,v,f,n,bilaska,bilaska,daub,mbolea,272,389,930,1157,0,0.25,-0.25,0.25,0,0.0,0.08888888888888889,0.2611111111111111
224,3,letter,kifua,0,1,1,0,0.5,1.0,0.25,0.75,0.0,642.0,1299.0,1072.0,3967.0,4413.5,1354.3000000002794,1723.0,2818.699999999255,"filimbi,chuma,kifua,uhuru","filimbi,chuma,uhuru,kifua","filimbi,chuma,uhuru,kifua","filimbi,kifua,chuma,uhuru",j,n,n,v,v,n,n,f,chuma,kifua,kifua,filimbi,170,506,982,1113,1,1,0,0,0,0.5,0.08888888888888889,0.2611111111111111
225,3,list,wingu,0,0,0,0,0.75,0.75,0.75,0.25,1.0,1811.0,1290.0,485.0,1199.0,1142.9000000003723,1330.0,1098.5999999996277,1122.0999999996277,"alizeti,wingu,kuzama,kaso","alizeti,kuzama,kaso,wingu","alizeti,wingu,kuzama,kaso","alizeti,wingu,kuzama,kaso",v,n,v,v,j,f,j,n,kuzama,alizeti,kuzama,kaso,276,554,1044,1069,0,0.75,-0.75,0.75,0,0.0,0.08888888888888889,0.2611111111111111
226,3,magazine,kiti,0,1,0,0,0.25,0.75,0.0,0.5,1.0,1132.0,9010.0,400.0,1102.0,2725.899999999907,1687.5,1560.0,3149.5,"kiti,gundi,mchawi,bahandi","gundi,mchawi,bahandi,kiti","gundi,kiti,mchawi,bahandi","gundi,mchawi,bahandi,kiti",f,n,v,n,j,n,j,v,mchawi,kiti,mchawi,mchawi,142,317,1054,1153,1,0.75,0.25,0.25,0,0.0,0.08888888888888889,0.2611111111111111
227,3,marker,maji,0,0,1,0,0.25,0.25,0.75,0.25,1.0,80.0,1255.0,163.0,532.0,3127.2000000001863,1128.1000000000931,2372.399999999441,1737.199999999255,"mapafu,maji,salita,atay","mapafu,salita,atay,maji","maji,mapafu,salita,atay","maji,mapafu,salita,atay",v,n,f,f,j,j,f,n,salita,atay,maji,atay,248,491,938,1101,0,0.25,-0.25,0.25,0,0.5,0.08888888888888889,0.2611111111111111
228,3,mirror,sulagma,0,1,1,0,0.25,0.25,0.5,0.75,1.0,765.0,2790.0,469.0,1635.0,1120.6999999997206,1928.6999999997208,1852.4000000003723,1103.2000000001865,"sulagma,rangi,kanding,furaha","sulagma,rangi,kanding,furaha","rangi,kanding,sulagma,furaha","sulagma,rangi,kanding,furaha",f,f,j,f,v,f,j,v,rangi,sulagma,sulagma,rangi,132,311,952,1097,1,0.25,0.75,0.75,0,0.5,0.08888888888888889,0.2611111111111111
229,3,mosquito,martilyo,0,0,0,0,0.5,0.25,0.0,0.75,1.0,1502.0,3417.0,845.0,804.0,1736.0,1289.7999999998135,1054.5,1288.199999999255,"isda,taras,martilyo,gutom","isda,taras,martilyo,gutom","isda,taras,martilyo,gutom","isda,taras,gutom,martilyo",j,j,j,n,v,n,n,v,taras,gutom,gutom,taras,118,467,1038,1241,0,0.25,-0.25,0.25,0,0.0,0.08888888888888889,0.2611111111111111
230,3,mother,babaye,1,1,1,0,1.0,1.0,0.25,1.0,0.0,2150.0,827.0,494.0,314.0,1839.8000000002796,1470.6000000000931,1045.0,1159.3999999994412,"kahawa,babaye,mbuzi,jokofu","kahawa,babaye,mbuzi,jokofu","babaye,kahawa,mbuzi,jokofu","babaye,kahawa,mbuzi,jokofu",v,v,f,f,v,v,f,n,babaye,babaye,babaye,jokofu,200,464,1030,1181,1,1,0,0,0,0.5,0.08888888888888889,0.2611111111111111
231,3,music,baiski,1,1,0,0,0.25,0.25,1.0,0.5,1.0,1690.0,1121.0,215.0,54.0,1402.2999999998135,1218.0,1139.4000000003723,1706.2000000001865,"mraba,baiski,mageho,tumbo","mraba,mageho,tumbo,baiski","mraba,baiski,mageho,tumbo","mraba,baiski,mageho,tumbo",v,n,v,v,v,n,n,j,baiski,baiski,tumbo,mageho,112,482,1000,1209,1,0.25,0.75,0.75,0,0.0,0.08888888888888889,0.2611111111111111
232,3,nose,sehemu,0,1,1,0,0.5,1.0,0.75,0.75,0.0,998.0,1192.0,420.0,180.0,2642.0,1235.0,1137.4000000003723,1568.2999999998135,"gubat,kopa,kidole,sehemu","gubat,kopa,sehemu,kidole","sehemu,gubat,kopa,kidole","gubat,sehemu,kopa,kidole",n,j,f,v,f,j,f,f,gubat,sehemu,sehemu,gubat,180,452,998,1129,1,1,0,0,0,0.5,0.08888888888888889,0.2611111111111111
233,3,notebook,kemia,0,0,0,0,0.5,0.25,1.0,0.25,1.0,108.0,3056.0,258.0,583.0,1914.6999999997208,2460.5999999996275,1634.7000000001865,1326.2999999998135,"msitu,kila,kemia,mdudu","kemia,msitu,kila,mdudu","kemia,msitu,kila,mdudu","msitu,kila,mdudu,kemia",j,f,f,n,f,v,v,f,msitu,msitu,msitu,msitu,160,371,960,1109,0,0.25,-0.25,0.25,0,0.0,0.08888888888888889,0.2611111111111111
234,3,number,mundamo,0,0,1,1,0.25,0.75,0.75,0.25,1.0,296.0,6977.0,321.0,2103.0,1880.0,1872.600000000093,2118.2999999998137,1658.7999999998135,"shule,mundamo,kengele,choori","shule,kengele,mundamo,choori","shule,mundamo,kengele,choori","shule,kengele,mundamo,choori",v,j,v,j,n,f,v,j,choori,shule,mundamo,mundamo,166,323,1006,1071,0,0.75,-0.75,0.75,1,1.0,0.08888888888888889,0.2611111111111111
235,3,office,leso,0,0,0,1,0.25,0.75,1.0,0.75,1.0,2006.0,959.0,309.0,35.0,1109.6999999997206,1501.5,2294.199999999255,2789.0,"leso,hazini,yatima,kuna","leso,hazini,yatima,kuna","hazini,leso,yatima,kuna","hazini,yatima,kuna,leso",f,f,v,n,n,n,f,n,kuna,kuna,hazini,leso,134,494,1056,1207,0,0.75,-0.75,0.75,0,0.5,0.08888888888888889,0.2611111111111111
236,3,olive,jiwe,0,0,0,0,0.75,0.0,0.25,0.75,1.0,1083.0,1214.0,103.0,1132.0,1218.1999999997206,1487.1000000000931,1543.5,1434.0,"bata,jiwe,siagi,welder","jiwe,bata,siagi,welder","jiwe,bata,siagi,welder","bata,jiwe,siagi,welder",v,f,f,v,j,v,j,n,siagi,bata,siagi,welder,140,557,974,1195,0,0.0,0.0,0.0,0,0.0,0.08888888888888889,0.2611111111111111
237,3,page,wimbo,0,0,0,0,0.25,0.75,0.25,0.5,1.0,1155.0,1013.0,4270.0,278.0,1191.0999999996277,1409.8000000002794,1452.1999999997206,2108.2999999998137,"wakala,ishiri,skina,wimbo","wimbo,wakala,ishiri,skina","wakala,ishiri,wimbo,skina","wakala,ishiri,wimbo,skina",n,f,j,j,f,n,f,v,wakala,skina,wakala,ishiri,206,449,888,1167,0,0.75,-0.75,0.75,0,0.0,0.08888888888888889,0.2611111111111111
238,3,pants,haki,0,0,0,0,0.5,0.75,0.25,0.25,1.0,800.0,4711.0,971.0,149.0,1958.3999999999069,2667.1999999997206,2143.0999999996275,1435.199999999255,"pintal,chuki,hari,haki","pintal,chuki,haki,hari","pintal,chuki,hari,haki","haki,pintal,chuki,hari",n,j,n,f,v,f,v,n,chuki,pintal,chuki,hari,208,296,1042,1087,0,0.75,-0.75,0.75,0,0.0,0.08888888888888889,0.2611111111111111
239,3,park,bunifu,0,0,0,0,0.75,0.5,0.75,0.0,1.0,991.0,4366.0,36.0,972.0,1900.8999999999069,2119.899999999907,1242.2999999998135,1218.9000000003723,"tambok,pwani,bunifu,ihalas","tambok,pwani,bunifu,ihalas","bunifu,tambok,pwani,ihalas","bunifu,tambok,pwani,ihalas",j,j,f,f,v,f,n,v,pwani,tambok,ihalas,tambok,164,347,916,1093,0,0.5,-0.5,0.5,0,0.0,0.08888888888888889,0.2611111111111111
240,3,perfume,katuyoan,0,0,0,0,1.0,0.0,0.25,0.25,1.0,1125.0,1364.0,273.0,229.0,1350.1999999997206,1512.7999999998135,1211.4000000003723,2519.2999999998137,"bino,katuyoan,sungura,ndogo","bino,sungura,ndogo,katuyoan","katuyoan,bino,sungura,ndogo","bino,sungura,katuyoan,ndogo",v,n,f,j,f,v,n,n,bino,sungura,ndogo,ndogo,138,470,970,1083,0,0.0,0.0,0.0,0,0.0,0.08888888888888889,0.2611111111111111
241,3,picture,kubwa,0,1,1,0,0.5,1.0,0.75,0.25,0.0,820.0,1133.0,1635.0,169.0,1506.2999999998135,1681.3999999999069,1166.8999999999069,983.3999999994412,"silya,chaki,asin,kubwa","silya,kubwa,chaki,asin","silya,kubwa,chaki,asin","kubwa,silya,chaki,asin",n,v,v,f,f,v,v,v,silya,kubwa,kubwa,silya,280,560,898,1227,1,1,0,0,0,0.5,0.08888888888888889,0.2611111111111111
242,3,poster,madungog,1,0,1,0,0.25,0.75,1.0,0.25,1.0,306.0,937.0,213.0,1110.0,1756.1000000000931,1159.1999999997206,1981.0999999996277,2067.2000000011176,"nchi,fedha,kasuko,madungog","madungog,nchi,fedha,kasuko","nchi,fedha,madungog,kasuko","madungog,nchi,fedha,kasuko",n,f,j,f,n,v,j,n,madungog,nchi,madungog,kasuko,188,479,918,1237,0,0.75,-0.75,0.75,0,0.5,0.08888888888888889,0.2611111111111111
243,3,pudding,aibu,0,0,0,0,0.75,0.75,0.5,0.25,1.0,2948.0,1254.0,475.0,539.0,1259.6999999997206,3247.100000000093,3281.2000000001863,1711.7999999998135,"abug,mpishi,iring,aibu","abug,mpishi,iring,aibu","aibu,abug,mpishi,iring","abug,mpishi,iring,aibu",n,n,f,n,j,f,j,v,iring,abug,mpishi,mpishi,234,536,910,1155,0,0.75,-0.75,0.75,0,0.0,0.08888888888888889,0.2611111111111111
244,3,puppet,mazishi,0,1,0,1,0.75,1.0,0.5,0.75,0.0,766.0,1237.0,273.0,124.0,1090.1999999997206,1152.1000000000931,1538.0,1607.0999999996277,"napulo,mazishi,lamok,godoro","mazishi,napulo,lamok,godoro","napulo,lamok,godoro,mazishi","napulo,lamok,godoro,mazishi",v,f,n,n,f,f,j,n,napulo,mazishi,godoro,mazishi,190,476,996,1229,1,1,0,0,0,0.5,0.08888888888888889,0.2611111111111111
245,3,rose,paghalad,0,1,1,0,0.75,0.25,0.75,1.0,1.0,2055.0,2311.0,837.0,176.0,1318.0,1157.6999999997206,2401.7000000001863,989.5,"paghalad,singizi,mwanake,amani","singizi,paghalad,mwanake,amani","singizi,mwanake,amani,paghalad","singizi,mwanake,amani,paghalad",f,v,n,n,v,v,n,f,singizi,paghalad,paghalad,singizi,270,326,976,1121,1,0.25,0.75,0.75,0,0.5,0.08888888888888889,0.2611111111111111
246,3,salmon,sensilyo,0,0,0,0,0.25,0.75,1.0,0.5,1.0,876.0,1086.0,2133.0,225.0,1439.3999999999069,1249.0,1646.0,2262.0,"mzungu,sensilyo,seri,baharia","mzungu,sensilyo,seri,baharia","mzungu,seri,sensilyo,baharia","sensilyo,mzungu,seri,baharia",v,v,j,f,j,j,n,n,seri,seri,baharia,baharia,156,383,946,1089,0,0.75,-0.75,0.75,0,0.0,0.08888888888888889,0.2611111111111111
247,3,scissors,tanuri,1,0,1,0,0.5,0.25,0.5,0.0,1.0,3942.0,829.0,160.0,1185.0,3121.600000000093,1000.1000000000932,1365.2999999998135,2202.0,"duga,mtawa,suga,tanuri","tanuri,duga,mtawa,suga","duga,tanuri,mtawa,suga","duga,mtawa,suga,tanuri",n,f,v,n,n,v,v,v,tanuri,duga,tanuri,mtawa,222,446,1022,1245,0,0.25,-0.25,0.25,0,0.5,0.08888888888888889,0.2611111111111111
248,3,sheet,bililhon,0,1,0,0,0.5,1.0,0.25,0.25,1.0,1025.0,1077.0,1028.0,23130.0,2469.6999999997206,1174.0,1127.0,1474.2000000001865,"juuya,watu,bililhon,kamantis","juuya,watu,kamantis,bililhon","bililhon,juuya,watu,kamantis","juuya,watu,bililhon,kamantis",j,n,f,j,n,n,v,v,kamantis,bililhon,juuya,watu,278,473,890,1221,1,1.0,0.0,0.0,0,0.0,0.08888888888888889,0.2611111111111111
249,3,shelf,pamahaw,1,1,0,0,0.0,0.25,0.25,0.75,0.0,775.0,1660.0,592.0,397.0,1505.0999999996277,1513.2999999998135,1522.2000000001865,1303.4000000003723,"bungtod,pamahaw,kadaot,awit","bungtod,pamahaw,kadaot,awit","bungtod,kadaot,awit,pamahaw","bungtod,kadaot,pamahaw,awit",v,v,n,j,v,v,j,v,pamahaw,pamahaw,awit,kadaot,154,392,1036,1243,1,1,0,0,0,0.0,0.08888888888888889,0.2611111111111111
250,3,shoe,uyoga,0,0,1,0,0.5,0.5,0.0,0.0,1.0,848.0,1372.0,191.0,237.0,1501.0,2163.7999999998137,1782.199999999255,1099.2999999998135,"uyoga,nyeusi,hatua,kama","nyeusi,hatua,kama,uyoga","nyeusi,uyoga,hatua,kama","nyeusi,uyoga,hatua,kama",f,n,v,v,j,v,v,f,hatua,hatua,uyoga,nyeusi,214,497,1066,1169,0,0.5,-0.5,0.5,0,0.5,0.08888888888888889,0.2611111111111111
251,3,shop,samaki,0,0,0,0,0.75,0.5,0.5,0.25,1.0,3026.0,1334.0,137.0,288.0,1652.6000000000931,1754.1000000000931,1583.2000000001865,1044.5,"nopya,samaki,kerida,ndezu","nopya,kerida,samaki,ndezu","nopya,kerida,samaki,ndezu","nopya,kerida,samaki,ndezu",v,j,j,j,f,n,f,f,nopya,ndezu,nopya,nopya,124,512,994,1127,0,0.5,-0.5,0.5,0,0.0,0.08888888888888889,0.2611111111111111
252,3,shoulder,mkuu,0,0,1,1,0.5,0.25,0.25,0.25,1.0,1043.0,2540.0,160.0,393.0,1664.1999999997206,1280.2999999998135,1378.0,2038.0,"kelele,ndaniya,guruwe,mkuu","kelele,mkuu,ndaniya,guruwe","kelele,ndaniya,guruwe,mkuu","mkuu,kelele,ndaniya,guruwe",n,v,n,f,v,f,n,f,ndaniya,kelele,mkuu,mkuu,162,386,956,1161,0,0.25,-0.25,0.25,1,1.0,0.08888888888888889,0.2611111111111111
253,3,snake,pagtukod,0,1,0,1,0.25,0.75,0.75,0.5,1.0,689.0,1528.0,1159.0,82.0,1662.0999999996277,1362.1999999997206,1151.1000000005588,1409.199999999255,"jansa,pagtukod,karon,mvringo","jansa,karon,pagtukod,mvringo","jansa,karon,mvringo,pagtukod","pagtukod,jansa,karon,mvringo",v,j,n,f,n,j,j,f,mvringo,pagtukod,mvringo,pagtukod,228,365,962,1119,1,0.75,0.25,0.25,0,0.5,0.08888888888888889,0.2611111111111111
254,3,sock,mamba,0,0,0,0,0.5,0.75,0.25,0.0,1.0,1063.0,1135.0,1320.0,1249.0,1469.2999999998135,2114.0,1668.199999999255,1815.699999999255,"mamba,ndoora,kimysa,mtirka","ndoora,kimysa,mtirka,mamba","mamba,ndoora,kimysa,mtirka","ndoora,kimysa,mtirka,mamba",f,n,f,n,j,v,n,j,kimysa,kimysa,mtirka,mtirka,182,488,984,1103,0,0.75,-0.75,0.75,0,0.0,0.08888888888888889,0.2611111111111111
255,3,spider,kamwe,1,0,1,0,0.25,0.25,0.0,0.25,1.0,2329.0,1568.0,1275.0,280.0,1690.8999999999069,1145.2999999998135,1086.2999999998135,1299.0999999996277,"bunyag,mkboa,atop,kamwe","kamwe,bunyag,mkboa,atop","bunyag,mkboa,atop,kamwe","bunyag,mkboa,kamwe,atop",n,f,n,j,n,v,n,v,kamwe,bunyag,kamwe,mkboa,114,404,896,1147,0,0.25,-0.25,0.25,0,0.5,0.08888888888888889,0.2611111111111111
256,3,spoon,pagsulod,0,0,0,1,0.25,0.0,0.75,0.75,1.0,1626.0,946.0,169.0,878.0,2315.2999999998137,1156.1000000000931,1228.199999999255,3247.2000000001863,"pagsulod,betri,nzuri,ngazi","betri,nzuri,pagsulod,ngazi","betri,nzuri,ngazi,pagsulod","betri,pagsulod,nzuri,ngazi",f,j,n,v,v,v,j,v,betri,nzuri,ngazi,pagsulod,246,443,1060,1223,0,0.0,0.0,0.0,0,0.5,0.08888888888888889,0.2611111111111111
257,3,squirrel,hofu,0,1,0,0,0.25,0.75,0.25,0.25,1.0,786.0,1211.0,98.0,68.0,1147.6000000000931,1309.1999999997206,1500.1000000005588,2319.2999999998137,"mahugaw,hofu,ukweli,kichwa","mahugaw,ukweli,kichwa,hofu","mahugaw,ukweli,kichwa,hofu","mahugaw,hofu,ukweli,kichwa",v,n,n,v,n,n,f,n,kichwa,hofu,mahugaw,kichwa,178,377,914,1137,1,0.75,0.25,0.25,0,0.0,0.08888888888888889,0.2611111111111111
258,3,stone,wingi,0,1,0,0,0.75,0.5,0.75,0.25,1.0,1037.0,1762.0,238.0,221.0,1620.1999999997206,1971.7999999998135,1284.6000000005588,1097.2999999998135,"wingi,ulimwengu,mkasi,asili","ulimwengu,wingi,mkasi,asili","ulimwengu,mkasi,wingi,asili","ulimwengu,mkasi,asili,wingi",f,v,j,n,v,v,n,j,ulimwengu,wingi,asili,asili,238,425,1016,1163,1,0.5,0.5,0.5,0,0.0,0.08888888888888889,0.2611111111111111
259,3,sun,basi,0,1,0,0,0.5,1.0,0.75,0.75,0.0,1132.0,1231.0,107.0,324.0,1967.7000000001865,1601.2000000001865,1163.3000000002794,1498.4000000003723,"bendi,luha,basi,uongo","bendi,basi,luha,uongo","bendi,luha,uongo,basi","bendi,basi,luha,uongo",j,v,n,v,n,v,f,j,uongo,basi,bendi,luha,210,527,908,1185,1,1,0,0,0,0.0,0.08888888888888889,0.2611111111111111
260,3,tissue,ugomvi,0,0,0,0,0.5,0.25,0.0,0.5,1.0,643.0,2784.0,141.0,241.0,1411.0999999996277,1359.5,2153.5,2134.399999999441,"ugomvi,lamigas,kisiwa,katika","lamigas,ugomvi,kisiwa,katika","lamigas,ugomvi,kisiwa,katika","lamigas,kisiwa,katika,ugomvi",f,v,v,n,n,f,f,j,katika,lamigas,lamigas,katika,252,545,958,1211,0,0.25,-0.25,0.25,0,0.0,0.08888888888888889,0.2611111111111111
261,3,tomato,mvua,0,1,0,0,0.25,1.0,0.5,0.25,0.0,1068.0,1702.0,251.0,469.0,1595.3999999999069,1650.2000000001865,2059.0999999996275,1373.0,"chupi,chupa,mvua,takatak","mvua,chupi,chupa,takatak","mvua,chupi,chupa,takatak","mvua,chupi,chupa,takatak",j,f,f,f,v,f,j,n,chupa,mvua,chupa,takatak,236,551,1008,1175,1,1,0,0,0,0.0,0.08888888888888889,0.2611111111111111
262,3,tooth,kabalaka,1,0,0,0,0.5,0.75,0.25,0.0,1.0,864.0,1847.0,41.0,242.0,1658.8999999999069,1196.8999999999069,1226.300000000745,1551.2999999998135,"kijiko,uadui,kabalaka,pahiyum","kijiko,kabalaka,uadui,pahiyum","kijiko,kabalaka,uadui,pahiyum","kijiko,uadui,kabalaka,pahiyum",j,v,v,j,j,n,f,n,kabalaka,pahiyum,kijiko,pahiyum,194,368,926,1077,0,0.75,-0.75,0.75,0,0.0,0.08888888888888889,0.2611111111111111
263,3,towel,pagpalit,0,0,0,0,0.5,0.75,1.0,0.75,1.0,955.0,2198.0,1489.0,742.0,1499.9000000003723,1998.5,2721.4000000003725,1796.9000000003723,"tembo,pagpalit,funzi,pito","tembo,funzi,pito,pagpalit","tembo,funzi,pagpalit,pito","pagpalit,tembo,funzi,pito",v,n,j,f,n,j,n,n,pito,pito,pito,pito,282,398,1032,1173,0,0.75,-0.75,0.75,0,0.0,0.08888888888888889,0.2611111111111111
264,3,train,sayari,1,0,0,0,0.25,0.75,0.0,0.0,1.0,2655.0,1539.0,816.0,69.0,1176.7000000001865,1254.8000000002794,1313.2000000001865,1218.5,"itik,sayari,dakika,mungu","sayari,itik,dakika,mungu","itik,dakika,mungu,sayari","itik,sayari,dakika,mungu",v,f,n,v,v,v,f,f,sayari,itik,itik,itik,232,359,1052,1125,0,0.75,-0.75,0.75,0,0.0,0.08888888888888889,0.2611111111111111
265,3,triangle,kasadpan,0,1,0,0,0.5,0.75,0.25,0.75,1.0,1639.0,1978.0,562.0,1536.0,2989.100000000093,1903.0,1773.7000000001865,1669.0,"kihozi,bentaha,liog,kasadpan","kihozi,bentaha,liog,kasadpan","kihozi,bentaha,kasadpan,liog","kihozi,bentaha,kasadpan,liog",n,n,j,j,v,n,n,f,bentaha,kasadpan,liog,kihozi,258,302,1020,1235,1,0.75,0.25,0.25,0,0.0,0.08888888888888889,0.2611111111111111
266,3,wheel,bafuni,0,1,1,0,0.75,1.0,0.25,1.0,0.0,660.0,1953.0,3206.0,200.0,1849.3999999999069,1693.1000000000931,2037.699999999255,1313.199999999255,"bafuni,punda,tawo,baadaye","punda,tawo,bafuni,baadaye","punda,tawo,baadaye,bafuni","punda,bafuni,tawo,baadaye",f,j,n,v,n,j,n,n,baadaye,bafuni,bafuni,baadaye,198,338,1058,1201,1,1,0,0,0,0.5,0.08888888888888889,0.2611111111111111
267,3,window,kweli,0,0,0,0,0.0,1.0,0.25,0.25,1.0,933.0,1057.0,19.0,38.0,2226.100000000093,1340.2999999998135,1247.2000000001865,1298.2999999998135,"kweli,nanga,kujenga,umaga","nanga,kujenga,kweli,umaga","nanga,kweli,kujenga,umaga","nanga,kweli,kujenga,umaga",f,j,v,v,v,n,n,n,nanga,umaga,umaga,umaga,284,407,940,1139,0,1.0,-1.0,1.0,0,0.0,0.08888888888888889,0.2611111111111111
268,3,wolf,lugha,0,0,1,1,0.25,0.25,0.25,0.75,1.0,1400.0,1630.0,109.0,568.0,1464.1000000000931,1308.1999999997206,3278.4000000003725,1108.199999999255,"kaburi,ndizi,mchuzi,lugha","kaburi,ndizi,lugha,mchuzi","lugha,kaburi,ndizi,mchuzi","kaburi,lugha,ndizi,mchuzi",n,j,f,v,v,n,f,v,ndizi,mchuzi,lugha,lugha,176,362,920,1191,0,0.25,-0.25,0.25,1,1.0,0.08888888888888889,0.2611111111111111
269,3,woman,pagtabon,0,1,0,0,0.25,1.0,0.25,0.25,0.0,1119.0,1501.0,385.0,178.0,1536.7999999998135,1429.0,1083.0999999996277,1110.7000000001865,"bandari,bituin,pagtabon,kovuli","bandari,pagtabon,bituin,kovuli","bandari,pagtabon,bituin,kovuli","bandari,bituin,kovuli,pagtabon",j,v,v,n,v,v,n,v,bituin,pagtabon,kovuli,bituin,196,410,1014,1151,1,1,0,0,0,0.0,0.08888888888888889,0.2611111111111111
270,4,apple,kisu,1,1,1,1,1.0,1.0,1.0,1.0,0.0,2516.0,1855.0,1754.0,1519.0,1871.8999999999069,1358.0,2697.600000000093,2037.5,"ukame,estante,edad,kisu","ukame,kisu,estante,edad","ukame,estante,kisu,edad","ukame,estante,edad,kisu",n,v,j,n,n,v,j,n,kisu,kisu,kisu,kisu,168,335,944,1073,1,1,0,0,1,1.0,0.6888888888888889,0.8
271,4,banana,kazi,0,1,1,1,0.25,1.0,1.0,1.0,0.0,46346.0,1601.0,2079.0,1525.0,2587.0999999998603,1637.8999999999069,1988.3999999999069,2061.7000000001863,"kasamok,kazi,hagdan,twai","kazi,kasamok,hagdan,twai","kasamok,hagdan,twai,kazi","kasamok,hagdan,twai,kazi",v,f,n,n,f,f,n,n,kasamok,kazi,kazi,kazi,120,533,932,1231,1,1,0,0,1,1.0,0.6888888888888889,0.8
272,4,bank,silingan,1,0,1,1,1.0,0.0,0.75,1.0,1.0,8215.0,4214.0,32587.0,1460.0,1662.6000000000931,1469.9000000003723,3145.600000000093,1366.2999999998135,"kudhibi,tualya,ofisi,silingan","silingan,kudhibi,tualya,ofisi","kudhibi,tualya,ofisi,silingan","kudhibi,tualya,ofisi,silingan",n,f,n,n,n,n,n,n,silingan,ofisi,silingan,silingan,184,503,1046,1111,0,0.0,0.0,0.0,1,1.0,0.6888888888888889,0.8
273,4,basket,kumba,1,1,0,1,0.0,1.0,0.25,0.25,0.0,3739.0,1571.0,2777.0,2931.0,2505.0,1931.0999999998603,2162.899999999907,1728.7000000001865,"kumbuka,utepe,kumba,hasira","kumbuka,utepe,hasira,kumba","kumbuka,utepe,kumba,hasira","kumbuka,utepe,hasira,kumba",j,n,j,n,j,n,f,n,kumba,kumba,kumbuka,kumba,226,344,966,1203,1,1,0,0,0,0.5,0.6888888888888889,0.8
274,4,bed,mapintas,0,1,1,1,0.0,0.25,1.0,1.0,1.0,2166.0,3443.0,2647.0,3451.0,1885.1999999999532,1886.2000000001865,2101.600000000093,1410.2000000001865,"mapintas,kalipay,haraka,starehe","kalipay,mapintas,haraka,starehe","mapintas,kalipay,haraka,starehe","kalipay,haraka,mapintas,starehe",f,v,f,j,n,v,f,j,starehe,mapintas,mapintas,mapintas,202,542,948,1135,1,0.25,0.75,0.75,1,1.0,0.6888888888888889,0.8
