"rt","en_word","options","swa_word","correct_answer","phase","trial_type","trial_index","input_answer","input_word","accuracy","certainty","amt_choices"
"540","bonfire","goti,mwezi,mfuko,kusanya","goti","f","2","html-keyboard-response","106","f","goti","true","",""
"1105.8000001907349","","","","","2","html-slider-response","107","","","","4",""
"31","flower","bega,tamasha,lobo,usiku","bega","f","2","html-keyboard-response","108","f","bega","true","",""
"1143.2000000476837","","","","","2","html-slider-response","109","","","","4",""
"83","column","pundok,dila,ufagio,pala","ufagio","j","2","html-keyboard-response","110","f","pundok","false","",""
"1501.7999999523163","","","","","2","html-slider-response","111","","","","4",""
"42","music","baiski,mraba,mageho,tumbo","baiski","f","2","html-keyboard-response","112","f","baiski","true","",""
"1284.8999998569489","","","","","2","html-slider-response","113","","","","4",""
"54","spider","bunyag,mkboa,kamwe,atop","kamwe","j","2","html-keyboard-response","114","f","bunyag","false","",""
"1477.2999999523163","","","","","2","html-slider-response","115","","","","4",""
"40","fork","baboy,paghago,gorisi,mgonjwa","mgonjwa","n","2","html-keyboard-response","116","v","paghago","false","",""
"1307.2000000476837","","","","","2","html-slider-response","117","","","","4",""
"63","mosquito","isda,martilyo,taras,gutom","martilyo","v","2","html-keyboard-response","118","v","martilyo","true","",""
"1143.7000000476837","","","","","2","html-slider-response","119","","","","4",""
"29","banana","kazi,kasamok,hagdan,twai","kazi","f","2","html-keyboard-response","120","v","kasamok","false","",""
"1258.9000000953674","","","","","2","html-slider-response","121","","","","4",""
"53","cup","matumai,dagat,shimoni,jeraha","matumai","f","2","html-keyboard-response","122","v","dagat","false","",""
"1474.7000000476837","","","","","2","html-slider-response","123","","","","4",""
"53","shop","nopya,kerida,samaki,ndezu","samaki","j","2","html-keyboard-response","124","v","kerida","false","",""
"1315.4000000953674","","","","","2","html-slider-response","125","","","","4",""
"29","elephant","petye,kito,pagduol,suka","kito","v","2","html-keyboard-response","126","v","kito","true","",""
"1743.7999999523163","","","","","2","html-slider-response","127","","","","4",""
"13","bucket","kiatu,baga,ijayo,init","kiatu","f","2","html-keyboard-response","128","v","baga","false","",""
"1667.5","","","","","2","html-slider-response","129","","","","2",""
"559","book","mali,kuhesa,picha,mara","mali","f","2","html-keyboard-response","130","f","mali","true","",""
"1220.7999999523163","","","","","2","html-slider-response","131","","","","2",""
"88","mirror","rangi,sulagma,kanding,furaha","sulagma","v","2","html-keyboard-response","132","f","rangi","false","",""
"1249.2999999523163","","","","","2","html-slider-response","133","","","","2",""
"128","office","hazini,yatima,leso,kuna","leso","j","2","html-keyboard-response","134","f","hazini","false","",""
"2028.2999999523163","","","","","2","html-slider-response","135","","","","2",""
"112","body","tindashan,nyundu,jibini,kununa","tindashan","f","2","html-keyboard-response","136","f","tindashan","true","",""
"3018.7999999523163","","","","","2","html-slider-response","137","","","","2",""
"20","perfume","bino,sungura,katuyoan,ndogo","katuyoan","j","2","html-keyboard-response","138","f","bino","false","",""
"1655.6999998092651","","","","","2","html-slider-response","139","","","","4",""
"87","olive","bata,siagi,welder,jiwe","jiwe","n","2","html-keyboard-response","140","f","bata","false","",""
"1662.0999999046326","","","","","2","html-slider-response","141","","","","4",""
"64","magazine","gundi,mchawi,bahandi,kiti","kiti","n","2","html-keyboard-response","142","f","gundi","false","",""
"1502.7999999523163","","","","","2","html-slider-response","143","","","","4",""
"37","bread","kaili,dari,dizeli,bugas","dari","v","2","html-keyboard-response","144","f","kaili","false","",""
"3662.399999856949","","","","","2","html-slider-response","145","","","","4",""
"71","cave","ganti,maisha,nyundo,kesho","kesho","n","2","html-keyboard-response","146","f","ganti","false","",""
"1367.2999999523163","","","","","2","html-slider-response","147","","","","4",""
"7","ladder","mashua,mwanga,pangalan,kamba","pangalan","j","2","html-keyboard-response","148","f","mashua","false","",""
"1091.9000000953674","","","","","2","html-slider-response","149","","","","4",""
"26","human","tinapay,bado,kikapu,punguza","tinapay","f","2","html-keyboard-response","150","f","tinapay","true","",""
"1576.3000001907349","","","","","2","html-slider-response","151","","","","4",""
"21","clock","kartasi,mbwa,abang,osha","mbwa","v","2","html-keyboard-response","152","f","kartasi","false","",""
"2637","","","","","2","html-slider-response","153","","","","4",""
"33","shelf","bungtod,kadaot,pamahaw,awit","pamahaw","j","2","html-keyboard-response","154","f","bungtod","false","",""
"2273.699999809265","","","","","2","html-slider-response","155","","","","4",""
"70","salmon","mzungu,seri,sensilyo,baharia","sensilyo","j","2","html-keyboard-response","156","f","mzungu","false","",""
"2218.699999809265","","","","","2","html-slider-response","157","","","","4",""
"49","coffin","barua,kioo,tubag,hulma","kioo","v","2","html-keyboard-response","158","f","barua","false","",""
"1652.9000000953674","","","","","2","html-slider-response","159","","","","4",""
"144","notebook","msitu,kila,mdudu,kemia","kemia","n","2","html-keyboard-response","160","f","msitu","false","",""
"1073.9000000953674","","","","","2","html-slider-response","161","","","","4",""
"30","shoulder","kelele,ndaniya,mkuu,guruwe","mkuu","j","2","html-keyboard-response","162","f","kelele","false","",""
"1540.2000000476837","","","","","2","html-slider-response","163","","","","4",""
"34","park","tambok,pwani,ihalas,bunifu","bunifu","n","2","html-keyboard-response","164","f","tambok","false","",""
"1634.0999999046326","","","","","2","html-slider-response","165","","","","4",""
"164","number","shule,kengele,choori,mundamo","mundamo","n","2","html-keyboard-response","166","f","shule","false","",""
"1963.5","","","","","2","html-slider-response","167","","","","4",""
"417","apple","ukame,kisu,estante,edad","kisu","v","2","html-keyboard-response","168","f","ukame","false","",""
"1899.8999998569489","","","","","2","html-slider-response","169","","","","4",""
"161","letter","kifua,filimbi,chuma,uhuru","kifua","f","2","html-keyboard-response","170","f","kifua","true","",""
"1404.4000000953674","","","","","2","html-slider-response","171","","","","4",""
"88","eel","msumari,ishara,kunywa,kabuang","msumari","f","2","html-keyboard-response","172","f","msumari","true","",""
"1094.2000000476837","","","","","2","html-slider-response","173","","","","4",""
"91","cop","mechezo,bustani,jikoni,bakus","mechezo","f","2","html-keyboard-response","174","f","mechezo","true","",""
"1241.0999999046326","","","","","2","html-slider-response","175","","","","4",""
"54","wolf","lugha,kaburi,ndizi,mchuzi","lugha","f","2","html-keyboard-response","176","f","lugha","true","",""
"1209","","","","","2","html-slider-response","177","","","","4",""
"57","squirrel","mahugaw,ukweli,hofu,kichwa","hofu","j","2","html-keyboard-response","178","f","mahugaw","false","",""
"1362.3999998569489","","","","","2","html-slider-response","179","","","","4",""
"50","nose","gubat,sehemu,kopa,kidole","sehemu","v","2","html-keyboard-response","180","f","gubat","false","",""
"3153.9000000953674","","","","","2","html-slider-response","181","","","","4",""
"271","sock","ndoora,mamba,kimysa,mtirka","mamba","v","2","html-keyboard-response","182","f","ndoora","false","",""
"1691.5999999046326","","","","","2","html-slider-response","183","","","","4",""
"93","bank","kudhibi,tualya,ofisi,silingan","silingan","n","2","html-keyboard-response","184","f","kudhibi","false","",""
"2948.100000143051","","","","","2","html-slider-response","185","","","","4",""
"169","donkey","bloke,lalake,rombus,elfu","elfu","n","2","html-keyboard-response","186","n","elfu","true","",""
"2354.2999999523163","","","","","2","html-slider-response","187","","","","4",""
"72","poster","nchi,fedha,kasuko,madungog","madungog","n","2","html-keyboard-response","188","n","madungog","true","",""
"1666.7999999523163","","","","","2","html-slider-response","189","","","","4",""
"107","puppet","napulo,lamok,mazishi,godoro","mazishi","j","2","html-keyboard-response","190","n","godoro","false","",""
"1432.7999999523163","","","","","2","html-slider-response","191","","","","4",""
"43","hill","kushoto,kukimba,matumbo,sweta","matumbo","j","2","html-keyboard-response","192","n","sweta","false","",""
"1348","","","","","2","html-slider-response","193","","","","4",""
"30","tooth","kabalaka,kijiko,uadui,pahiyum","kabalaka","f","2","html-keyboard-response","194","n","pahiyum","false","",""
"1137","","","","","2","html-slider-response","195","","","","4",""
"28","woman","bandari,pagtabon,bituin,kovuli","pagtabon","v","2","html-keyboard-response","196","n","kovuli","false","",""
"1279","","","","","2","html-slider-response","197","","","","4",""
"20","wheel","bafuni,punda,tawo,baadaye","bafuni","f","2","html-keyboard-response","198","n","baadaye","false","",""
"1335.2000000476837","","","","","2","html-slider-response","199","","","","4",""
"28","mother","kahawa,mbuzi,jokofu,babaye","babaye","n","2","html-keyboard-response","200","n","babaye","true","",""
"1563.9000000953674","","","","","2","html-slider-response","201","","","","4",""
"74","bed","kalipay,haraka,starehe,mapintas","mapintas","n","2","html-keyboard-response","202","n","mapintas","true","",""
"1323.7999999523163","","","","","2","html-slider-response","203","","","","4",""
"65","key","miaka,chombo,goma,ahos","chombo","v","2","html-keyboard-response","204","n","ahos","false","",""
"1032.9000000953674","","","","","2","html-slider-response","205","","","","4",""
"33","page","wakala,ishiri,wimbo,skina","wimbo","j","2","html-keyboard-response","206","n","skina","false","",""
"1350.7000000476837","","","","","2","html-slider-response","207","","","","4",""
"9","pants","pintal,haki,chuki,hari","haki","v","2","html-keyboard-response","208","n","hari","false","",""
"1992.7000000476837","","","","","2","html-slider-response","209","","","","4",""
"142","sun","bendi,basi,luha,uongo","basi","v","2","html-keyboard-response","210","n","uongo","false","",""
"1681.8000001907349","","","","","2","html-slider-response","211","","","","4",""
"272","finger","moyo,simu,sufuria,lima","moyo","f","2","html-keyboard-response","212","n","lima","false","",""
"1438.5999999046326","","","","","2","html-slider-response","213","","","","4",""
"45","shoe","nyeusi,uyoga,hatua,kama","uyoga","v","2","html-keyboard-response","214","n","kama","false","",""
"1645","","","","","2","html-slider-response","215","","","","4",""
"40","giraffe","daraja,jumatu,hangyo,mahitabo","mahitabo","n","2","html-keyboard-response","216","n","mahitabo","true","",""
"3162.7000000476837","","","","","2","html-slider-response","217","","","","2",""
"64","dog","lubi,washia,kalamu,bahari","bahari","n","2","html-keyboard-response","218","n","bahari","true","",""
"2401","","","","","2","html-slider-response","219","","","","4",""
"363","box","kuacha,rafiki,adui,kitande","adui","j","2","html-keyboard-response","220","j","adui","true","",""
"1005","","","","","2","html-slider-response","221","","","","4",""
"62","scissors","duga,mtawa,tanuri,suga","tanuri","j","2","html-keyboard-response","222","j","tanuri","true","",""
"1216.0999999046326","","","","","2","html-slider-response","223","","","","4",""
"55","cat","neyemba,paghukom,baki,akili","paghukom","v","2","html-keyboard-response","224","j","baki","false","",""
"1459.7000000476837","","","","","2","html-slider-response","225","","","","4",""
"7","basket","kumbuka,utepe,kumba,hasira","kumba","j","2","html-keyboard-response","226","j","kumba","true","",""
"2210.9000000953674","","","","","2","html-slider-response","227","","","","4",""
"173","snake","pagtukod,jansa,karon,mvringo","pagtukod","f","2","html-keyboard-response","228","j","karon","false","",""
"1231.2000000476837","","","","","2","html-slider-response","229","","","","4",""
"40","gift","baba,nyange,pagtawag,baso","pagtawag","j","2","html-keyboard-response","230","j","pagtawag","true","",""
"1518.5","","","","","2","html-slider-response","231","","","","4",""
"97","train","itik,dakika,mungu,sayari","sayari","n","2","html-keyboard-response","232","j","mungu","false","",""
"2569.4000000953674","","","","","2","html-slider-response","233","","","","4",""
"342","pudding","aibu,abug,mpishi,iring","aibu","f","2","html-keyboard-response","234","j","mpishi","false","",""
"1334.8999998569489","","","","","2","html-slider-response","235","","","","4",""
"30","tomato","chupi,mvua,chupa,takatak","mvua","v","2","html-keyboard-response","236","j","chupa","false","",""
"1521.4000000953674","","","","","2","html-slider-response","237","","","","4",""
"51","stone","wingi,ulimwengu,mkasi,asili","wingi","f","2","html-keyboard-response","238","j","mkasi","false","",""
"1408.2999999523163","","","","","2","html-slider-response","239","","","","4",""
"85","hammer","mekno,napakyas,kitovu,layag","napakyas","v","2","html-keyboard-response","240","j","kitovu","false","",""
"1471.8999998569489","","","","","2","html-slider-response","241","","","","4",""
"46","knee","duka,mvuke,kubale,bili","duka","f","2","html-keyboard-response","242","j","kubale","false","",""
"2039.7999999523163","","","","","2","html-slider-response","243","","","","4",""
"55","ceiling","maua,kugita,kawaida,rayna","maua","f","2","html-keyboard-response","244","j","kawaida","false","",""
"1256.3000001907349","","","","","2","html-slider-response","245","","","","4",""
"24","spoon","betri,pagsulod,nzuri,ngazi","pagsulod","v","2","html-keyboard-response","246","j","nzuri","false","",""
"1504","","","","","2","html-slider-response","247","","","","4",""
"29","marker","mapafu,salita,atay,maji","maji","n","2","html-keyboard-response","248","j","atay","false","",""
"1312.7999999523163","","","","","2","html-slider-response","249","","","","4",""
"70","candle","gabi,farasi,geza,kupanda","geza","j","2","html-keyboard-response","250","j","geza","true","",""
"1968.6000001430511","","","","","2","html-slider-response","251","","","","4",""
"24","tissue","lamigas,kisiwa,ugomvi,katika","ugomvi","j","2","html-keyboard-response","252","f","lamigas","false","",""
"1131.7999999523163","","","","","2","html-slider-response","253","","","","4",""
"51","bridge","daima,ngono,panya,sahani","sahani","n","2","html-keyboard-response","254","f","daima","false","",""
"1232.2000000476837","","","","","2","html-slider-response","255","","","","4",""
"52","berry","kofia,abogado,nogozi,kinywa","kofia","f","2","html-keyboard-response","256","f","kofia","true","",""
"1315.5","","","","","2","html-slider-response","257","","","","4",""
"46","triangle","kihozi,bentaha,kasadpan,liog","kasadpan","j","2","html-keyboard-response","258","f","kihozi","false","",""
"1871.5","","","","","2","html-slider-response","259","","","","2",""
"123","door","tena,soko,surali,nyota","surali","j","2","html-keyboard-response","260","f","tena","false","",""
"1492.5","","","","","2","html-slider-response","261","","","","2",""
"45","fish","buli,bala,baho,imani","buli","f","2","html-keyboard-response","262","f","buli","true","",""
"1151.2000000476837","","","","","2","html-slider-response","263","","","","2",""
"71","curtain","mchanga,lisud,bulwawan,chubani","mchanga","f","2","html-keyboard-response","264","f","mchanga","true","",""
"1431.7999999523163","","","","","2","html-slider-response","265","","","","2",""
"179","flag","ndege,trekta,mkate,kawa","trekta","v","2","html-keyboard-response","266","f","ndege","false","",""
"3175.7999999523163","","","","","2","html-slider-response","267","","","","2",""
"289","boat","hamsi,agalon,pombe,kitanda","agalon","v","2","html-keyboard-response","268","v","agalon","true","",""
"1347.5999999046326","","","","","2","html-slider-response","269","","","","2",""
"92","rose","singizi,paghalad,mwanake,amani","paghalad","v","2","html-keyboard-response","270","v","paghalad","true","",""
"1538","","","","","2","html-slider-response","271","","","","2",""
"47","lamp","afya,daub,bilaska,mbolea","afya","f","2","html-keyboard-response","272","v","daub","false","",""
"1677.7000000476837","","","","","2","html-slider-response","273","","","","2",""
"89","cigar","ndugu,kuta,mlango,adhabu","adhabu","n","2","html-keyboard-response","274","v","kuta","false","",""
"1681.4000000953674","","","","","2","html-slider-response","275","","","","2",""
"41","list","wingu,alizeti,kuzama,kaso","wingu","f","2","html-keyboard-response","276","v","alizeti","false","",""
"1575.3000001907349","","","","","2","html-slider-response","277","","","","2",""
"7","sheet","juuya,bililhon,watu,kamantis","bililhon","v","2","html-keyboard-response","278","v","bililhon","true","",""
"1261.5999999046326","","","","","2","html-slider-response","279","","","","2",""
"36","picture","silya,kubwa,chaki,asin","kubwa","v","2","html-keyboard-response","280","v","kubwa","true","",""
"1307","","","","","2","html-slider-response","281","","","","2",""
"30","towel","pagpalit,tembo,funzi,pito","pagpalit","f","2","html-keyboard-response","282","v","tembo","false","",""
"1495","","","","","2","html-slider-response","283","","","","2",""
"42","window","nanga,kweli,kujenga,umaga","kweli","v","2","html-keyboard-response","284","v","kweli","true","",""
"1611.2000000476837","","","","","2","html-slider-response","285","","","","2",""
"767","box","kuacha,rafiki,adui,kitande","adui","j","3","html-keyboard-response","293","v","rafiki","false","","4"
"1655.5999999046326","","","","","3","html-slider-response","294","","","","2",""
"79","","","","","3","html-keyboard-response","295","","","","",""
"821","pants","pintal,haki,chuki,hari","haki","v","3","html-keyboard-response","296","v","haki","true","","4"
"977","","","","","3","html-slider-response","297","","","","2",""
"101","","","","","3","html-keyboard-response","298","","","","",""
"742","cup","dagat,shimoni,jeraha,matumai","matumai","n","3","html-keyboard-response","299","v","shimoni","false","","4"
"1076.5","","","","","3","html-slider-response","300","","","","2",""
"24","","","","","3","html-keyboard-response","301","","","","",""
"784","triangle","kasadpan,kihozi,bentaha,liog","kasadpan","f","3","html-keyboard-response","302","v","kihozi","false","","4"
"1068.0999999046326","","","","","3","html-slider-response","303","","","","2",""
"59","","","","","3","html-keyboard-response","304","","","","",""
"780","curtain","mchanga,lisud,bulwawan,chubani","mchanga","f","3","html-keyboard-response","305","v","lisud","false","","4"
"1164.4000000953674","","","","","3","html-slider-response","306","","","","2",""
"114","","","","","3","html-keyboard-response","307","","","","",""
"176","clock","kartasi,mbwa,abang,osha","mbwa","v","3","html-keyboard-response","308","v","mbwa","true","","4"
"1196.5","","","","","3","html-slider-response","309","","","","2",""
"24","","","","","3","html-keyboard-response","310","","","","",""
"198","mirror","rangi,sulagma,kanding,furaha","sulagma","v","3","html-keyboard-response","311","v","sulagma","true","","4"
"1080.2999999523163","","","","","3","html-slider-response","312","","","","2",""
"8","","","","","3","html-keyboard-response","313","","","","",""
"176","coffin","barua,kioo,tubag,hulma","kioo","v","3","html-keyboard-response","314","v","kioo","true","","1"
"1269.2000000476837","","","","","3","html-slider-response","315","","","","2",""
"87","","","","","3","html-keyboard-response","316","","","","",""
"183","magazine","kiti,gundi,mchawi,bahandi","kiti","f","3","html-keyboard-response","317","v","gundi","false","","4"
"1106.2999999523163","","","","","3","html-slider-response","318","","","","2",""
"25","","","","","3","html-keyboard-response","319","","","","",""
"1005","column","pundok,dila,ufagio,pala","ufagio","j","3","html-keyboard-response","320","j","ufagio","true","","1"
"1364.7000000476837","","","","","3","html-slider-response","321","","","","2",""
"72","","","","","3","html-keyboard-response","322","","","","",""
"197","number","shule,kengele,choori,mundamo","mundamo","n","3","html-keyboard-response","323","v","kengele","false","","4"
"1372","","","","","3","html-slider-response","324","","","","2",""
"204","","","","","3","html-keyboard-response","325","","","","",""
"187","rose","singizi,mwanake,paghalad,amani","paghalad","j","3","html-keyboard-response","326","f","singizi","false","","4"
"1137.5999999046326","","","","","3","html-slider-response","327","","","","2",""
"119","","","","","3","html-keyboard-response","328","","","","",""
"193","eel","ishara,kunywa,msumari,kabuang","msumari","j","3","html-keyboard-response","329","f","ishara","false","","4"
"1203.5","","","","","3","html-slider-response","330","","","","2",""
"144","","","","","3","html-keyboard-response","331","","","","",""
"175","gift","pagtawag,baba,nyange,baso","pagtawag","f","3","html-keyboard-response","332","f","pagtawag","true","","4"
"1065.3999998569489","","","","","3","html-slider-response","333","","","","2",""
"15","","","","","3","html-keyboard-response","334","","","","",""
"805","apple","ukame,kisu,estante,edad","kisu","v","3","html-keyboard-response","335","v","kisu","true","","1"
"1706","","","","","3","html-slider-response","336","","","","2",""
"87","","","","","3","html-keyboard-response","337","","","","",""
"1027","wheel","punda,tawo,baadaye,bafuni","bafuni","n","3","html-keyboard-response","338","n","bafuni","true","","1"
"1360.6999998092651","","","","","3","html-slider-response","339","","","","4",""
"89","","","","","3","html-keyboard-response","340","","","","",""
"231","knee","duka,mvuke,kubale,bili","duka","f","3","html-keyboard-response","341","n","bili","false","","4"
"1777.2999999523163","","","","","3","html-slider-response","342","","","","4",""
"110","","","","","3","html-keyboard-response","343","","","","",""
"307","basket","kumbuka,utepe,hasira,kumba","kumba","n","3","html-keyboard-response","344","n","kumba","true","","1"
"1404.9000000953674","","","","","3","html-slider-response","345","","","","4",""
"53","","","","","3","html-keyboard-response","346","","","","",""
"166","park","tambok,bunifu,pwani,ihalas","bunifu","v","3","html-keyboard-response","347","n","ihalas","false","","4"
"1229.7000000476837","","","","","3","html-slider-response","348","","","","4",""
"7","","","","","3","html-keyboard-response","349","","","","",""
"200","finger","simu,moyo,sufuria,lima","moyo","v","3","html-keyboard-response","350","n","lima","false","","4"
"2054.2000000476837","","","","","3","html-slider-response","351","","","","4",""
"40","","","","","3","html-keyboard-response","352","","","","",""
"181","boat","hamsi,agalon,pombe,kitanda","agalon","v","3","html-keyboard-response","353","n","kitanda","false","","4"
"1414.2999999523163","","","","","3","html-slider-response","354","","","","4",""
"107","","","","","3","html-keyboard-response","355","","","","",""
"202","hill","matumbo,kushoto,kukimba,sweta","matumbo","f","3","html-keyboard-response","356","n","sweta","false","","4"
"1283.5","","","","","3","html-slider-response","357","","","","4",""
"72","","","","","3","html-keyboard-response","358","","","","",""
"154","train","itik,sayari,dakika,mungu","sayari","v","3","html-keyboard-response","359","n","mungu","false","","4"
"1172.4000000953674","","","","","3","html-slider-response","360","","","","4",""
"13","","","","","3","html-keyboard-response","361","","","","",""
"160","wolf","kaburi,ndizi,mchuzi,lugha","lugha","n","3","html-keyboard-response","362","n","lugha","true","","4"
"1005.5999999046326","","","","","3","html-slider-response","363","","","","4",""
"11","","","","","3","html-keyboard-response","364","","","","",""
"163","snake","jansa,karon,pagtukod,mvringo","pagtukod","j","3","html-keyboard-response","365","n","mvringo","false","","4"
"1464.4000000953674","","","","","3","html-slider-response","366","","","","4",""
"69","","","","","3","html-keyboard-response","367","","","","",""
"167","tooth","kijiko,kabalaka,uadui,pahiyum","kabalaka","v","3","html-keyboard-response","368","n","pahiyum","false","","4"
"1018.8999998569489","","","","","3","html-slider-response","369","","","","4",""
"45","","","","","3","html-keyboard-response","370","","","","",""
"187","notebook","kemia,msitu,kila,mdudu","kemia","f","3","html-keyboard-response","371","n","mdudu","false","","4"
"1018.6999998092651","","","","","3","html-slider-response","372","","","","4",""
"29","","","","","3","html-keyboard-response","373","","","","",""
"174","flag","ndege,mkate,trekta,kawa","trekta","j","3","html-keyboard-response","374","n","kawa","false","","4"
"1130.7999999523163","","","","","3","html-slider-response","375","","","","4",""
"68","","","","","3","html-keyboard-response","376","","","","",""
"204","squirrel","mahugaw,hofu,ukweli,kichwa","hofu","v","3","html-keyboard-response","377","n","kichwa","false","","4"
"1368.6000001430511","","","","","3","html-slider-response","378","","","","4",""
"65","","","","","3","html-keyboard-response","379","","","","",""
"177","door","tena,soko,surali,nyota","surali","j","3","html-keyboard-response","380","n","nyota","false","","4"
"1374.7000000476837","","","","","3","html-slider-response","381","","","","4",""
"65","","","","","3","html-keyboard-response","382","","","","",""
"207","salmon","mzungu,sensilyo,seri,baharia","sensilyo","v","3","html-keyboard-response","383","n","baharia","false","","4"
"1316.2000000476837","","","","","3","html-slider-response","384","","","","4",""
"122","","","","","3","html-keyboard-response","385","","","","",""
"231","shoulder","kelele,ndaniya,mkuu,guruwe","mkuu","j","3","html-keyboard-response","386","n","guruwe","false","","4"
"1826.2999999523163","","","","","3","html-slider-response","387","","","","4",""
"238","","","","","3","html-keyboard-response","388","","","","",""
"330","lamp","daub,bilaska,mbolea,afya","afya","n","3","html-keyboard-response","389","n","afya","true","","4"
"1203","","","","","3","html-slider-response","390","","","","4",""
"96","","","","","3","html-keyboard-response","391","","","","",""
"1194","shelf","bungtod,pamahaw,kadaot,awit","pamahaw","v","3","html-keyboard-response","392","v","pamahaw","true","","1"
"4154.699999809265","","","","","3","html-slider-response","393","","","","4",""
"115","","","","","3","html-keyboard-response","394","","","","",""
"181","human","bado,kikapu,tinapay,punguza","tinapay","j","3","html-keyboard-response","395","v","kikapu","false","","4"
"1314.3999998569489","","","","","3","html-slider-response","396","","","","4",""
"49","","","","","3","html-keyboard-response","397","","","","",""
"194","towel","tembo,funzi,pito,pagpalit","pagpalit","n","3","html-keyboard-response","398","v","funzi","false","","4"
"1740","","","","","3","html-slider-response","399","","","","4",""
"37","","","","","3","html-keyboard-response","400","","","","",""
"191","cat","neyemba,baki,akili,paghukom","paghukom","n","3","html-keyboard-response","401","v","baki","false","","4"
"1375.5999999046326","","","","","3","html-slider-response","402","","","","2",""
"43","","","","","3","html-keyboard-response","403","","","","",""
"225","spider","bunyag,mkboa,atop,kamwe","kamwe","n","3","html-keyboard-response","404","v","mkboa","false","","4"
"1061.7999999523163","","","","","3","html-slider-response","405","","","","2",""
"173","","","","","3","html-keyboard-response","406","","","","",""
"194","window","nanga,kujenga,umaga,kweli","kweli","n","3","html-keyboard-response","407","v","kujenga","false","","4"
"1207.5999999046326","","","","","3","html-slider-response","408","","","","2",""
"70","","","","","3","html-keyboard-response","409","","","","",""
"891","woman","bandari,bituin,kovuli,pagtabon","pagtabon","n","3","html-keyboard-response","410","n","pagtabon","true","","1"
"3472.9000000953674","","","","","3","html-slider-response","411","","","","2",""
"66","","","","","3","html-keyboard-response","412","","","","",""
"135","giraffe","daraja,jumatu,mahitabo,hangyo","mahitabo","j","3","html-keyboard-response","413","v","jumatu","false","","4"
"1875.2000000476837","","","","","3","html-slider-response","414","","","","2",""
"36","","","","","3","html-keyboard-response","415","","","","",""
"197","elephant","kito,petye,pagduol,suka","kito","f","3","html-keyboard-response","416","v","petye","false","","4"
"3205.4000000953674","","","","","3","html-slider-response","417","","","","2",""
"67","","","","","3","html-keyboard-response","418","","","","",""
"195","cave","kesho,ganti,maisha,nyundo","kesho","f","3","html-keyboard-response","419","v","ganti","false","","4"
"2121.5","","","","","3","html-slider-response","420","","","","2",""
"28","","","","","3","html-keyboard-response","421","","","","",""
"184","bread","dari,kaili,dizeli,bugas","dari","f","3","html-keyboard-response","422","v","kaili","false","","4"
"1170.2999999523163","","","","","3","html-slider-response","423","","","","2",""
"33","","","","","3","html-keyboard-response","424","","","","",""
"173","stone","wingi,ulimwengu,mkasi,asili","wingi","f","3","html-keyboard-response","425","v","ulimwengu","false","","4"
"1163.4000000953674","","","","","3","html-slider-response","426","","","","2",""
"28","","","","","3","html-keyboard-response","427","","","","",""
"195","donkey","bloke,elfu,lalake,rombus","elfu","v","3","html-keyboard-response","428","v","elfu","true","","4"
"1415","","","","","3","html-slider-response","429","","","","2",""
"22","","","","","3","html-keyboard-response","430","","","","",""
"214","bridge","daima,ngono,sahani,panya","sahani","j","3","html-keyboard-response","431","v","ngono","false","","4"
"1575.2000000476837","","","","","3","html-slider-response","432","","","","2",""
"56","","","","","3","html-keyboard-response","433","","","","",""
"209","bonfire","goti,mwezi,mfuko,kusanya","goti","f","3","html-keyboard-response","434","v","mwezi","false","","4"
"1255.5","","","","","3","html-slider-response","435","","","","2",""
"62","","","","","3","html-keyboard-response","436","","","","",""
"179","book","kuhesa,picha,mali,mara","mali","j","3","html-keyboard-response","437","v","picha","false","","4"
"1462.0999999046326","","","","","3","html-slider-response","438","","","","2",""
"68","","","","","3","html-keyboard-response","439","","","","",""
"138","fish","buli,bala,baho,imani","buli","f","3","html-keyboard-response","440","v","bala","false","","4"
"1913.1000001430511","","","","","3","html-slider-response","441","","","","2",""
"42","","","","","3","html-keyboard-response","442","","","","",""
"209","spoon","betri,nzuri,pagsulod,ngazi","pagsulod","j","3","html-keyboard-response","443","v","nzuri","false","","4"
"1653.8999998569489","","","","","3","html-slider-response","444","","","","2",""
"109","","","","","3","html-keyboard-response","445","","","","",""
"193","scissors","tanuri,duga,mtawa,suga","tanuri","f","3","html-keyboard-response","446","v","duga","false","","4"
"4940.900000095367","","","","","3","html-slider-response","447","","","","2",""
"166","","","","","3","html-keyboard-response","448","","","","",""
"176","page","wakala,ishiri,wimbo,skina","wimbo","j","3","html-keyboard-response","449","v","ishiri","false","","4"
"1316.7999999523163","","","","","3","html-slider-response","450","","","","2",""
"10","","","","","3","html-keyboard-response","451","","","","",""
"997","nose","sehemu,gubat,kopa,kidole","sehemu","f","3","html-keyboard-response","452","f","sehemu","true","","1"
"1309.2999999523163","","","","","3","html-slider-response","453","","","","2",""
"50","","","","","3","html-keyboard-response","454","","","","",""
"168","ceiling","kugita,kawaida,maua,rayna","maua","j","3","html-keyboard-response","455","f","kugita","false","","4"
"1228.5999999046326","","","","","3","html-slider-response","456","","","","2",""
"49","","","","","3","html-keyboard-response","457","","","","",""
"155","bucket","baga,ijayo,kiatu,init","kiatu","j","3","html-keyboard-response","458","f","baga","false","","4"
"1365.2999999523163","","","","","3","html-slider-response","459","","","","2",""
"12","","","","","3","html-keyboard-response","460","","","","",""
"1002","berry","abogado,nogozi,kinywa,kofia","kofia","n","3","html-keyboard-response","461","n","kofia","true","","1"
"1532.4000000953674","","","","","3","html-slider-response","462","","","","2",""
"114","","","","","3","html-keyboard-response","463","","","","",""
"649","mother","kahawa,babaye,mbuzi,jokofu","babaye","v","3","html-keyboard-response","464","v","babaye","true","","1"
"1218.9000000953674","","","","","3","html-slider-response","465","","","","2",""
"223","","","","","3","html-keyboard-response","466","","","","",""
"593","mosquito","martilyo,isda,taras,gutom","martilyo","f","3","html-keyboard-response","467","f","martilyo","true","","4"
"1081.1999998092651","","","","","3","html-slider-response","468","","","","2",""
"85","","","","","3","html-keyboard-response","469","","","","",""
"184","perfume","bino,sungura,katuyoan,ndogo","katuyoan","j","3","html-keyboard-response","470","f","bino","false","","4"
"2353","","","","","3","html-slider-response","471","","","","2",""
"54","","","","","3","html-keyboard-response","472","","","","",""
"174","sheet","juuya,bililhon,watu,kamantis","bililhon","v","3","html-keyboard-response","473","f","juuya","false","","4"
"1090.1999998092651","","","","","3","html-slider-response","474","","","","2",""
"114","","","","","3","html-keyboard-response","475","","","","",""
"841","puppet","napulo,lamok,mazishi,godoro","mazishi","j","3","html-keyboard-response","476","j","mazishi","true","","1"
"1482.5999999046326","","","","","3","html-slider-response","477","","","","2",""
"389","","","","","3","html-keyboard-response","478","","","","",""
"589","poster","nchi,fedha,madungog,kasuko","madungog","j","3","html-keyboard-response","479","f","nchi","false","","4"
"2550.600000143051","","","","","3","html-slider-response","480","","","","2",""
"106","","","","","3","html-keyboard-response","481","","","","",""
"215","music","mraba,baiski,mageho,tumbo","baiski","v","3","html-keyboard-response","482","f","mraba","false","","4"
"1240.9000000953674","","","","","3","html-slider-response","483","","","","2",""
"66","","","","","3","html-keyboard-response","484","","","","",""
"179","key","chombo,miaka,goma,ahos","chombo","f","3","html-keyboard-response","485","f","chombo","true","","4"
"1305.2999999523163","","","","","3","html-slider-response","486","","","","2",""
"99","","","","","3","html-keyboard-response","487","","","","",""
"173","sock","ndoora,kimysa,mamba,mtirka","mamba","j","3","html-keyboard-response","488","f","ndoora","false","","4"
"1475.1999998092651","","","","","3","html-slider-response","489","","","","2",""
"88","","","","","3","html-keyboard-response","490","","","","",""
"187","marker","mapafu,maji,salita,atay","maji","v","3","html-keyboard-response","491","f","mapafu","false","","4"
"1119","","","","","3","html-slider-response","492","","","","2",""
"44","","","","","3","html-keyboard-response","493","","","","",""
"188","office","leso,hazini,yatima,kuna","leso","f","3","html-keyboard-response","494","f","leso","true","","4"
"2045.5","","","","","3","html-slider-response","495","","","","2",""
"122","","","","","3","html-keyboard-response","496","","","","",""
"283","shoe","nyeusi,hatua,uyoga,kama","uyoga","j","3","html-keyboard-response","497","v","hatua","false","","4"
"1517.7999999523163","","","","","3","html-slider-response","498","","","","2",""
"39","","","","","3","html-keyboard-response","499","","","","",""
"159","cop","bustani,jikoni,bakus,mechezo","mechezo","n","3","html-keyboard-response","500","v","jikoni","false","","4"
"1173.9000000953674","","","","","3","html-slider-response","501","","","","2",""
"48","","","","","3","html-keyboard-response","502","","","","",""
"179","bank","kudhibi,silingan,tualya,ofisi","silingan","v","3","html-keyboard-response","503","v","silingan","true","","4"
"1568.7000000476837","","","","","3","html-slider-response","504","","","","2",""
"75","","","","","3","html-keyboard-response","505","","","","",""
"811","letter","filimbi,chuma,kifua,uhuru","kifua","j","3","html-keyboard-response","506","j","kifua","true","","1"
"1395.4000000953674","","","","","3","html-slider-response","507","","","","2",""
"527","","","","","3","html-keyboard-response","508","","","","",""
"219","dog","lubi,bahari,washia,kalamu","bahari","v","3","html-keyboard-response","509","v","bahari","true","","1"
"1302.5","","","","","3","html-slider-response","510","","","","2",""
"89","","","","","3","html-keyboard-response","511","","","","",""
"184","shop","nopya,kerida,samaki,ndezu","samaki","j","3","html-keyboard-response","512","v","kerida","false","","4"
"1668.7999999523163","","","","","3","html-slider-response","513","","","","2",""
"49","","","","","3","html-keyboard-response","514","","","","",""
"182","flower","tamasha,lobo,bega,usiku","bega","j","3","html-keyboard-response","515","v","lobo","false","","4"
"1248.1000001430511","","","","","3","html-slider-response","516","","","","2",""
"92","","","","","3","html-keyboard-response","517","","","","",""
"907","cigar","ndugu,kuta,adhabu,mlango","adhabu","j","3","html-keyboard-response","518","j","adhabu","true","","1"
"1148.7999999523163","","","","","3","html-slider-response","519","","","","4",""
"249","","","","","3","html-keyboard-response","520","","","","",""
"187","hammer","mekno,napakyas,kitovu,layag","napakyas","v","3","html-keyboard-response","521","v","napakyas","true","","4"
"1479.5","","","","","3","html-slider-response","522","","","","4",""
"50","","","","","3","html-keyboard-response","523","","","","",""
"165","fork","baboy,paghago,gorisi,mgonjwa","mgonjwa","n","3","html-keyboard-response","524","v","paghago","false","","4"
"1254.5","","","","","3","html-slider-response","525","","","","2",""
"385","","","","","3","html-keyboard-response","526","","","","",""
"201","sun","bendi,basi,luha,uongo","basi","v","3","html-keyboard-response","527","v","basi","true","","1"
"1360.7000000476837","","","","","3","html-slider-response","528","","","","2",""
"327","","","","","3","html-keyboard-response","529","","","","",""
"200","ladder","mashua,pangalan,mwanga,kamba","pangalan","v","3","html-keyboard-response","530","v","pangalan","true","","4"
"1996.2000000476837","","","","","3","html-slider-response","531","","","","2",""
"28","","","","","3","html-keyboard-response","532","","","","",""
"893","banana","kasamok,hagdan,kazi,twai","kazi","j","3","html-keyboard-response","533","j","kazi","true","","1"
"1262.7999999523163","","","","","3","html-slider-response","534","","","","2",""
"17","","","","","3","html-keyboard-response","535","","","","",""
"188","pudding","abug,mpishi,aibu,iring","aibu","j","3","html-keyboard-response","536","v","mpishi","false","","4"
"2375.2999999523163","","","","","3","html-slider-response","537","","","","2",""
"101","","","","","3","html-keyboard-response","538","","","","",""
"173","body","nyundu,jibini,tindashan,kununa","tindashan","j","3","html-keyboard-response","539","v","jibini","false","","4"
"1444.7999999523163","","","","","3","html-slider-response","540","","","","2",""
"62","","","","","3","html-keyboard-response","541","","","","",""
"189","bed","kalipay,haraka,mapintas,starehe","mapintas","j","3","html-keyboard-response","542","v","haraka","false","","4"
"2151.600000143051","","","","","3","html-slider-response","543","","","","2",""
"444","","","","","3","html-keyboard-response","544","","","","",""
"206","tissue","lamigas,kisiwa,katika,ugomvi","ugomvi","n","3","html-keyboard-response","545","v","kisiwa","false","","4"
"1415.2000000476837","","","","","3","html-slider-response","546","","","","2",""
"21","","","","","3","html-keyboard-response","547","","","","",""
"180","candle","gabi,farasi,kupanda,geza","geza","n","3","html-keyboard-response","548","v","farasi","false","","4"
"1761.7000000476837","","","","","3","html-slider-response","549","","","","2",""
"131","","","","","3","html-keyboard-response","550","","","","",""
"724","tomato","mvua,chupi,chupa,takatak","mvua","f","3","html-keyboard-response","551","f","mvua","true","","1"
"1660.9000000953674","","","","","3","html-slider-response","552","","","","2",""
"89","","","","","3","html-keyboard-response","553","","","","",""
"198","list","alizeti,wingu,kuzama,kaso","wingu","v","3","html-keyboard-response","554","f","alizeti","false","","4"
"1298.5","","","","","3","html-slider-response","555","","","","2",""
"19","","","","","3","html-keyboard-response","556","","","","",""
"181","olive","bata,jiwe,siagi,welder","jiwe","v","3","html-keyboard-response","557","f","bata","false","","4"
"2272.800000190735","","","","","3","html-slider-response","558","","","","2",""
"95","","","","","3","html-keyboard-response","559","","","","",""
"185","picture","kubwa,silya,chaki,asin","kubwa","f","3","html-keyboard-response","560","f","kubwa","true","","1"
"2670.5","","","","","3","html-slider-response","561","","","","2",""
"49","","","","","3","html-keyboard-response","562","","","","",""
"1303","page","wakala,ishiri,skina,wimbo","wimbo","n","4","html-keyboard-response","888","f","wakala","false","",""
"1638.4000000953674","","","","","4","html-slider-response","889","","","","4",""
"31","sheet","juuya,watu,kamantis,bililhon","bililhon","n","4","html-keyboard-response","890","f","juuya","false","",""
"1693.2000000476837","","","","","4","html-slider-response","891","","","","4",""
"7","ladder","mashua,mwanga,kamba,pangalan","pangalan","n","4","html-keyboard-response","892","f","mashua","false","",""
"1352","","","","","4","html-slider-response","893","","","","4",""
"33","door","tena,soko,nyota,surali","surali","n","4","html-keyboard-response","894","f","tena","false","",""
"1336.4000000953674","","","","","4","html-slider-response","895","","","","4",""
"484","spider","bunyag,kamwe,mkboa,atop","kamwe","v","4","html-keyboard-response","896","f","bunyag","false","",""
"1214.9000000953674","","","","","4","html-slider-response","897","","","","4",""
"7","picture","silya,chaki,asin,kubwa","kubwa","n","4","html-keyboard-response","898","f","silya","false","",""
"2404.5","","","","","4","html-slider-response","899","","","","4",""
"278","boat","hamsi,agalon,pombe,kitanda","agalon","v","4","html-keyboard-response","900","f","hamsi","false","",""
"3144.9000000953674","","","","","4","html-slider-response","901","","","","2",""
"118","donkey","bloke,elfu,lalake,rombus","elfu","v","4","html-keyboard-response","902","f","bloke","false","",""
"1260.1999998092651","","","","","4","html-slider-response","903","","","","2",""
"14","book","kuhesa,mali,picha,mara","mali","v","4","html-keyboard-response","904","f","kuhesa","false","",""
"1295.2999999523163","","","","","4","html-slider-response","905","","","","2",""
"35","cup","dagat,shimoni,matumai,jeraha","matumai","j","4","html-keyboard-response","906","f","dagat","false","",""
"1861.7999999523163","","","","","4","html-slider-response","907","","","","2",""
"52","sun","basi,bendi,luha,uongo","basi","f","4","html-keyboard-response","908","f","basi","true","",""
"1276.2999999523163","","","","","4","html-slider-response","909","","","","2",""
"231","pudding","abug,mpishi,aibu,iring","aibu","j","4","html-keyboard-response","910","f","abug","false","",""
"2672","","","","","4","html-slider-response","911","","","","2",""
"234","human","bado,kikapu,tinapay,punguza","tinapay","j","4","html-keyboard-response","912","f","bado","false","",""
"1243.2000000476837","","","","","4","html-slider-response","913","","","","2",""
"44","squirrel","mahugaw,ukweli,kichwa,hofu","hofu","n","4","html-keyboard-response","914","f","mahugaw","false","",""
"1298.4000000953674","","","","","4","html-slider-response","915","","","","2",""
"137","park","bunifu,tambok,pwani,ihalas","bunifu","f","4","html-keyboard-response","916","f","bunifu","true","",""
"1330.8000001907349","","","","","4","html-slider-response","917","","","","2",""
"86","poster","nchi,fedha,madungog,kasuko","madungog","j","4","html-keyboard-response","918","f","nchi","false","",""
"1048","","","","","4","html-slider-response","919","","","","2",""
"90","wolf","kaburi,lugha,ndizi,mchuzi","lugha","v","4","html-keyboard-response","920","f","kaburi","false","",""
"1305.7999999523163","","","","","4","html-slider-response","921","","","","2",""
"121","cat","neyemba,baki,akili,paghukom","paghukom","n","4","html-keyboard-response","922","f","neyemba","false","",""
"1882.7000000476837","","","","","4","html-slider-response","923","","","","2",""
"78","fish","buli,bala,baho,imani","buli","f","4","html-keyboard-response","924","f","buli","true","",""
"1347.1000001430511","","","","","4","html-slider-response","925","","","","2",""
"153","tooth","kijiko,uadui,pahiyum,kabalaka","kabalaka","n","4","html-keyboard-response","926","v","uadui","false","",""
"1215.0999999046326","","","","","4","html-slider-response","927","","","","2",""
"105","cave","kesho,ganti,maisha,nyundo","kesho","f","4","html-keyboard-response","928","v","ganti","false","",""
"1748.7000000476837","","","","","4","html-slider-response","929","","","","2",""
"53","lamp","daub,bilaska,afya,mbolea","afya","j","4","html-keyboard-response","930","v","bilaska","false","",""
"1435.9000000953674","","","","","4","html-slider-response","931","","","","2",""
"29","banana","kazi,kasamok,hagdan,twai","kazi","f","4","html-keyboard-response","932","v","kasamok","false","",""
"1907.3999998569489","","","","","4","html-slider-response","933","","","","2",""
"82","bonfire","mwezi,mfuko,kusanya,goti","goti","n","4","html-keyboard-response","934","v","mfuko","false","",""
"1572.6000001430511","","","","","4","html-slider-response","935","","","","2",""
"83","cop","mechezo,bustani,jikoni,bakus","mechezo","f","4","html-keyboard-response","936","v","bustani","false","",""
"1210.7999999523163","","","","","4","html-slider-response","937","","","","2",""
"54","marker","mapafu,salita,maji,atay","maji","j","4","html-keyboard-response","938","v","salita","false","",""
"1404.9000000953674","","","","","4","html-slider-response","939","","","","2",""
"503","window","nanga,kujenga,umaga,kweli","kweli","n","4","html-keyboard-response","940","v","kujenga","false","",""
"1036.0999999046326","","","","","4","html-slider-response","941","","","","2",""
"80","body","tindashan,nyundu,jibini,kununa","tindashan","f","4","html-keyboard-response","942","v","nyundu","false","",""
"1330.7000000476837","","","","","4","html-slider-response","943","","","","2",""
"52","apple","ukame,estante,edad,kisu","kisu","n","4","html-keyboard-response","944","v","estante","false","",""
"1206.9000000953674","","","","","4","html-slider-response","945","","","","2",""
"66","salmon","mzungu,sensilyo,seri,baharia","sensilyo","v","4","html-keyboard-response","946","v","sensilyo","true","",""
"1652.7999999523163","","","","","4","html-slider-response","947","","","","2",""
"140","bed","kalipay,haraka,starehe,mapintas","mapintas","n","4","html-keyboard-response","948","v","haraka","false","",""
"1614.7999999523163","","","","","4","html-slider-response","949","","","","2",""
"64","berry","kofia,abogado,nogozi,kinywa","kofia","f","4","html-keyboard-response","950","v","abogado","false","",""
"1433.3999998569489","","","","","4","html-slider-response","951","","","","2",""
"29","mirror","rangi,sulagma,kanding,furaha","sulagma","v","4","html-keyboard-response","952","v","sulagma","true","",""
"2366.5999999046326","","","","","4","html-slider-response","953","","","","2",""
"15","flag","ndege,mkate,trekta,kawa","trekta","j","4","html-keyboard-response","954","v","mkate","false","",""
"1335.7999999523163","","","","","4","html-slider-response","955","","","","2",""
"65","shoulder","kelele,mkuu,ndaniya,guruwe","mkuu","v","4","html-keyboard-response","956","v","mkuu","true","",""
"1440.6999998092651","","","","","4","html-slider-response","957","","","","2",""
"59","tissue","lamigas,ugomvi,kisiwa,katika","ugomvi","v","4","html-keyboard-response","958","v","ugomvi","true","",""
"2071.2000000476837","","","","","4","html-slider-response","959","","","","2",""
"30","notebook","msitu,kila,mdudu,kemia","kemia","n","4","html-keyboard-response","960","v","kila","false","",""
"1315.9000000953674","","","","","4","html-slider-response","961","","","","2",""
"58","snake","jansa,karon,mvringo,pagtukod","pagtukod","n","4","html-keyboard-response","962","v","karon","false","",""
"2024","","","","","4","html-slider-response","963","","","","2",""
"94","finger","moyo,simu,sufuria,lima","moyo","f","4","html-keyboard-response","964","v","simu","false","",""
"1847.2999999523163","","","","","4","html-slider-response","965","","","","4",""
"18","basket","kumbuka,kumba,utepe,hasira","kumba","v","4","html-keyboard-response","966","v","kumba","true","",""
"1339","","","","","4","html-slider-response","967","","","","2",""
"52","curtain","lisud,bulwawan,mchanga,chubani","mchanga","j","4","html-keyboard-response","968","f","lisud","false","",""
"1114.8999998569489","","","","","4","html-slider-response","969","","","","2",""
"61","perfume","bino,sungura,ndogo,katuyoan","katuyoan","n","4","html-keyboard-response","970","f","bino","false","",""
"1586.9000000953674","","","","","4","html-slider-response","971","","","","2",""
"96","key","chombo,miaka,goma,ahos","chombo","f","4","html-keyboard-response","972","f","chombo","true","",""
"1718.7999999523163","","","","","4","html-slider-response","973","","","","2",""
"117","olive","bata,jiwe,siagi,welder","jiwe","v","4","html-keyboard-response","974","f","bata","false","",""
"1782.4000000953674","","","","","4","html-slider-response","975","","","","2",""
"88","rose","singizi,paghalad,mwanake,amani","paghalad","v","4","html-keyboard-response","976","f","singizi","false","",""
"2023","","","","","4","html-slider-response","977","","","","1",""
"28","bridge","sahani,daima,ngono,panya","sahani","f","4","html-keyboard-response","978","f","sahani","true","",""
"1213.3999998569489","","","","","4","html-slider-response","979","","","","2",""
"109","hill","kushoto,matumbo,kukimba,sweta","matumbo","v","4","html-keyboard-response","980","f","kushoto","false","",""
"1172.0999999046326","","","","","4","html-slider-response","981","","","","2",""
"120","letter","kifua,filimbi,chuma,uhuru","kifua","f","4","html-keyboard-response","982","f","kifua","true","",""
"2018.1000001430511","","","","","4","html-slider-response","983","","","","2",""
"260","sock","mamba,ndoora,kimysa,mtirka","mamba","f","4","html-keyboard-response","984","f","mamba","true","",""
"1407.2000000476837","","","","","4","html-slider-response","985","","","","2",""
"35","fork","baboy,paghago,mgonjwa,gorisi","mgonjwa","j","4","html-keyboard-response","986","f","baboy","false","",""
"1486.3999998569489","","","","","4","html-slider-response","987","","","","2",""
"117","box","kuacha,adui,rafiki,kitande","adui","v","4","html-keyboard-response","988","f","kuacha","false","",""
"1022.2999999523163","","","","","4","html-slider-response","989","","","","2",""
"49","gift","baba,nyange,baso,pagtawag","pagtawag","n","4","html-keyboard-response","990","f","baba","false","",""
"1393.9000000953674","","","","","4","html-slider-response","991","","","","2",""
"291","bucket","baga,ijayo,init,kiatu","kiatu","n","4","html-keyboard-response","992","f","baga","false","",""
"1418.5","","","","","4","html-slider-response","993","","","","2",""
"71","shop","nopya,kerida,samaki,ndezu","samaki","j","4","html-keyboard-response","994","f","nopya","false","",""
"1298.7000000476837","","","","","4","html-slider-response","995","","","","2",""
"7","puppet","napulo,lamok,mazishi,godoro","mazishi","j","4","html-keyboard-response","996","f","napulo","false","",""
"1665.6000001430511","","","","","4","html-slider-response","997","","","","2",""
"169","nose","gubat,kopa,sehemu,kidole","sehemu","j","4","html-keyboard-response","998","f","gubat","false","",""
"1915.1000001430511","","","","","4","html-slider-response","999","","","","2",""
"49","music","mraba,mageho,tumbo,baiski","baiski","n","4","html-keyboard-response","1000","f","mraba","false","",""
"1582.5","","","","","4","html-slider-response","1001","","","","2",""
"21","dog","bahari,lubi,washia,kalamu","bahari","f","4","html-keyboard-response","1002","f","bahari","true","",""
"2126.300000190735","","","","","4","html-slider-response","1003","","","","2",""
"93","eel","msumari,ishara,kunywa,kabuang","msumari","f","4","html-keyboard-response","1004","f","msumari","true","",""
"1538.5","","","","","4","html-slider-response","1005","","","","2",""
"85","number","mundamo,shule,kengele,choori","mundamo","f","4","html-keyboard-response","1006","f","mundamo","true","",""
"1797","","","","","4","html-slider-response","1007","","","","2",""
"102","tomato","chupi,chupa,mvua,takatak","mvua","j","4","html-keyboard-response","1008","f","chupi","false","",""
"1970.7999999523163","","","","","4","html-slider-response","1009","","","","2",""
"141","coffin","kioo,barua,tubag,hulma","kioo","f","4","html-keyboard-response","1010","f","kioo","true","",""
"1484","","","","","4","html-slider-response","1011","","","","2",""
"122","knee","duka,mvuke,kubale,bili","duka","f","4","html-keyboard-response","1012","f","duka","true","",""
"1494.3999998569489","","","","","4","html-slider-response","1013","","","","2",""
"80","woman","bandari,bituin,kovuli,pagtabon","pagtabon","n","4","html-keyboard-response","1014","f","bandari","false","",""
"1514.0999999046326","","","","","4","html-slider-response","1015","","","","2",""
"137","stone","ulimwengu,mkasi,wingi,asili","wingi","j","4","html-keyboard-response","1016","f","ulimwengu","false","",""
"1854.7000000476837","","","","","4","html-slider-response","1017","","","","2",""
"97","bread","kaili,dari,dizeli,bugas","dari","v","4","html-keyboard-response","1018","f","kaili","false","",""
"2380.2999999523163","","","","","4","html-slider-response","1019","","","","2",""
"20","triangle","kihozi,kasadpan,bentaha,liog","kasadpan","v","4","html-keyboard-response","1020","f","kihozi","false","",""
"1330.3000001907349","","","","","4","html-slider-response","1021","","","","2",""
"15","scissors","duga,tanuri,mtawa,suga","tanuri","v","4","html-keyboard-response","1022","f","duga","false","",""
"1276.4000000953674","","","","","4","html-slider-response","1023","","","","2",""
"40","giraffe","daraja,jumatu,hangyo,mahitabo","mahitabo","n","4","html-keyboard-response","1024","f","daraja","false","",""
"1387.7999999523163","","","","","4","html-slider-response","1025","","","","2",""
"44","flower","tamasha,bega,lobo,usiku","bega","v","4","html-keyboard-response","1026","f","tamasha","false","",""
"1113.5","","","","","4","html-slider-response","1027","","","","2",""
"65","candle","gabi,farasi,kupanda,geza","geza","n","4","html-keyboard-response","1028","f","gabi","false","",""
"1261.8999998569489","","","","","4","html-slider-response","1029","","","","2",""
"38","mother","kahawa,mbuzi,babaye,jokofu","babaye","j","4","html-keyboard-response","1030","f","kahawa","false","",""
"1078.2999999523163","","","","","4","html-slider-response","1031","","","","2",""
"22","towel","tembo,funzi,pito,pagpalit","pagpalit","n","4","html-keyboard-response","1032","f","tembo","false","",""
"3412.9000000953674","","","","","4","html-slider-response","1033","","","","2",""
"49","elephant","petye,pagduol,kito,suka","kito","j","4","html-keyboard-response","1034","f","petye","false","",""
"14013.899999856949","","","","","4","html-slider-response","1035","","","","2",""
"59","shelf","pamahaw,bungtod,kadaot,awit","pamahaw","f","4","html-keyboard-response","1036","f","pamahaw","true","",""
"2990.800000190735","","","","","4","html-slider-response","1037","","","","2",""
"253","mosquito","isda,taras,martilyo,gutom","martilyo","j","4","html-keyboard-response","1038","f","isda","false","",""
"1600","","","","","4","html-slider-response","1039","","","","2",""
"54","column","pundok,ufagio,dila,pala","ufagio","v","4","html-keyboard-response","1040","f","pundok","false","",""
"1270","","","","","4","html-slider-response","1041","","","","2",""
"41","pants","pintal,chuki,haki,hari","haki","j","4","html-keyboard-response","1042","f","pintal","false","",""
"2445.2000000476837","","","","","4","html-slider-response","1043","","","","2",""
"23","list","wingu,alizeti,kuzama,kaso","wingu","f","4","html-keyboard-response","1044","f","wingu","true","",""
"1442.9000000953674","","","","","4","html-slider-response","1045","","","","2",""
"17","bank","kudhibi,tualya,ofisi,silingan","silingan","n","4","html-keyboard-response","1046","f","kudhibi","false","",""
"1678.3000001907349","","","","","4","html-slider-response","1047","","","","2",""
"91","clock","kartasi,abang,osha,mbwa","mbwa","n","4","html-keyboard-response","1048","f","kartasi","false","",""
"1553.1000001430511","","","","","4","html-slider-response","1049","","","","2",""
"82","ceiling","maua,kugita,kawaida,rayna","maua","f","4","html-keyboard-response","1050","f","maua","true","",""
"1662.7000000476837","","","","","4","html-slider-response","1051","","","","2",""
"73","train","itik,sayari,dakika,mungu","sayari","v","4","html-keyboard-response","1052","f","itik","false","",""
"2210.7999999523163","","","","","4","html-slider-response","1053","","","","2",""
"115","magazine","gundi,kiti,mchawi,bahandi","kiti","v","4","html-keyboard-response","1054","f","gundi","false","",""
"1614.2000000476837","","","","","4","html-slider-response","1055","","","","2",""
"172","office","hazini,leso,yatima,kuna","leso","v","4","html-keyboard-response","1056","f","hazini","false","",""
"1534.7000000476837","","","","","4","html-slider-response","1057","","","","2",""
"163","wheel","punda,tawo,baadaye,bafuni","bafuni","n","4","html-keyboard-response","1058","f","punda","false","",""
"2178.5","","","","","4","html-slider-response","1059","","","","2",""
"54","spoon","betri,pagsulod,nzuri,ngazi","pagsulod","v","4","html-keyboard-response","1060","f","betri","false","",""
"1962.1999998092651","","","","","4","html-slider-response","1061","","","","2",""
"32","hammer","napakyas,mekno,kitovu,layag","napakyas","f","4","html-keyboard-response","1062","f","napakyas","true","",""
"1980.3000001907349","","","","","4","html-slider-response","1063","","","","2",""
"42","cigar","ndugu,kuta,adhabu,mlango","adhabu","j","4","html-keyboard-response","1064","f","ndugu","false","",""
"1324.5999999046326","","","","","4","html-slider-response","1065","","","","2",""
"875","shoe","nyeusi,hatua,uyoga,kama","uyoga","j","4","html-keyboard-response","1066","j","uyoga","true","",""
"1194.9000000953674","","","","","4","html-slider-response","1067","","","","2",""
"597","list","wingu,alizeti,kuzama,kaso","wingu","f","5","html-keyboard-response","1069","j","kuzama","false","",""
"1243.7999999523163","","","","","5","html-slider-response","1070","","","","2",""
"36","number","shule,kengele,mundamo,choori","mundamo","j","5","html-keyboard-response","1071","j","mundamo","true","",""
"1322.7000000476837","","","","","5","html-slider-response","1072","","","","2",""
"92","apple","ukame,kisu,estante,edad","kisu","v","5","html-keyboard-response","1073","j","estante","false","",""
"1307","","","","","5","html-slider-response","1074","","","","2",""
"46","knee","mvuke,kubale,bili,duka","duka","n","5","html-keyboard-response","1075","j","bili","false","",""
"1391.9000000953674","","","","","5","html-slider-response","1076","","","","2",""
"33","tooth","kabalaka,kijiko,uadui,pahiyum","kabalaka","f","5","html-keyboard-response","1077","j","uadui","false","",""
"2193.399999856949","","","","","5","html-slider-response","1078","","","","2",""
"99","berry","kofia,abogado,nogozi,kinywa","kofia","f","5","html-keyboard-response","1079","j","nogozi","false","",""
"1587.2000000476837","","","","","5","html-slider-response","1080","","","","2",""
"145","bridge","sahani,daima,ngono,panya","sahani","f","5","html-keyboard-response","1081","j","ngono","false","",""
"1750.9000000953674","","","","","5","html-slider-response","1082","","","","2",""
"63","perfume","bino,sungura,katuyoan,ndogo","katuyoan","j","5","html-keyboard-response","1083","j","katuyoan","true","",""
"1448.0999999046326","","","","","5","html-slider-response","1084","","","","2",""
"74","ladder","mashua,pangalan,mwanga,kamba","pangalan","v","5","html-keyboard-response","1085","j","mwanga","false","",""
"2602.899999856949","","","","","5","html-slider-response","1086","","","","2",""
"120","pants","pintal,haki,chuki,hari","haki","v","5","html-keyboard-response","1087","j","chuki","false","",""
"1263.7999999523163","","","","","5","html-slider-response","1088","","","","2",""
"34","salmon","sensilyo,mzungu,seri,baharia","sensilyo","f","5","html-keyboard-response","1089","j","seri","false","",""
"1628.0999999046326","","","","","5","html-slider-response","1090","","","","2",""
"43","coffin","kioo,barua,tubag,hulma","kioo","f","5","html-keyboard-response","1091","j","tubag","false","",""
"1277.3000001907349","","","","","5","html-slider-response","1092","","","","2",""
"15","park","tambok,pwani,bunifu,ihalas","bunifu","j","5","html-keyboard-response","1093","j","bunifu","true","",""
"2945.5","","","","","5","html-slider-response","1094","","","","2",""
"362","giraffe","daraja,mahitabo,jumatu,hangyo","mahitabo","v","5","html-keyboard-response","1095","j","jumatu","false","",""
"2257.4000000953674","","","","","5","html-slider-response","1096","","","","2",""
"106","mirror","rangi,kanding,sulagma,furaha","sulagma","j","5","html-keyboard-response","1097","j","sulagma","true","",""
"2416.4000000953674","","","","","5","html-slider-response","1098","","","","2",""
"160","ceiling","maua,kugita,kawaida,rayna","maua","f","5","html-keyboard-response","1099","j","kawaida","false","",""
"1609.5","","","","","5","html-slider-response","1100","","","","2",""
"26","marker","mapafu,salita,atay,maji","maji","n","5","html-keyboard-response","1101","j","atay","false","",""
"1788","","","","","5","html-slider-response","1102","","","","2",""
"89","sock","ndoora,kimysa,mamba,mtirka","mamba","j","5","html-keyboard-response","1103","j","mamba","true","",""
"1163.3999998569489","","","","","5","html-slider-response","1104","","","","2",""
"97","cop","bustani,jikoni,mechezo,bakus","mechezo","j","5","html-keyboard-response","1105","j","mechezo","true","",""
"1188.4000000953674","","","","","5","html-slider-response","1106","","","","2",""
"16","gift","pagtawag,baba,nyange,baso","pagtawag","f","5","html-keyboard-response","1107","j","nyange","false","",""
"2025.2000000476837","","","","","5","html-slider-response","1108","","","","2",""
"44","notebook","msitu,kila,mdudu,kemia","kemia","n","5","html-keyboard-response","1109","j","mdudu","false","",""
"1830.3999998569489","","","","","5","html-slider-response","1110","","","","2",""
"81","bank","silingan,kudhibi,tualya,ofisi","silingan","f","5","html-keyboard-response","1111","j","tualya","false","",""
"1400.5999999046326","","","","","5","html-slider-response","1112","","","","2",""
"37","letter","kifua,filimbi,chuma,uhuru","kifua","f","5","html-keyboard-response","1113","j","chuma","false","",""
"2257.5999999046326","","","","","5","html-slider-response","1114","","","","2",""
"67","candle","gabi,geza,farasi,kupanda","geza","v","5","html-keyboard-response","1115","j","farasi","false","",""
"2082.0999999046326","","","","","5","html-slider-response","1116","","","","2",""
"53","bread","kaili,dizeli,bugas,dari","dari","n","5","html-keyboard-response","1117","j","bugas","false","",""
"1604.2999999523163","","","","","5","html-slider-response","1118","","","","2",""
"32","snake","jansa,pagtukod,karon,mvringo","pagtukod","v","5","html-keyboard-response","1119","j","karon","false","",""
"1595.5999999046326","","","","","5","html-slider-response","1120","","","","2",""
"72","rose","singizi,mwanake,paghalad,amani","paghalad","j","5","html-keyboard-response","1121","j","paghalad","true","",""
"1646.2999999523163","","","","","5","html-slider-response","1122","","","","2",""
"68","hill","matumbo,kushoto,kukimba,sweta","matumbo","f","5","html-keyboard-response","1123","j","kukimba","false","",""
"1127.5","","","","","5","html-slider-response","1124","","","","4",""
"70","train","sayari,itik,dakika,mungu","sayari","f","5","html-keyboard-response","1125","j","dakika","false","",""
"1368.2000000476837","","","","","5","html-slider-response","1126","","","","4",""
"119","shop","nopya,samaki,kerida,ndezu","samaki","v","5","html-keyboard-response","1127","j","kerida","false","",""
"1085.7000000476837","","","","","5","html-slider-response","1128","","","","4",""
"35","nose","sehemu,gubat,kopa,kidole","sehemu","f","5","html-keyboard-response","1129","j","kopa","false","",""
"1164.5","","","","","5","html-slider-response","1130","","","","5",""
"41","boat","hamsi,agalon,pombe,kitanda","agalon","v","5","html-keyboard-response","1131","j","pombe","false","",""
"1663.1999998092651","","","","","5","html-slider-response","1132","","","","4",""
"116","body","tindashan,nyundu,jibini,kununa","tindashan","f","5","html-keyboard-response","1133","j","jibini","false","",""
"1765.4000000953674","","","","","5","html-slider-response","1134","","","","2",""
"71","bed","mapintas,kalipay,haraka,starehe","mapintas","f","5","html-keyboard-response","1135","j","haraka","false","",""
"1162","","","","","5","html-slider-response","1136","","","","2",""
"40","squirrel","mahugaw,hofu,ukweli,kichwa","hofu","v","5","html-keyboard-response","1137","j","ukweli","false","",""
"1423.8000001907349","","","","","5","html-slider-response","1138","","","","2",""
"75","window","nanga,kweli,kujenga,umaga","kweli","v","5","html-keyboard-response","1139","j","kujenga","false","",""
"1071.9000000953674","","","","","5","html-slider-response","1140","","","","2",""
"50","bonfire","mwezi,mfuko,kusanya,goti","goti","n","5","html-keyboard-response","1141","j","kusanya","false","",""
"1645.3000001907349","","","","","5","html-slider-response","1142","","","","2",""
"33","fish","buli,bala,baho,imani","buli","f","5","html-keyboard-response","1143","j","baho","false","",""
"1266.5","","","","","5","html-slider-response","1144","","","","2",""
"79","cat","neyemba,paghukom,baki,akili","paghukom","v","5","html-keyboard-response","1145","j","baki","false","",""
"1298","","","","","5","html-slider-response","1146","","","","2",""
"81","spider","bunyag,kamwe,mkboa,atop","kamwe","v","5","html-keyboard-response","1147","j","mkboa","false","",""
"1687.9000000953674","","","","","5","html-slider-response","1148","","","","2",""
"19","eel","msumari,ishara,kunywa,kabuang","msumari","f","5","html-keyboard-response","1149","j","kunywa","false","",""
"1801.4000000953674","","","","","5","html-slider-response","1150","","","","2",""
"47","woman","pagtabon,bandari,bituin,kovuli","pagtabon","f","5","html-keyboard-response","1151","j","bituin","false","",""
"1738","","","","","5","html-slider-response","1152","","","","2",""
"520","magazine","gundi,kiti,mchawi,bahandi","kiti","v","5","html-keyboard-response","1153","f","gundi","false","",""
"1468.2000000476837","","","","","5","html-slider-response","1154","","","","2",""
"327","pudding","abug,aibu,mpishi,iring","aibu","v","5","html-keyboard-response","1155","f","abug","false","",""
"1252.1999998092651","","","","","5","html-slider-response","1156","","","","2",""
"60","lamp","daub,bilaska,afya,mbolea","afya","j","5","html-keyboard-response","1157","f","daub","false","",""
"1136.7000000476837","","","","","5","html-slider-response","1158","","","","2",""
"386","cave","kesho,ganti,maisha,nyundo","kesho","f","5","html-keyboard-response","1159","f","kesho","true","",""
"2219.399999856949","","","","","5","html-slider-response","1160","","","","2",""
"350","shoulder","mkuu,kelele,ndaniya,guruwe","mkuu","f","5","html-keyboard-response","1161","f","mkuu","true","",""
"2059.5","","","","","5","html-slider-response","1162","","","","2",""
"17","stone","wingi,ulimwengu,mkasi,asili","wingi","f","5","html-keyboard-response","1163","f","wingi","true","",""
"1960.2999999523163","","","","","5","html-slider-response","1164","","","","2",""
"139","column","pundok,ufagio,dila,pala","ufagio","v","5","html-keyboard-response","1165","f","pundok","false","",""
"2332","","","","","5","html-slider-response","1166","","","","2",""
"282","page","wakala,wimbo,ishiri,skina","wimbo","v","5","html-keyboard-response","1167","f","wakala","false","",""
"1679.2000000476837","","","","","5","html-slider-response","1168","","","","2",""
"75","shoe","uyoga,nyeusi,hatua,kama","uyoga","f","5","html-keyboard-response","1169","f","uyoga","true","",""
"2077.2999999523163","","","","","5","html-slider-response","1170","","","","2",""
"99","clock","kartasi,abang,mbwa,osha","mbwa","j","5","html-keyboard-response","1171","f","kartasi","false","",""
"1367","","","","","5","html-slider-response","1172","","","","2",""
"115","towel","tembo,funzi,pito,pagpalit","pagpalit","n","5","html-keyboard-response","1173","f","tembo","false","",""
"1549.7000000476837","","","","","5","html-slider-response","1174","","","","2",""
"54","tomato","mvua,chupi,chupa,takatak","mvua","f","5","html-keyboard-response","1175","f","mvua","true","",""
"1231.9000000953674","","","","","5","html-slider-response","1176","","","","2",""
"22","bucket","kiatu,baga,ijayo,init","kiatu","f","5","html-keyboard-response","1177","f","kiatu","true","",""
"1333.9000000953674","","","","","5","html-slider-response","1178","","","","2",""
"35","finger","moyo,simu,sufuria,lima","moyo","f","5","html-keyboard-response","1179","f","moyo","true","",""
"1282.0999999046326","","","","","5","html-slider-response","1180","","","","2",""
"37","mother","kahawa,mbuzi,jokofu,babaye","babaye","n","5","html-keyboard-response","1181","f","kahawa","false","",""
"1754.2000000476837","","","","","5","html-slider-response","1182","","","","2",""
"78","human","bado,kikapu,punguza,tinapay","tinapay","n","5","html-keyboard-response","1183","f","bado","false","",""
"1753.2999999523163","","","","","5","html-slider-response","1184","","","","2",""
"31","sun","bendi,basi,luha,uongo","basi","v","5","html-keyboard-response","1185","f","bendi","false","",""
"1231.7999999523163","","","","","5","html-slider-response","1186","","","","2",""
"15","fork","baboy,paghago,mgonjwa,gorisi","mgonjwa","j","5","html-keyboard-response","1187","f","baboy","false","",""
"1158.6000001430511","","","","","5","html-slider-response","1188","","","","2",""
"35","donkey","bloke,lalake,rombus,elfu","elfu","n","5","html-keyboard-response","1189","f","bloke","false","",""
"1323.6000001430511","","","","","5","html-slider-response","1190","","","","2",""
"92","wolf","kaburi,ndizi,mchuzi,lugha","lugha","n","5","html-keyboard-response","1191","f","kaburi","false","",""
"1798.3000001907349","","","","","5","html-slider-response","1192","","","","2",""
"42","cigar","ndugu,adhabu,kuta,mlango","adhabu","v","5","html-keyboard-response","1193","f","ndugu","false","",""
"2301.399999856949","","","","","5","html-slider-response","1194","","","","2",""
"66","olive","bata,siagi,welder,jiwe","jiwe","n","5","html-keyboard-response","1195","f","bata","false","",""
"1305.2999999523163","","","","","5","html-slider-response","1196","","","","2",""
"119","key","miaka,chombo,goma,ahos","chombo","v","5","html-keyboard-response","1197","f","miaka","false","",""
"1226.2999999523163","","","","","5","html-slider-response","1198","","","","2",""
"40","door","surali,tena,soko,nyota","surali","f","5","html-keyboard-response","1199","f","surali","true","",""
"1221.7000000476837","","","","","5","html-slider-response","1200","","","","2",""
"309","wheel","punda,bafuni,tawo,baadaye","bafuni","v","5","html-keyboard-response","1201","f","punda","false","",""
"1171.3000001907349","","","","","5","html-slider-response","1202","","","","2",""
"156","basket","kumbuka,utepe,kumba,hasira","kumba","j","5","html-keyboard-response","1203","f","kumbuka","false","",""
"1434","","","","","5","html-slider-response","1204","","","","2",""
"456","elephant","petye,pagduol,kito,suka","kito","j","5","html-keyboard-response","1205","v","pagduol","false","",""
"1316.2999999523163","","","","","5","html-slider-response","1206","","","","2",""
"107","office","hazini,leso,yatima,kuna","leso","v","5","html-keyboard-response","1207","v","leso","true","",""
"1876.6000001430511","","","","","5","html-slider-response","1208","","","","2",""
"344","music","mraba,mageho,tumbo,baiski","baiski","n","5","html-keyboard-response","1209","v","mageho","false","",""
"2210.199999809265","","","","","5","html-slider-response","1210","","","","2",""
"132","tissue","ugomvi,lamigas,kisiwa,katika","ugomvi","f","5","html-keyboard-response","1211","f","ugomvi","true","",""
"1446.2999999523163","","","","","5","html-slider-response","1212","","","","2",""
"135","curtain","lisud,bulwawan,mchanga,chubani","mchanga","j","5","html-keyboard-response","1213","f","lisud","false","",""
"1398.3999998569489","","","","","5","html-slider-response","1214","","","","2",""
"177","flag","ndege,trekta,mkate,kawa","trekta","v","5","html-keyboard-response","1215","f","ndege","false","",""
"2056.5999999046326","","","","","5","html-slider-response","1216","","","","2",""
"139","dog","lubi,washia,kalamu,bahari","bahari","n","5","html-keyboard-response","1217","f","lubi","false","",""
"2566.5","","","","","5","html-slider-response","1218","","","","2",""
"167","cup","dagat,shimoni,matumai,jeraha","matumai","j","5","html-keyboard-response","1219","f","dagat","false","",""
"1825","","","","","5","html-slider-response","1220","","","","2",""
"209","sheet","juuya,watu,bililhon,kamantis","bililhon","j","5","html-keyboard-response","1221","f","juuya","false","",""
"1291.1999998092651","","","","","5","html-slider-response","1222","","","","4",""
"55","spoon","betri,pagsulod,nzuri,ngazi","pagsulod","v","5","html-keyboard-response","1223","f","betri","false","",""
"1997.4000000953674","","","","","5","html-slider-response","1224","","","","4",""
"154","flower","tamasha,lobo,usiku,bega","bega","n","5","html-keyboard-response","1225","f","tamasha","false","",""
"1938.3999998569489","","","","","5","html-slider-response","1226","","","","2",""
"33","picture","silya,chaki,kubwa,asin","kubwa","j","5","html-keyboard-response","1227","f","silya","false","",""
"2329.7999999523163","","","","","5","html-slider-response","1228","","","","2",""
"97","puppet","mazishi,napulo,lamok,godoro","mazishi","f","5","html-keyboard-response","1229","f","mazishi","true","",""
"1794.2999999523163","","","","","5","html-slider-response","1230","","","","2",""
"184","banana","kasamok,hagdan,kazi,twai","kazi","j","5","html-keyboard-response","1231","v","hagdan","false","",""
"2013.3999998569489","","","","","5","html-slider-response","1232","","","","2",""
"242","book","mali,kuhesa,picha,mara","mali","f","5","html-keyboard-response","1233","f","mali","true","",""
"3074.9000000953674","","","","","5","html-slider-response","1234","","","","2",""
"260","triangle","kihozi,bentaha,kasadpan,liog","kasadpan","j","5","html-keyboard-response","1235","f","kihozi","false","",""
"3411.399999856949","","","","","5","html-slider-response","1236","","","","2",""
"139","poster","nchi,fedha,kasuko,madungog","madungog","n","5","html-keyboard-response","1237","f","nchi","false","",""
"2069.7999999523163","","","","","5","html-slider-response","1238","","","","2",""
"364","box","kuacha,rafiki,kitande,adui","adui","n","5","html-keyboard-response","1239","f","kuacha","false","",""
"2136.2999999523163","","","","","5","html-slider-response","1240","","","","2",""
"73","mosquito","isda,taras,gutom,martilyo","martilyo","n","5","html-keyboard-response","1241","f","isda","false","",""
"2136.2999999523163","","","","","5","html-slider-response","1242","","","","2",""
"213","shelf","bungtod,pamahaw,kadaot,awit","pamahaw","v","5","html-keyboard-response","1243","f","bungtod","false","",""
"1947.9000000953674","","","","","5","html-slider-response","1244","","","","2",""
"177","scissors","duga,mtawa,suga,tanuri","tanuri","n","5","html-keyboard-response","1245","f","duga","false","",""
"1109.9000000953674","","","","","5","html-slider-response","1246","","","","2",""
"25","hammer","mekno,napakyas,kitovu,layag","napakyas","v","5","html-keyboard-response","1247","f","mekno","false","",""
"1529.5","","","","","5","html-slider-response","1248","","","","2",""
