"rt","en_word","options","swa_word","correct_answer","phase","trial_type","trial_index","input_answer","input_word","accuracy","certainty","amt_choices"
"7603","bonfire","goti,mwezi,mfuko,kusanya","goti","f","2","html-keyboard-response","106","f","goti","true","",""
"2954.800000011921","","","","","2","html-slider-response","107","","","","1",""
"15520","flower","bega,tamasha,lobo,usiku","bega","f","2","html-keyboard-response","108","n","usiku","false","",""
"3032","","","","","2","html-slider-response","109","","","","1",""
"6951","column","pundok,ufagio,dila,pala","ufagio","v","2","html-keyboard-response","110","v","ufagio","true","",""
"3450.900000035763","","","","","2","html-slider-response","111","","","","1",""
"9992","music","mraba,baiski,mageho,tumbo","baiski","v","2","html-keyboard-response","112","v","baiski","true","",""
"3651.699999988079","","","","","2","html-slider-response","113","","","","1",""
"5983","spider","bunyag,kamwe,mkboa,atop","kamwe","v","2","html-keyboard-response","114","v","kamwe","true","",""
"2665.699999988079","","","","","2","html-slider-response","115","","","","1",""
"10558","fork","baboy,paghago,gorisi,mgonjwa","mgonjwa","n","2","html-keyboard-response","116","n","mgonjwa","true","",""
"3356.5","","","","","2","html-slider-response","117","","","","1",""
"7770","mosquito","isda,martilyo,taras,gutom","martilyo","v","2","html-keyboard-response","118","v","martilyo","true","",""
"5126.300000011921","","","","","2","html-slider-response","119","","","","2",""
"6648","banana","kazi,kasamok,hagdan,twai","kazi","f","2","html-keyboard-response","120","f","kazi","true","",""
"9615.900000035763","","","","","2","html-slider-response","121","","","","3",""
"11127","cup","dagat,shimoni,matumai,jeraha","matumai","j","2","html-keyboard-response","122","j","matumai","true","",""
"3063.399999976158","","","","","2","html-slider-response","123","","","","1",""
"5671","shop","nopya,kerida,ndezu,samaki","samaki","n","2","html-keyboard-response","124","v","kerida","false","",""
"3197.100000023842","","","","","2","html-slider-response","125","","","","1",""
"2791","elephant","petye,pagduol,kito,suka","kito","j","2","html-keyboard-response","126","j","kito","true","",""
"3058.599999964237","","","","","2","html-slider-response","127","","","","4",""
"8494","bucket","baga,ijayo,init,kiatu","kiatu","n","2","html-keyboard-response","128","n","kiatu","true","",""
"3346.5","","","","","2","html-slider-response","129","","","","1",""
"7041","book","kuhesa,picha,mara,mali","mali","n","2","html-keyboard-response","130","n","mali","true","",""
"2496.2999999523163","","","","","2","html-slider-response","131","","","","4",""
"7256","mirror","rangi,sulagma,kanding,furaha","sulagma","v","2","html-keyboard-response","132","v","sulagma","true","",""
"8010.400000035763","","","","","2","html-slider-response","133","","","","1",""
"10016","office","hazini,leso,yatima,kuna","leso","v","2","html-keyboard-response","134","n","kuna","false","",""
"2770.600000023842","","","","","2","html-slider-response","135","","","","1",""
"8432","body","nyundu,jibini,kununa,tindashan","tindashan","n","2","html-keyboard-response","136","n","tindashan","true","",""
"2680.5","","","","","2","html-slider-response","137","","","","1",""
"5772","perfume","bino,katuyoan,sungura,ndogo","katuyoan","v","2","html-keyboard-response","138","v","katuyoan","true","",""
"3562.699999988079","","","","","2","html-slider-response","139","","","","4",""
"3358","olive","bata,siagi,welder,jiwe","jiwe","n","2","html-keyboard-response","140","n","jiwe","true","",""
"2715.900000035763","","","","","2","html-slider-response","141","","","","2",""
"5977","magazine","kiti,gundi,mchawi,bahandi","kiti","f","2","html-keyboard-response","142","f","kiti","true","",""
"3602.2999999523163","","","","","2","html-slider-response","143","","","","2",""
"4831","bread","kaili,dizeli,bugas,dari","dari","n","2","html-keyboard-response","144","n","dari","true","",""
"4666.899999976158","","","","","2","html-slider-response","145","","","","3",""
"2773","cave","ganti,maisha,kesho,nyundo","kesho","j","2","html-keyboard-response","146","j","kesho","true","",""
"3787.699999988079","","","","","2","html-slider-response","147","","","","3",""
"6653","ladder","mashua,mwanga,pangalan,kamba","pangalan","j","2","html-keyboard-response","148","j","pangalan","true","",""
"2786.7999999523163","","","","","2","html-slider-response","149","","","","1",""
"8158","human","bado,kikapu,punguza,tinapay","tinapay","n","2","html-keyboard-response","150","n","tinapay","true","",""
"2561.2999999523163","","","","","2","html-slider-response","151","","","","1",""
"5070","clock","mbwa,kartasi,abang,osha","mbwa","f","2","html-keyboard-response","152","f","mbwa","true","",""
"2795.899999976158","","","","","2","html-slider-response","153","","","","2",""
"4300","shelf","bungtod,kadaot,awit,pamahaw","pamahaw","n","2","html-keyboard-response","154","n","pamahaw","true","",""
"2867.400000035763","","","","","2","html-slider-response","155","","","","1",""
"2861","salmon","mzungu,seri,sensilyo,baharia","sensilyo","j","2","html-keyboard-response","156","j","sensilyo","true","",""
"3012.699999988079","","","","","2","html-slider-response","157","","","","2",""
"2000","coffin","kioo,barua,tubag,hulma","kioo","f","2","html-keyboard-response","158","f","kioo","true","",""
"4035.199999988079","","","","","2","html-slider-response","159","","","","3",""
"14054","notebook","kemia,msitu,kila,mdudu","kemia","f","2","html-keyboard-response","160","f","kemia","true","",""
"2412.800000011921","","","","","2","html-slider-response","161","","","","1",""
"13130","shoulder","kelele,ndaniya,mkuu,guruwe","mkuu","j","2","html-keyboard-response","162","j","mkuu","true","",""
"2426.100000023842","","","","","2","html-slider-response","163","","","","1",""
"6600","park","tambok,bunifu,pwani,ihalas","bunifu","v","2","html-keyboard-response","164","v","bunifu","true","",""
"2048.5","","","","","2","html-slider-response","165","","","","2",""
"10612","number","shule,kengele,mundamo,choori","mundamo","j","2","html-keyboard-response","166","j","mundamo","true","",""
"2270.600000023842","","","","","2","html-slider-response","167","","","","2",""
"8577","apple","ukame,kisu,estante,edad","kisu","v","2","html-keyboard-response","168","v","kisu","true","",""
"1655.800000011921","","","","","2","html-slider-response","169","","","","2",""
"3711","letter","kifua,filimbi,chuma,uhuru","kifua","f","2","html-keyboard-response","170","n","uhuru","false","",""
"2271.699999988079","","","","","2","html-slider-response","171","","","","1",""
"8556","eel","ishara,msumari,kunywa,kabuang","msumari","v","2","html-keyboard-response","172","v","msumari","true","",""
"2726.300000011921","","","","","2","html-slider-response","173","","","","2",""
"5888","cop","bustani,jikoni,mechezo,bakus","mechezo","j","2","html-keyboard-response","174","j","mechezo","true","",""
"1767.800000011921","","","","","2","html-slider-response","175","","","","1",""
"7172","wolf","kaburi,lugha,ndizi,mchuzi","lugha","v","2","html-keyboard-response","176","n","mchuzi","false","",""
"2012.800000011921","","","","","2","html-slider-response","177","","","","1",""
"7668","squirrel","hofu,mahugaw,ukweli,kichwa","hofu","f","2","html-keyboard-response","178","v","mahugaw","false","",""
"2069.399999976158","","","","","2","html-slider-response","179","","","","1",""
"8579","nose","gubat,kopa,sehemu,kidole","sehemu","j","2","html-keyboard-response","180","f","gubat","false","",""
"1742.3999999761581","","","","","2","html-slider-response","181","","","","1",""
"2593","sock","ndoora,kimysa,mtirka,mamba","mamba","n","2","html-keyboard-response","182","n","mamba","true","",""
"1784.8999999761581","","","","","2","html-slider-response","183","","","","4",""
"8044","bank","kudhibi,tualya,silingan,ofisi","silingan","j","2","html-keyboard-response","184","n","ofisi","false","",""
"1915.8999999761581","","","","","2","html-slider-response","185","","","","1",""
"2628","donkey","bloke,lalake,elfu,rombus","elfu","j","2","html-keyboard-response","186","j","elfu","true","",""
"2014.0999999642372","","","","","2","html-slider-response","187","","","","2",""
"5941","poster","nchi,madungog,fedha,kasuko","madungog","v","2","html-keyboard-response","188","v","madungog","true","",""
"1542.8999999761581","","","","","2","html-slider-response","189","","","","2",""
"4049","puppet","mazishi,napulo,lamok,godoro","mazishi","f","2","html-keyboard-response","190","f","mazishi","true","",""
"3424.800000011921","","","","","2","html-slider-response","191","","","","4",""
"2753","hill","kushoto,kukimba,sweta,matumbo","matumbo","n","2","html-keyboard-response","192","n","matumbo","true","",""
"1569.5","","","","","2","html-slider-response","193","","","","4",""
"13547","tooth","kijiko,kabalaka,uadui,pahiyum","kabalaka","v","2","html-keyboard-response","194","f","kijiko","false","",""
"2190","","","","","2","html-slider-response","195","","","","1",""
"7634","woman","bandari,pagtabon,bituin,kovuli","pagtabon","v","2","html-keyboard-response","196","v","pagtabon","true","",""
"1823","","","","","2","html-slider-response","197","","","","1",""
"4793","wheel","bafuni,punda,tawo,baadaye","bafuni","f","2","html-keyboard-response","198","f","bafuni","true","",""
"1727.9000000357628","","","","","2","html-slider-response","199","","","","1",""
"4155","mother","kahawa,mbuzi,babaye,jokofu","babaye","j","2","html-keyboard-response","200","j","babaye","true","",""
"2150.7000000476837","","","","","2","html-slider-response","201","","","","4",""
"7298","bed","kalipay,haraka,mapintas,starehe","mapintas","j","2","html-keyboard-response","202","v","haraka","false","",""
"1850.5","","","","","2","html-slider-response","203","","","","2",""
"10047","key","chombo,miaka,goma,ahos","chombo","f","2","html-keyboard-response","204","f","chombo","true","",""
"1939.300000011921","","","","","2","html-slider-response","205","","","","1",""
"6823","page","wakala,wimbo,ishiri,skina","wimbo","v","2","html-keyboard-response","206","j","ishiri","false","",""
"2370","","","","","2","html-slider-response","207","","","","1",""
"10453","pants","pintal,haki,chuki,hari","haki","v","2","html-keyboard-response","208","f","pintal","false","",""
"1634.5","","","","","2","html-slider-response","209","","","","1",""
"2733","sun","bendi,luha,uongo,basi","basi","n","2","html-keyboard-response","210","n","basi","true","",""
"1554.5999999642372","","","","","2","html-slider-response","211","","","","4",""
"14426","finger","simu,moyo,sufuria,lima","moyo","v","2","html-keyboard-response","212","j","sufuria","false","",""
"1769.800000011921","","","","","2","html-slider-response","213","","","","1",""
"4454","shoe","uyoga,nyeusi,hatua,kama","uyoga","f","2","html-keyboard-response","214","f","uyoga","true","",""
"2883.300000011921","","","","","2","html-slider-response","215","","","","3",""
"6023","giraffe","mahitabo,daraja,jumatu,hangyo","mahitabo","f","2","html-keyboard-response","216","f","mahitabo","true","",""
"1987.7000000476837","","","","","2","html-slider-response","217","","","","2",""
"3220","dog","lubi,bahari,washia,kalamu","bahari","v","2","html-keyboard-response","218","v","bahari","true","",""
"2988.5","","","","","2","html-slider-response","219","","","","3",""
"9512","box","adui,kuacha,rafiki,kitande","adui","f","2","html-keyboard-response","220","n","kitande","false","",""
"2154.7000000476837","","","","","2","html-slider-response","221","","","","1",""
"7388","scissors","duga,mtawa,tanuri,suga","tanuri","j","2","html-keyboard-response","222","j","tanuri","true","",""
"2012.699999988079","","","","","2","html-slider-response","223","","","","2",""
"8854","cat","neyemba,baki,paghukom,akili","paghukom","j","2","html-keyboard-response","224","v","baki","false","",""
"2052.699999988079","","","","","2","html-slider-response","225","","","","1",""
"6094","basket","kumbuka,kumba,utepe,hasira","kumba","v","2","html-keyboard-response","226","f","kumbuka","false","",""
"2182.300000011921","","","","","2","html-slider-response","227","","","","1",""
"4603","snake","jansa,karon,mvringo,pagtukod","pagtukod","n","2","html-keyboard-response","228","n","pagtukod","true","",""
"1829.8999999761581","","","","","2","html-slider-response","229","","","","2",""
"7296","gift","baba,nyange,pagtawag,baso","pagtawag","j","2","html-keyboard-response","230","j","pagtawag","true","",""
"1993.800000011921","","","","","2","html-slider-response","231","","","","1",""
"6918","train","sayari,itik,dakika,mungu","sayari","f","2","html-keyboard-response","232","f","sayari","true","",""
"2166.199999988079","","","","","2","html-slider-response","233","","","","1",""
"3307","pudding","abug,aibu,mpishi,iring","aibu","v","2","html-keyboard-response","234","v","aibu","true","",""
"3351","","","","","2","html-slider-response","235","","","","3",""
"5994","tomato","chupi,chupa,mvua,takatak","mvua","j","2","html-keyboard-response","236","j","mvua","true","",""
"1560","","","","","2","html-slider-response","237","","","","2",""
"8336","stone","ulimwengu,mkasi,wingi,asili","wingi","j","2","html-keyboard-response","238","j","wingi","true","",""
"3257","","","","","2","html-slider-response","239","","","","1",""
"8170","hammer","napakyas,mekno,kitovu,layag","napakyas","f","2","html-keyboard-response","240","f","napakyas","true","",""
"2046.199999988079","","","","","2","html-slider-response","241","","","","1",""
"5313","knee","duka,mvuke,kubale,bili","duka","f","2","html-keyboard-response","242","f","duka","true","",""
"1775.0999999642372","","","","","2","html-slider-response","243","","","","1",""
"6723","ceiling","kugita,kawaida,rayna,maua","maua","n","2","html-keyboard-response","244","n","maua","true","",""
"2280.600000023842","","","","","2","html-slider-response","245","","","","1",""
"6387","spoon","betri,nzuri,pagsulod,ngazi","pagsulod","j","2","html-keyboard-response","246","j","pagsulod","true","",""
"2206.400000035763","","","","","2","html-slider-response","247","","","","1",""
"2826","marker","mapafu,salita,atay,maji","maji","n","2","html-keyboard-response","248","n","maji","true","",""
"1766.300000011921","","","","","2","html-slider-response","249","","","","4",""
"2554","candle","gabi,farasi,kupanda,geza","geza","n","2","html-keyboard-response","250","n","geza","true","",""
"3280.300000011921","","","","","2","html-slider-response","251","","","","4",""
"4632","tissue","lamigas,ugomvi,kisiwa,katika","ugomvi","v","2","html-keyboard-response","252","v","ugomvi","true","",""
"1872","","","","","2","html-slider-response","253","","","","1",""
"6881","bridge","sahani,daima,ngono,panya","sahani","f","2","html-keyboard-response","254","f","sahani","true","",""
"2717","","","","","2","html-slider-response","255","","","","1",""
"6956","berry","abogado,nogozi,kinywa,kofia","kofia","n","2","html-keyboard-response","256","n","kofia","true","",""
"1799.6000000238419","","","","","2","html-slider-response","257","","","","1",""
"5005","triangle","kihozi,kasadpan,bentaha,liog","kasadpan","v","2","html-keyboard-response","258","f","kihozi","false","",""
"1835.4000000357628","","","","","2","html-slider-response","259","","","","1",""
"5309","door","tena,surali,soko,nyota","surali","v","2","html-keyboard-response","260","v","surali","true","",""
"1836.1000000238419","","","","","2","html-slider-response","261","","","","1",""
"3860","fish","bala,buli,baho,imani","buli","v","2","html-keyboard-response","262","v","buli","true","",""
"1924.6000000238419","","","","","2","html-slider-response","263","","","","4",""
"13968","curtain","lisud,bulwawan,mchanga,chubani","mchanga","j","2","html-keyboard-response","264","n","chubani","false","",""
"2435.800000011921","","","","","2","html-slider-response","265","","","","1",""
"5556","flag","ndege,trekta,mkate,kawa","trekta","v","2","html-keyboard-response","266","n","kawa","false","",""
"1867.3999999761581","","","","","2","html-slider-response","267","","","","1",""
"5091","boat","hamsi,agalon,pombe,kitanda","agalon","v","2","html-keyboard-response","268","f","hamsi","false","",""
"1856.7000000476837","","","","","2","html-slider-response","269","","","","1",""
"5311","rose","singizi,paghalad,mwanake,amani","paghalad","v","2","html-keyboard-response","270","v","paghalad","true","",""
"2905.900000035763","","","","","2","html-slider-response","271","","","","2",""
"10822","lamp","daub,bilaska,mbolea,afya","afya","n","2","html-keyboard-response","272","v","bilaska","false","",""
"1699","","","","","2","html-slider-response","273","","","","1",""
"8229","cigar","ndugu,adhabu,kuta,mlango","adhabu","v","2","html-keyboard-response","274","v","adhabu","true","",""
"2350.199999988079","","","","","2","html-slider-response","275","","","","1",""
"5309","list","alizeti,wingu,kuzama,kaso","wingu","v","2","html-keyboard-response","276","j","kuzama","false","",""
"2538.800000011921","","","","","2","html-slider-response","277","","","","2",""
"5197","sheet","juuya,watu,kamantis,bililhon","bililhon","n","2","html-keyboard-response","278","n","bililhon","true","",""
"2068.300000011921","","","","","2","html-slider-response","279","","","","1",""
"4902","picture","silya,chaki,asin,kubwa","kubwa","n","2","html-keyboard-response","280","f","silya","false","",""
"2156.599999964237","","","","","2","html-slider-response","281","","","","1",""
"6428","towel","tembo,funzi,pito,pagpalit","pagpalit","n","2","html-keyboard-response","282","n","pagpalit","true","",""
"1876.5","","","","","2","html-slider-response","283","","","","2",""
"4518","window","nanga,kweli,kujenga,umaga","kweli","v","2","html-keyboard-response","284","v","kweli","true","",""
"2355.600000023842","","","","","2","html-slider-response","285","","","","1",""
"5167","box","adui,kuacha,rafiki,kitande","adui","f","3","html-keyboard-response","293","n","kitande","false","","4"
"3167.899999976158","","","","","3","html-slider-response","294","","","","1",""
"7697","","","","","3","html-keyboard-response","295","","","","",""
"9764","pants","pintal,chuki,hari,haki","haki","n","3","html-keyboard-response","296","j","hari","false","","4"
"2021.9000000357628","","","","","3","html-slider-response","297","","","","1",""
"18216","","","","","3","html-keyboard-response","298","","","","",""
"5650","cup","dagat,shimoni,matumai,jeraha","matumai","j","3","html-keyboard-response","299","f","dagat","false","","4"
"2111.400000035763","","","","","3","html-slider-response","300","","","","1",""
"10498","","","","","3","html-keyboard-response","301","","","","",""
"4504","triangle","kasadpan,kihozi,bentaha,liog","kasadpan","f","3","html-keyboard-response","302","v","kihozi","false","","4"
"2164.7999999523163","","","","","3","html-slider-response","303","","","","1",""
"11092","","","","","3","html-keyboard-response","304","","","","",""
"5282","curtain","lisud,mchanga,bulwawan,chubani","mchanga","v","3","html-keyboard-response","305","j","bulwawan","false","","4"
"2224.699999988079","","","","","3","html-slider-response","306","","","","1",""
"9067","","","","","3","html-keyboard-response","307","","","","",""
"5038","clock","mbwa,kartasi,abang,osha","mbwa","f","3","html-keyboard-response","308","f","mbwa","true","","4"
"2261","","","","","3","html-slider-response","309","","","","2",""
"9153","","","","","3","html-keyboard-response","310","","","","",""
"4379","mirror","rangi,kanding,furaha,sulagma","sulagma","n","3","html-keyboard-response","311","n","sulagma","true","","4"
"1976.5999999642372","","","","","3","html-slider-response","312","","","","1",""
"2865","","","","","3","html-keyboard-response","313","","","","",""
"16162","coffin","barua,kioo,tubag,hulma","kioo","v","3","html-keyboard-response","314","v","kioo","true","","1"
"3063.199999988079","","","","","3","html-slider-response","315","","","","4",""
"10368","","","","","3","html-keyboard-response","316","","","","",""
"6151","magazine","kiti,gundi,mchawi,bahandi","kiti","f","3","html-keyboard-response","317","n","bahandi","false","","4"
"1989","","","","","3","html-slider-response","318","","","","1",""
"13300","","","","","3","html-keyboard-response","319","","","","",""
"3395","column","pundok,dila,pala,ufagio","ufagio","n","3","html-keyboard-response","320","n","ufagio","true","","1"
"2752.599999964237","","","","","3","html-slider-response","321","","","","4",""
"8572","","","","","3","html-keyboard-response","322","","","","",""
"4395","number","shule,kengele,mundamo,choori","mundamo","j","3","html-keyboard-response","323","j","mundamo","true","","4"
"2277.600000023842","","","","","3","html-slider-response","324","","","","1",""
"9603","","","","","3","html-keyboard-response","325","","","","",""
"6268","rose","singizi,mwanake,paghalad,amani","paghalad","j","3","html-keyboard-response","326","j","paghalad","true","","4"
"2754.800000011921","","","","","3","html-slider-response","327","","","","1",""
"11402","","","","","3","html-keyboard-response","328","","","","",""
"3740","eel","ishara,msumari,kunywa,kabuang","msumari","v","3","html-keyboard-response","329","v","msumari","true","","4"
"3111.900000035763","","","","","3","html-slider-response","330","","","","2",""
"8464","","","","","3","html-keyboard-response","331","","","","",""
"5204","gift","baba,pagtawag,nyange,baso","pagtawag","v","3","html-keyboard-response","332","v","pagtawag","true","","4"
"2456.7000000476837","","","","","3","html-slider-response","333","","","","1",""
"10117","","","","","3","html-keyboard-response","334","","","","",""
"2618","apple","ukame,kisu,estante,edad","kisu","v","3","html-keyboard-response","335","v","kisu","true","","1"
"2279.099999964237","","","","","3","html-slider-response","336","","","","4",""
"10777","","","","","3","html-keyboard-response","337","","","","",""
"2578","wheel","punda,tawo,bafuni,baadaye","bafuni","j","3","html-keyboard-response","338","j","bafuni","true","","1"
"3526.2000000476837","","","","","3","html-slider-response","339","","","","4",""
"12746","","","","","3","html-keyboard-response","340","","","","",""
"8794","knee","duka,mvuke,kubale,bili","duka","f","3","html-keyboard-response","341","j","kubale","false","","4"
"2120.399999976158","","","","","3","html-slider-response","342","","","","1",""
"9708","","","","","3","html-keyboard-response","343","","","","",""
"2587","basket","kumbuka,utepe,hasira,kumba","kumba","n","3","html-keyboard-response","344","n","kumba","true","","1"
"3247.900000035763","","","","","3","html-slider-response","345","","","","5",""
"12906","","","","","3","html-keyboard-response","346","","","","",""
"6237","park","bunifu,tambok,pwani,ihalas","bunifu","f","3","html-keyboard-response","347","f","bunifu","true","","4"
"2700.300000011921","","","","","3","html-slider-response","348","","","","4",""
"9041","","","","","3","html-keyboard-response","349","","","","",""
"6077","finger","simu,sufuria,moyo,lima","moyo","j","3","html-keyboard-response","350","j","moyo","true","","4"
"2262.699999988079","","","","","3","html-slider-response","351","","","","1",""
"2472","","","","","3","html-keyboard-response","352","","","","",""
"17354","boat","hamsi,agalon,pombe,kitanda","agalon","v","3","html-keyboard-response","353","n","kitanda","false","","4"
"1966.300000011921","","","","","3","html-slider-response","354","","","","1",""
"9788","","","","","3","html-keyboard-response","355","","","","",""
"2624","hill","kushoto,kukimba,sweta,matumbo","matumbo","n","3","html-keyboard-response","356","n","matumbo","true","","4"
"2075.5","","","","","3","html-slider-response","357","","","","4",""
"9115","","","","","3","html-keyboard-response","358","","","","",""
"11091","train","itik,dakika,mungu,sayari","sayari","n","3","html-keyboard-response","359","n","sayari","true","","4"
"2055.800000011921","","","","","3","html-slider-response","360","","","","1",""
"8887","","","","","3","html-keyboard-response","361","","","","",""
"9527","wolf","kaburi,lugha,ndizi,mchuzi","lugha","v","3","html-keyboard-response","362","f","kaburi","false","","4"
"2389.699999988079","","","","","3","html-slider-response","363","","","","1",""
"8706","","","","","3","html-keyboard-response","364","","","","",""
"5053","snake","jansa,pagtukod,karon,mvringo","pagtukod","v","3","html-keyboard-response","365","v","pagtukod","true","","4"
"3288.2999999523163","","","","","3","html-slider-response","366","","","","1",""
"10148","","","","","3","html-keyboard-response","367","","","","",""
"5620","tooth","kabalaka,kijiko,uadui,pahiyum","kabalaka","f","3","html-keyboard-response","368","v","kijiko","false","","4"
"1855.4000000357628","","","","","3","html-slider-response","369","","","","1",""
"9409","","","","","3","html-keyboard-response","370","","","","",""
"8776","notebook","msitu,kila,mdudu,kemia","kemia","n","3","html-keyboard-response","371","n","kemia","true","","4"
"1669.6000000238419","","","","","3","html-slider-response","372","","","","1",""
"10426","","","","","3","html-keyboard-response","373","","","","",""
"3595","flag","ndege,mkate,kawa,trekta","trekta","n","3","html-keyboard-response","374","j","kawa","false","","4"
"2319.900000035763","","","","","3","html-slider-response","375","","","","1",""
"9769","","","","","3","html-keyboard-response","376","","","","",""
"3807","squirrel","hofu,mahugaw,ukweli,kichwa","hofu","f","3","html-keyboard-response","377","v","mahugaw","false","","4"
"2255.300000011921","","","","","3","html-slider-response","378","","","","1",""
"10770","","","","","3","html-keyboard-response","379","","","","",""
"5556","door","surali,tena,soko,nyota","surali","f","3","html-keyboard-response","380","f","surali","true","","4"
"1809","","","","","3","html-slider-response","381","","","","1",""
"8420","","","","","3","html-keyboard-response","382","","","","",""
"4591","salmon","sensilyo,mzungu,seri,baharia","sensilyo","f","3","html-keyboard-response","383","f","sensilyo","true","","4"
"3556.899999976158","","","","","3","html-slider-response","384","","","","3",""
"8936","","","","","3","html-keyboard-response","385","","","","",""
"6573","shoulder","kelele,mkuu,ndaniya,guruwe","mkuu","v","3","html-keyboard-response","386","f","kelele","false","","4"
"2120.600000023842","","","","","3","html-slider-response","387","","","","1",""
"9844","","","","","3","html-keyboard-response","388","","","","",""
"4140","lamp","daub,bilaska,afya,mbolea","afya","j","3","html-keyboard-response","389","f","daub","false","","4"
"2183.699999988079","","","","","3","html-slider-response","390","","","","1",""
"3226","","","","","3","html-keyboard-response","391","","","","",""
"14169","shelf","bungtod,kadaot,pamahaw,awit","pamahaw","j","3","html-keyboard-response","392","j","pamahaw","true","","1"
"1733.699999988079","","","","","3","html-slider-response","393","","","","5",""
"8515","","","","","3","html-keyboard-response","394","","","","",""
"5133","human","bado,tinapay,kikapu,punguza","tinapay","v","3","html-keyboard-response","395","v","tinapay","true","","4"
"2104.800000011921","","","","","3","html-slider-response","396","","","","1",""
"8600","","","","","3","html-keyboard-response","397","","","","",""
"9184","towel","pagpalit,tembo,funzi,pito","pagpalit","f","3","html-keyboard-response","398","f","pagpalit","true","","4"
"1997.4000000357628","","","","","3","html-slider-response","399","","","","1",""
"10945","","","","","3","html-keyboard-response","400","","","","",""
"3690","cat","neyemba,baki,akili,paghukom","paghukom","n","3","html-keyboard-response","401","v","baki","false","","4"
"1897.699999988079","","","","","3","html-slider-response","402","","","","1",""
"8372","","","","","3","html-keyboard-response","403","","","","",""
"8411","spider","kamwe,bunyag,mkboa,atop","kamwe","f","3","html-keyboard-response","404","j","mkboa","false","","4"
"1910.300000011921","","","","","3","html-slider-response","405","","","","1",""
"9354","","","","","3","html-keyboard-response","406","","","","",""
"4524","window","nanga,kweli,kujenga,umaga","kweli","v","3","html-keyboard-response","407","v","kweli","true","","4"
"1786.300000011921","","","","","3","html-slider-response","408","","","","1",""
"3424","","","","","3","html-keyboard-response","409","","","","",""
"9701","woman","bandari,pagtabon,bituin,kovuli","pagtabon","v","3","html-keyboard-response","410","v","pagtabon","true","","1"
"2174.399999976158","","","","","3","html-slider-response","411","","","","5",""
"9680","","","","","3","html-keyboard-response","412","","","","",""
"3846","giraffe","daraja,jumatu,mahitabo,hangyo","mahitabo","j","3","html-keyboard-response","413","j","mahitabo","true","","4"
"1933.3999999761581","","","","","3","html-slider-response","414","","","","2",""
"9372","","","","","3","html-keyboard-response","415","","","","",""
"2779","elephant","petye,pagduol,suka,kito","kito","n","3","html-keyboard-response","416","n","kito","true","","4"
"2848.399999976158","","","","","3","html-slider-response","417","","","","4",""
"8744","","","","","3","html-keyboard-response","418","","","","",""
"3411","cave","ganti,maisha,kesho,nyundo","kesho","j","3","html-keyboard-response","419","j","kesho","true","","4"
"3013.5","","","","","3","html-slider-response","420","","","","2",""
"8819","","","","","3","html-keyboard-response","421","","","","",""
"2283","bread","kaili,dizeli,bugas,dari","dari","n","3","html-keyboard-response","422","n","dari","true","","4"
"1703.3999999761581","","","","","3","html-slider-response","423","","","","4",""
"8001","","","","","3","html-keyboard-response","424","","","","",""
"4187","stone","ulimwengu,mkasi,asili,wingi","wingi","n","3","html-keyboard-response","425","j","asili","false","","4"
"2216.600000023842","","","","","3","html-slider-response","426","","","","1",""
"10307","","","","","3","html-keyboard-response","427","","","","",""
"4819","donkey","bloke,elfu,lalake,rombus","elfu","v","3","html-keyboard-response","428","v","elfu","true","","4"
"1549.800000011921","","","","","3","html-slider-response","429","","","","4",""
"11521","","","","","3","html-keyboard-response","430","","","","",""
"5119","bridge","sahani,daima,ngono,panya","sahani","f","3","html-keyboard-response","431","f","sahani","true","","4"
"1550.800000011921","","","","","3","html-slider-response","432","","","","2",""
"8690","","","","","3","html-keyboard-response","433","","","","",""
"3563","bonfire","mwezi,mfuko,goti,kusanya","goti","j","3","html-keyboard-response","434","j","goti","true","","4"
"1583.300000011921","","","","","3","html-slider-response","435","","","","2",""
"7169","","","","","3","html-keyboard-response","436","","","","",""
"4679","book","kuhesa,picha,mara,mali","mali","n","3","html-keyboard-response","437","n","mali","true","","4"
"1796.4000000357628","","","","","3","html-slider-response","438","","","","4",""
"9012","","","","","3","html-keyboard-response","439","","","","",""
"3107","fish","bala,buli,baho,imani","buli","v","3","html-keyboard-response","440","v","buli","true","","4"
"1606.5","","","","","3","html-slider-response","441","","","","4",""
"8145","","","","","3","html-keyboard-response","442","","","","",""
"4880","spoon","betri,nzuri,ngazi,pagsulod","pagsulod","n","3","html-keyboard-response","443","n","pagsulod","true","","4"
"1737.2000000476837","","","","","3","html-slider-response","444","","","","2",""
"11079","","","","","3","html-keyboard-response","445","","","","",""
"5821","scissors","duga,mtawa,suga,tanuri","tanuri","n","3","html-keyboard-response","446","n","tanuri","true","","4"
"1731","","","","","3","html-slider-response","447","","","","2",""
"8649","","","","","3","html-keyboard-response","448","","","","",""
"4176","page","wakala,ishiri,skina,wimbo","wimbo","n","3","html-keyboard-response","449","j","skina","false","","4"
"1900.5999999642372","","","","","3","html-slider-response","450","","","","2",""
"8536","","","","","3","html-keyboard-response","451","","","","",""
"3355","nose","gubat,sehemu,kopa,kidole","sehemu","v","3","html-keyboard-response","452","v","sehemu","true","","1"
"2683.599999964237","","","","","3","html-slider-response","453","","","","5",""
"19995","","","","","3","html-keyboard-response","454","","","","",""
"7078","ceiling","maua,kugita,kawaida,rayna","maua","f","3","html-keyboard-response","455","n","rayna","false","","4"
"2442.099999964237","","","","","3","html-slider-response","456","","","","1",""
"8293","","","","","3","html-keyboard-response","457","","","","",""
"5729","bucket","baga,kiatu,ijayo,init","kiatu","v","3","html-keyboard-response","458","v","kiatu","true","","4"
"1777.0999999642372","","","","","3","html-slider-response","459","","","","2",""
"9383","","","","","3","html-keyboard-response","460","","","","",""
"4172","berry","abogado,nogozi,kofia,kinywa","kofia","j","3","html-keyboard-response","461","j","kofia","true","","1"
"2523.5","","","","","3","html-slider-response","462","","","","5",""
"8342","","","","","3","html-keyboard-response","463","","","","",""
"2356","mother","kahawa,mbuzi,babaye,jokofu","babaye","j","3","html-keyboard-response","464","j","babaye","true","","1"
"1901.699999988079","","","","","3","html-slider-response","465","","","","5",""
"9039","","","","","3","html-keyboard-response","466","","","","",""
"3859","mosquito","isda,taras,martilyo,gutom","martilyo","j","3","html-keyboard-response","467","j","martilyo","true","","4"
"1827.6000000238419","","","","","3","html-slider-response","468","","","","2",""
"8661","","","","","3","html-keyboard-response","469","","","","",""
"3760","perfume","bino,sungura,ndogo,katuyoan","katuyoan","n","3","html-keyboard-response","470","n","katuyoan","true","","4"
"1904.9000000357628","","","","","3","html-slider-response","471","","","","4",""
"8546","","","","","3","html-keyboard-response","472","","","","",""
"10180","sheet","juuya,bililhon,watu,kamantis","bililhon","v","3","html-keyboard-response","473","n","kamantis","false","","4"
"1867","","","","","3","html-slider-response","474","","","","2",""
"8405","","","","","3","html-keyboard-response","475","","","","",""
"1903","puppet","napulo,lamok,mazishi,godoro","mazishi","j","3","html-keyboard-response","476","j","mazishi","true","","1"
"1570.9000000357628","","","","","3","html-slider-response","477","","","","5",""
"8638","","","","","3","html-keyboard-response","478","","","","",""
"3995","poster","nchi,fedha,kasuko,madungog","madungog","n","3","html-keyboard-response","479","j","kasuko","false","","4"
"1763.5","","","","","3","html-slider-response","480","","","","1",""
"8790","","","","","3","html-keyboard-response","481","","","","",""
"3915","music","baiski,mraba,mageho,tumbo","baiski","f","3","html-keyboard-response","482","f","baiski","true","","4"
"1674.800000011921","","","","","3","html-slider-response","483","","","","2",""
"8665","","","","","3","html-keyboard-response","484","","","","",""
"3858","key","miaka,chombo,goma,ahos","chombo","v","3","html-keyboard-response","485","v","chombo","true","","4"
"1749.3999999761581","","","","","3","html-slider-response","486","","","","2",""
"9092","","","","","3","html-keyboard-response","487","","","","",""
"2520","sock","ndoora,mamba,kimysa,mtirka","mamba","v","3","html-keyboard-response","488","v","mamba","true","","4"
"3026.100000023842","","","","","3","html-slider-response","489","","","","4",""
"7525","","","","","3","html-keyboard-response","490","","","","",""
"1870","marker","mapafu,salita,maji,atay","maji","j","3","html-keyboard-response","491","j","maji","true","","4"
"2178.699999988079","","","","","3","html-slider-response","492","","","","4",""
"10589","","","","","3","html-keyboard-response","493","","","","",""
"4095","office","hazini,yatima,leso,kuna","leso","j","3","html-keyboard-response","494","n","kuna","false","","4"
"1935.7999999523163","","","","","3","html-slider-response","495","","","","1",""
"10166","","","","","3","html-keyboard-response","496","","","","",""
"6210","shoe","nyeusi,uyoga,hatua,kama","uyoga","v","3","html-keyboard-response","497","v","uyoga","true","","4"
"1547.3999999761581","","","","","3","html-slider-response","498","","","","4",""
"65152","","","","","3","html-keyboard-response","499","","","","",""
"3084","cop","mechezo,bustani,jikoni,bakus","mechezo","f","3","html-keyboard-response","500","f","mechezo","true","","4"
"1629","","","","","3","html-slider-response","501","","","","2",""
"11421","","","","","3","html-keyboard-response","502","","","","",""
"4411","bank","kudhibi,silingan,tualya,ofisi","silingan","v","3","html-keyboard-response","503","n","ofisi","false","","4"
"1895.0999999642372","","","","","3","html-slider-response","504","","","","2",""
"9118","","","","","3","html-keyboard-response","505","","","","",""
"2412","letter","filimbi,kifua,chuma,uhuru","kifua","v","3","html-keyboard-response","506","v","kifua","true","","1"
"1988.699999988079","","","","","3","html-slider-response","507","","","","5",""
"8516","","","","","3","html-keyboard-response","508","","","","",""
"2211","dog","lubi,washia,bahari,kalamu","bahari","j","3","html-keyboard-response","509","j","bahari","true","","1"
"1774.8999999761581","","","","","3","html-slider-response","510","","","","5",""
"9589","","","","","3","html-keyboard-response","511","","","","",""
"5522","shop","samaki,nopya,kerida,ndezu","samaki","f","3","html-keyboard-response","512","f","samaki","true","","4"
"2556.5","","","","","3","html-slider-response","513","","","","1",""
"10069","","","","","3","html-keyboard-response","514","","","","",""
"5884","flower","bega,tamasha,lobo,usiku","bega","f","3","html-keyboard-response","515","n","usiku","false","","4"
"1560.699999988079","","","","","3","html-slider-response","516","","","","2",""
"7202","","","","","3","html-keyboard-response","517","","","","",""
"2565","cigar","ndugu,kuta,mlango,adhabu","adhabu","n","3","html-keyboard-response","518","n","adhabu","true","","1"
"2117.600000023842","","","","","3","html-slider-response","519","","","","5",""
"8338","","","","","3","html-keyboard-response","520","","","","",""
"9607","hammer","mekno,kitovu,layag,napakyas","napakyas","n","3","html-keyboard-response","521","n","napakyas","true","","4"
"2050.699999988079","","","","","3","html-slider-response","522","","","","1",""
"10798","","","","","3","html-keyboard-response","523","","","","",""
"6787","fork","baboy,paghago,mgonjwa,gorisi","mgonjwa","j","3","html-keyboard-response","524","j","mgonjwa","true","","4"
"1926.6000000238419","","","","","3","html-slider-response","525","","","","1",""
"9134","","","","","3","html-keyboard-response","526","","","","",""
"4844","sun","bendi,basi,luha,uongo","basi","v","3","html-keyboard-response","527","v","basi","true","","1"
"1804.3999999761581","","","","","3","html-slider-response","528","","","","5",""
"7896","","","","","3","html-keyboard-response","529","","","","",""
"4658","ladder","mashua,mwanga,kamba,pangalan","pangalan","n","3","html-keyboard-response","530","n","pangalan","true","","4"
"1869.5","","","","","3","html-slider-response","531","","","","2",""
"7797","","","","","3","html-keyboard-response","532","","","","",""
"2526","banana","kasamok,hagdan,twai,kazi","kazi","n","3","html-keyboard-response","533","n","kazi","true","","1"
"2163","","","","","3","html-slider-response","534","","","","5",""
"7316","","","","","3","html-keyboard-response","535","","","","",""
"3429","pudding","aibu,abug,mpishi,iring","aibu","f","3","html-keyboard-response","536","f","aibu","true","","4"
"2500.5","","","","","3","html-slider-response","537","","","","4",""
"6969","","","","","3","html-keyboard-response","538","","","","",""
"5950","body","nyundu,jibini,kununa,tindashan","tindashan","n","3","html-keyboard-response","539","n","tindashan","true","","4"
"1411","","","","","3","html-slider-response","540","","","","2",""
"9566","","","","","3","html-keyboard-response","541","","","","",""
"4683","bed","kalipay,haraka,mapintas,starehe","mapintas","j","3","html-keyboard-response","542","f","kalipay","false","","4"
"2422.400000035763","","","","","3","html-slider-response","543","","","","1",""
"14591","","","","","3","html-keyboard-response","544","","","","",""
"6860","tissue","lamigas,ugomvi,kisiwa,katika","ugomvi","v","3","html-keyboard-response","545","j","kisiwa","false","","4"
"1452.300000011921","","","","","3","html-slider-response","546","","","","2",""
"10715","","","","","3","html-keyboard-response","547","","","","",""
"3483","candle","gabi,geza,farasi,kupanda","geza","v","3","html-keyboard-response","548","v","geza","true","","4"
"1487.800000011921","","","","","3","html-slider-response","549","","","","4",""
"7454","","","","","3","html-keyboard-response","550","","","","",""
"1780","tomato","mvua,chupi,chupa,takatak","mvua","f","3","html-keyboard-response","551","f","mvua","true","","1"
"1714.8999999761581","","","","","3","html-slider-response","552","","","","5",""
"8156","","","","","3","html-keyboard-response","553","","","","",""
"6220","list","wingu,alizeti,kuzama,kaso","wingu","f","3","html-keyboard-response","554","v","alizeti","false","","4"
"3149.5","","","","","3","html-slider-response","555","","","","1",""
"10285","","","","","3","html-keyboard-response","556","","","","",""
"4023","olive","bata,siagi,welder,jiwe","jiwe","n","3","html-keyboard-response","557","n","jiwe","true","","4"
"1509.8999999761581","","","","","3","html-slider-response","558","","","","4",""
"7443","","","","","3","html-keyboard-response","559","","","","",""
"1667","picture","silya,kubwa,chaki,asin","kubwa","v","3","html-keyboard-response","560","v","kubwa","true","","1"
"1686.5","","","","","3","html-slider-response","561","","","","5",""
"8043","","","","","3","html-keyboard-response","562","","","","",""
"9309","page","wakala,ishiri,wimbo,skina","wimbo","j","4","html-keyboard-response","888","j","wimbo","true","",""
"2670.300000011921","","","","","4","html-slider-response","889","","","","2",""
"2728","sheet","juuya,watu,bililhon,kamantis","bililhon","j","4","html-keyboard-response","890","j","bililhon","true","",""
"1918.7999999523163","","","","","4","html-slider-response","891","","","","4",""
"2129","ladder","mashua,mwanga,kamba,pangalan","pangalan","n","4","html-keyboard-response","892","n","pangalan","true","",""
"2087.699999988079","","","","","4","html-slider-response","893","","","","4",""
"6686","door","tena,soko,nyota,surali","surali","n","4","html-keyboard-response","894","n","surali","true","",""
"2284.199999988079","","","","","4","html-slider-response","895","","","","2",""
"3335","spider","bunyag,mkboa,atop,kamwe","kamwe","n","4","html-keyboard-response","896","n","kamwe","true","",""
"2847.899999976158","","","","","4","html-slider-response","897","","","","3",""
"4329","picture","silya,chaki,asin,kubwa","kubwa","n","4","html-keyboard-response","898","n","kubwa","true","",""
"1660.1000000238419","","","","","4","html-slider-response","899","","","","4",""
"3712","boat","hamsi,pombe,agalon,kitanda","agalon","j","4","html-keyboard-response","900","j","agalon","true","",""
"1460.3999999761581","","","","","4","html-slider-response","901","","","","4",""
"1840","donkey","bloke,elfu,lalake,rombus","elfu","v","4","html-keyboard-response","902","v","elfu","true","",""
"1983.699999988079","","","","","4","html-slider-response","903","","","","5",""
"1761","book","kuhesa,mali,picha,mara","mali","v","4","html-keyboard-response","904","v","mali","true","",""
"1904.2000000476837","","","","","4","html-slider-response","905","","","","5",""
"14077","cup","matumai,dagat,shimoni,jeraha","matumai","f","4","html-keyboard-response","906","f","matumai","true","",""
"2409","","","","","4","html-slider-response","907","","","","2",""
"1950","sun","bendi,luha,uongo,basi","basi","n","4","html-keyboard-response","908","n","basi","true","",""
"1802.300000011921","","","","","4","html-slider-response","909","","","","4",""
"1582","pudding","abug,aibu,mpishi,iring","aibu","v","4","html-keyboard-response","910","v","aibu","true","",""
"1779.3999999761581","","","","","4","html-slider-response","911","","","","4",""
"2310","human","bado,tinapay,kikapu,punguza","tinapay","v","4","html-keyboard-response","912","v","tinapay","true","",""
"3259.900000035763","","","","","4","html-slider-response","913","","","","2",""
"1735","squirrel","mahugaw,hofu,ukweli,kichwa","hofu","v","4","html-keyboard-response","914","v","hofu","true","",""
"3009.7000000476837","","","","","4","html-slider-response","915","","","","2",""
"1772","park","tambok,pwani,ihalas,bunifu","bunifu","n","4","html-keyboard-response","916","n","bunifu","true","",""
"3188.800000011921","","","","","4","html-slider-response","917","","","","4",""
"18031","poster","madungog,nchi,fedha,kasuko","madungog","f","4","html-keyboard-response","918","f","madungog","true","",""
"3265.199999988079","","","","","4","html-slider-response","919","","","","2",""
"2317","wolf","kaburi,ndizi,mchuzi,lugha","lugha","n","4","html-keyboard-response","920","n","lugha","true","",""
"1843.8999999761581","","","","","4","html-slider-response","921","","","","3",""
"3881","cat","neyemba,baki,paghukom,akili","paghukom","j","4","html-keyboard-response","922","j","paghukom","true","",""
"2656.600000023842","","","","","4","html-slider-response","923","","","","3",""
"2982","fish","bala,baho,buli,imani","buli","j","4","html-keyboard-response","924","j","buli","true","",""
"2266.5","","","","","4","html-slider-response","925","","","","5",""
"3817","tooth","kijiko,uadui,kabalaka,pahiyum","kabalaka","j","4","html-keyboard-response","926","j","kabalaka","true","",""
"1634.5","","","","","4","html-slider-response","927","","","","1",""
"3492","cave","ganti,maisha,kesho,nyundo","kesho","j","4","html-keyboard-response","928","j","kesho","true","",""
"1570.7000000476837","","","","","4","html-slider-response","929","","","","2",""
"2277","lamp","daub,bilaska,afya,mbolea","afya","j","4","html-keyboard-response","930","j","afya","true","",""
"2884.399999976158","","","","","4","html-slider-response","931","","","","3",""
"1796","banana","kazi,kasamok,hagdan,twai","kazi","f","4","html-keyboard-response","932","f","kazi","true","",""
"2181.099999964237","","","","","4","html-slider-response","933","","","","4",""
"4263","bonfire","mwezi,mfuko,goti,kusanya","goti","j","4","html-keyboard-response","934","j","goti","true","",""
"2817.399999976158","","","","","4","html-slider-response","935","","","","2",""
"2533","cop","bustani,jikoni,mechezo,bakus","mechezo","j","4","html-keyboard-response","936","j","mechezo","true","",""
"1594.4000000357628","","","","","4","html-slider-response","937","","","","4",""
"1726","marker","mapafu,maji,salita,atay","maji","v","4","html-keyboard-response","938","v","maji","true","",""
"1594.4000000357628","","","","","4","html-slider-response","939","","","","5",""
"2815","window","nanga,kujenga,kweli,umaga","kweli","j","4","html-keyboard-response","940","j","kweli","true","",""
"1356.2000000476837","","","","","4","html-slider-response","941","","","","4",""
"2741","body","nyundu,jibini,kununa,tindashan","tindashan","n","4","html-keyboard-response","942","n","tindashan","true","",""
"2059.800000011921","","","","","4","html-slider-response","943","","","","3",""
"4932","apple","ukame,kisu,estante,edad","kisu","v","4","html-keyboard-response","944","v","kisu","true","",""
"1971.4000000357628","","","","","4","html-slider-response","945","","","","3",""
"2563","salmon","mzungu,sensilyo,seri,baharia","sensilyo","v","4","html-keyboard-response","946","v","sensilyo","true","",""
"1407.199999988079","","","","","4","html-slider-response","947","","","","4",""
"3220","bed","kalipay,mapintas,haraka,starehe","mapintas","v","4","html-keyboard-response","948","v","mapintas","true","",""
"2097.600000023842","","","","","4","html-slider-response","949","","","","4",""
"2238","berry","abogado,nogozi,kinywa,kofia","kofia","n","4","html-keyboard-response","950","n","kofia","true","",""
"1971.300000011921","","","","","4","html-slider-response","951","","","","4",""
"6173","mirror","rangi,kanding,furaha,sulagma","sulagma","n","4","html-keyboard-response","952","n","sulagma","true","",""
"2035.5","","","","","4","html-slider-response","953","","","","2",""
"3892","flag","trekta,ndege,mkate,kawa","trekta","f","4","html-keyboard-response","954","f","trekta","true","",""
"1315.0999999642372","","","","","4","html-slider-response","955","","","","4",""
"4120","shoulder","kelele,ndaniya,mkuu,guruwe","mkuu","j","4","html-keyboard-response","956","j","mkuu","true","",""
"2248.599999964237","","","","","4","html-slider-response","957","","","","2",""
"4488","tissue","ugomvi,lamigas,kisiwa,katika","ugomvi","f","4","html-keyboard-response","958","f","ugomvi","true","",""
"1458.300000011921","","","","","4","html-slider-response","959","","","","1",""
"4646","notebook","msitu,kila,mdudu,kemia","kemia","n","4","html-keyboard-response","960","n","kemia","true","",""
"1339.0999999642372","","","","","4","html-slider-response","961","","","","4",""
"6252","snake","pagtukod,jansa,karon,mvringo","pagtukod","f","4","html-keyboard-response","962","f","pagtukod","true","",""
"1732.3999999761581","","","","","4","html-slider-response","963","","","","4",""
"1749","finger","simu,moyo,sufuria,lima","moyo","v","4","html-keyboard-response","964","v","moyo","true","",""
"2300.399999976158","","","","","4","html-slider-response","965","","","","2",""
"9997","basket","kumbuka,kumba,utepe,hasira","kumba","v","4","html-keyboard-response","966","f","kumbuka","false","",""
"10614.599999964237","","","","","4","html-slider-response","967","","","","2",""
"3483","curtain","mchanga,lisud,bulwawan,chubani","mchanga","f","4","html-keyboard-response","968","f","mchanga","true","",""
"2356.5","","","","","4","html-slider-response","969","","","","3",""
"2828","perfume","katuyoan,bino,sungura,ndogo","katuyoan","f","4","html-keyboard-response","970","f","katuyoan","true","",""
"1499.199999988079","","","","","4","html-slider-response","971","","","","4",""
"3554","key","miaka,chombo,goma,ahos","chombo","v","4","html-keyboard-response","972","v","chombo","true","",""
"3045.2999999523163","","","","","4","html-slider-response","973","","","","3",""
"2447","olive","bata,siagi,jiwe,welder","jiwe","j","4","html-keyboard-response","974","j","jiwe","true","",""
"1562.9000000357628","","","","","4","html-slider-response","975","","","","4",""
"3206","rose","singizi,mwanake,amani,paghalad","paghalad","n","4","html-keyboard-response","976","n","paghalad","true","",""
"2883.400000035763","","","","","4","html-slider-response","977","","","","3",""
"5269","bridge","daima,sahani,ngono,panya","sahani","v","4","html-keyboard-response","978","v","sahani","true","",""
"2531","","","","","4","html-slider-response","979","","","","2",""
"1661","hill","kushoto,matumbo,kukimba,sweta","matumbo","v","4","html-keyboard-response","980","v","matumbo","true","",""
"1508.199999988079","","","","","4","html-slider-response","981","","","","5",""
"10705","letter","filimbi,kifua,chuma,uhuru","kifua","v","4","html-keyboard-response","982","v","kifua","true","",""
"1759.7999999523163","","","","","4","html-slider-response","983","","","","1",""
"2638","sock","ndoora,kimysa,mamba,mtirka","mamba","j","4","html-keyboard-response","984","j","mamba","true","",""
"1826.5999999642372","","","","","4","html-slider-response","985","","","","5",""
"3339","fork","baboy,mgonjwa,paghago,gorisi","mgonjwa","v","4","html-keyboard-response","986","v","mgonjwa","true","",""
"1590.6000000238419","","","","","4","html-slider-response","987","","","","2",""
"3990","box","kuacha,adui,rafiki,kitande","adui","v","4","html-keyboard-response","988","v","adui","true","",""
"1962.8999999761581","","","","","4","html-slider-response","989","","","","3",""
"12471","gift","baba,pagtawag,nyange,baso","pagtawag","v","4","html-keyboard-response","990","v","pagtawag","true","",""
"1568.199999988079","","","","","4","html-slider-response","991","","","","2",""
"6864","bucket","baga,kiatu,ijayo,init","kiatu","v","4","html-keyboard-response","992","v","kiatu","true","",""
"1787.5","","","","","4","html-slider-response","993","","","","4",""
"3861","shop","nopya,kerida,ndezu,samaki","samaki","n","4","html-keyboard-response","994","n","samaki","true","",""
"1930.5999999642372","","","","","4","html-slider-response","995","","","","4",""
"1884","puppet","napulo,mazishi,lamok,godoro","mazishi","v","4","html-keyboard-response","996","v","mazishi","true","",""
"1476.300000011921","","","","","4","html-slider-response","997","","","","4",""
"5093","nose","gubat,kopa,kidole,sehemu","sehemu","n","4","html-keyboard-response","998","n","sehemu","true","",""
"1971.4000000357628","","","","","4","html-slider-response","999","","","","3",""
"3967","music","mraba,mageho,baiski,tumbo","baiski","j","4","html-keyboard-response","1000","j","baiski","true","",""
"3240.600000023842","","","","","4","html-slider-response","1001","","","","3",""
"2513","dog","lubi,washia,bahari,kalamu","bahari","j","4","html-keyboard-response","1002","j","bahari","true","",""
"1721.5999999642372","","","","","4","html-slider-response","1003","","","","4",""
"2789","eel","ishara,kunywa,msumari,kabuang","msumari","j","4","html-keyboard-response","1004","j","msumari","true","",""
"2394.800000011921","","","","","4","html-slider-response","1005","","","","4",""
"2061","number","mundamo,shule,kengele,choori","mundamo","f","4","html-keyboard-response","1006","f","mundamo","true","",""
"1844","","","","","4","html-slider-response","1007","","","","4",""
"2460","tomato","chupi,chupa,mvua,takatak","mvua","j","4","html-keyboard-response","1008","j","mvua","true","",""
"3417.699999988079","","","","","4","html-slider-response","1009","","","","4",""
"1754","coffin","kioo,barua,tubag,hulma","kioo","f","4","html-keyboard-response","1010","f","kioo","true","",""
"1436.5","","","","","4","html-slider-response","1011","","","","4",""
"5258","knee","duka,mvuke,kubale,bili","duka","f","4","html-keyboard-response","1012","f","duka","true","",""
"1350.8999999761581","","","","","4","html-slider-response","1013","","","","4",""
"3750","woman","pagtabon,bandari,bituin,kovuli","pagtabon","f","4","html-keyboard-response","1014","f","pagtabon","true","",""
"3491.199999988079","","","","","4","html-slider-response","1015","","","","3",""
"3597","stone","ulimwengu,mkasi,asili,wingi","wingi","n","4","html-keyboard-response","1016","n","wingi","true","",""
"2147.7999999523163","","","","","4","html-slider-response","1017","","","","2",""
"1580","bread","kaili,dizeli,bugas,dari","dari","n","4","html-keyboard-response","1018","n","dari","true","",""
"4669.399999976158","","","","","4","html-slider-response","1019","","","","5",""
"2939","triangle","kihozi,bentaha,kasadpan,liog","kasadpan","j","4","html-keyboard-response","1020","j","kasadpan","true","",""
"2731.600000023842","","","","","4","html-slider-response","1021","","","","3",""
"3887","scissors","tanuri,duga,mtawa,suga","tanuri","f","4","html-keyboard-response","1022","f","tanuri","true","",""
"1616.800000011921","","","","","4","html-slider-response","1023","","","","2",""
"2686","giraffe","daraja,jumatu,mahitabo,hangyo","mahitabo","j","4","html-keyboard-response","1024","j","mahitabo","true","",""
"2137.7000000476837","","","","","4","html-slider-response","1025","","","","4",""
"2966","flower","bega,tamasha,lobo,usiku","bega","f","4","html-keyboard-response","1026","f","bega","true","",""
"1458.699999988079","","","","","4","html-slider-response","1027","","","","4",""
"2597","candle","gabi,farasi,geza,kupanda","geza","j","4","html-keyboard-response","1028","j","geza","true","",""
"1364.699999988079","","","","","4","html-slider-response","1029","","","","4",""
"2132","mother","kahawa,mbuzi,babaye,jokofu","babaye","j","4","html-keyboard-response","1030","j","babaye","true","",""
"1278","","","","","4","html-slider-response","1031","","","","4",""
"6333","towel","tembo,pagpalit,funzi,pito","pagpalit","v","4","html-keyboard-response","1032","v","pagpalit","true","",""
"1636.4000000357628","","","","","4","html-slider-response","1033","","","","2",""
"1727","elephant","petye,pagduol,kito,suka","kito","j","4","html-keyboard-response","1034","j","kito","true","",""
"1594.5","","","","","4","html-slider-response","1035","","","","5",""
"3478","shelf","bungtod,kadaot,pamahaw,awit","pamahaw","j","4","html-keyboard-response","1036","j","pamahaw","true","",""
"1995.199999988079","","","","","4","html-slider-response","1037","","","","2",""
"2277","mosquito","martilyo,isda,taras,gutom","martilyo","f","4","html-keyboard-response","1038","f","martilyo","true","",""
"1946.9000000357628","","","","","4","html-slider-response","1039","","","","4",""
"3981","column","pundok,dila,ufagio,pala","ufagio","j","4","html-keyboard-response","1040","j","ufagio","true","",""
"1675.6000000238419","","","","","4","html-slider-response","1041","","","","2",""
"5941","pants","pintal,haki,chuki,hari","haki","v","4","html-keyboard-response","1042","v","haki","true","",""
"3690.899999976158","","","","","4","html-slider-response","1043","","","","3",""
"3855","list","alizeti,kuzama,kaso,wingu","wingu","n","4","html-keyboard-response","1044","n","wingu","true","",""
"2289.600000023842","","","","","4","html-slider-response","1045","","","","2",""
"3997","bank","kudhibi,tualya,silingan,ofisi","silingan","j","4","html-keyboard-response","1046","j","silingan","true","",""
"1409.300000011921","","","","","4","html-slider-response","1047","","","","4",""
"3293","clock","kartasi,mbwa,abang,osha","mbwa","v","4","html-keyboard-response","1048","v","mbwa","true","",""
"2306.699999988079","","","","","4","html-slider-response","1049","","","","2",""
"8097","ceiling","maua,kugita,kawaida,rayna","maua","f","4","html-keyboard-response","1050","f","maua","true","",""
"1760.699999988079","","","","","4","html-slider-response","1051","","","","1",""
"3719","train","itik,sayari,dakika,mungu","sayari","v","4","html-keyboard-response","1052","v","sayari","true","",""
"2929.800000011921","","","","","4","html-slider-response","1053","","","","3",""
"3079","magazine","gundi,mchawi,kiti,bahandi","kiti","j","4","html-keyboard-response","1054","j","kiti","true","",""
"1881.5","","","","","4","html-slider-response","1055","","","","2",""
"1894","office","hazini,yatima,kuna,leso","leso","n","4","html-keyboard-response","1056","n","leso","true","",""
"1851.6000000238419","","","","","4","html-slider-response","1057","","","","4",""
"1765","wheel","bafuni,punda,tawo,baadaye","bafuni","f","4","html-keyboard-response","1058","f","bafuni","true","",""
"2243.100000023842","","","","","4","html-slider-response","1059","","","","4",""
"5269","spoon","betri,nzuri,pagsulod,ngazi","pagsulod","j","4","html-keyboard-response","1060","j","pagsulod","true","",""
"1642.3999999761581","","","","","4","html-slider-response","1061","","","","2",""
"3028","hammer","mekno,kitovu,layag,napakyas","napakyas","n","4","html-keyboard-response","1062","n","napakyas","true","",""
"1316","","","","","4","html-slider-response","1063","","","","4",""
"2026","cigar","ndugu,kuta,adhabu,mlango","adhabu","j","4","html-keyboard-response","1064","j","adhabu","true","",""
"2228.100000023842","","","","","4","html-slider-response","1065","","","","4",""
"2326","shoe","nyeusi,uyoga,hatua,kama","uyoga","v","4","html-keyboard-response","1066","v","uyoga","true","",""
"2293.600000023842","","","","","4","html-slider-response","1067","","","","4",""
"5508","list","alizeti,kuzama,kaso,wingu","wingu","n","5","html-keyboard-response","1069","n","wingu","true","",""
"3066","","","","","5","html-slider-response","1070","","","","2",""
"1627","number","mundamo,shule,kengele,choori","mundamo","f","5","html-keyboard-response","1071","f","mundamo","true","",""
"1460.699999988079","","","","","5","html-slider-response","1072","","","","4",""
"3984","apple","ukame,kisu,estante,edad","kisu","v","5","html-keyboard-response","1073","v","kisu","true","",""
"2104.399999976158","","","","","5","html-slider-response","1074","","","","4",""
"2063","knee","duka,mvuke,kubale,bili","duka","f","5","html-keyboard-response","1075","f","duka","true","",""
"1714.7000000476837","","","","","5","html-slider-response","1076","","","","4",""
"3134","tooth","kijiko,uadui,kabalaka,pahiyum","kabalaka","j","5","html-keyboard-response","1077","j","kabalaka","true","",""
"1675.0999999642372","","","","","5","html-slider-response","1078","","","","2",""
"1653","berry","abogado,nogozi,kofia,kinywa","kofia","j","5","html-keyboard-response","1079","j","kofia","true","",""
"1481.300000011921","","","","","5","html-slider-response","1080","","","","4",""
"5285","bridge","sahani,daima,ngono,panya","sahani","f","5","html-keyboard-response","1081","f","sahani","true","",""
"1683.5","","","","","5","html-slider-response","1082","","","","2",""
"2015","perfume","katuyoan,bino,sungura,ndogo","katuyoan","f","5","html-keyboard-response","1083","f","katuyoan","true","",""
"1592.699999988079","","","","","5","html-slider-response","1084","","","","4",""
"4311","ladder","pangalan,mashua,mwanga,kamba","pangalan","f","5","html-keyboard-response","1085","f","pangalan","true","",""
"1624.8999999761581","","","","","5","html-slider-response","1086","","","","4",""
"1423","pants","haki,pintal,chuki,hari","haki","f","5","html-keyboard-response","1087","f","haki","true","",""
"1882.300000011921","","","","","5","html-slider-response","1088","","","","4",""
"4205","salmon","mzungu,sensilyo,seri,baharia","sensilyo","v","5","html-keyboard-response","1089","v","sensilyo","true","",""
"1978.5999999642372","","","","","5","html-slider-response","1090","","","","4",""
"1933","coffin","barua,tubag,hulma,kioo","kioo","n","5","html-keyboard-response","1091","n","kioo","true","",""
"1418.4000000357628","","","","","5","html-slider-response","1092","","","","4",""
"1693","park","tambok,pwani,ihalas,bunifu","bunifu","n","5","html-keyboard-response","1093","n","bunifu","true","",""
"1387","","","","","5","html-slider-response","1094","","","","4",""
"1900","giraffe","daraja,jumatu,mahitabo,hangyo","mahitabo","j","5","html-keyboard-response","1095","j","mahitabo","true","",""
"1603.9000000357628","","","","","5","html-slider-response","1096","","","","4",""
"4525","mirror","rangi,sulagma,kanding,furaha","sulagma","v","5","html-keyboard-response","1097","v","sulagma","true","",""
"1922.800000011921","","","","","5","html-slider-response","1098","","","","2",""
"2647","ceiling","kugita,kawaida,maua,rayna","maua","j","5","html-keyboard-response","1099","j","maua","true","",""
"1713.4000000357628","","","","","5","html-slider-response","1100","","","","2",""
"1423","marker","mapafu,maji,salita,atay","maji","v","5","html-keyboard-response","1101","v","maji","true","",""
"1840.5999999642372","","","","","5","html-slider-response","1102","","","","4",""
"1830","sock","ndoora,kimysa,mamba,mtirka","mamba","j","5","html-keyboard-response","1103","j","mamba","true","",""
"1498.199999988079","","","","","5","html-slider-response","1104","","","","4",""
"2047","cop","mechezo,bustani,jikoni,bakus","mechezo","f","5","html-keyboard-response","1105","f","mechezo","true","",""
"1235.9000000357628","","","","","5","html-slider-response","1106","","","","4",""
"6086","gift","baba,pagtawag,nyange,baso","pagtawag","v","5","html-keyboard-response","1107","v","pagtawag","true","",""
"3012","","","","","5","html-slider-response","1108","","","","2",""
"2592","notebook","msitu,kemia,kila,mdudu","kemia","v","5","html-keyboard-response","1109","v","kemia","true","",""
"1488.699999988079","","","","","5","html-slider-response","1110","","","","4",""
"1795","bank","kudhibi,silingan,tualya,ofisi","silingan","v","5","html-keyboard-response","1111","v","silingan","true","",""
"1293.199999988079","","","","","5","html-slider-response","1112","","","","4",""
"5735","letter","filimbi,chuma,kifua,uhuru","kifua","j","5","html-keyboard-response","1113","j","kifua","true","",""
"1489.199999988079","","","","","5","html-slider-response","1114","","","","2",""
"2878","candle","gabi,farasi,kupanda,geza","geza","n","5","html-keyboard-response","1115","n","geza","true","",""
"1281.300000011921","","","","","5","html-slider-response","1116","","","","4",""
"1750","bread","kaili,dizeli,bugas,dari","dari","n","5","html-keyboard-response","1117","n","dari","true","",""
"1683.0999999642372","","","","","5","html-slider-response","1118","","","","4",""
"2677","snake","jansa,karon,pagtukod,mvringo","pagtukod","j","5","html-keyboard-response","1119","j","pagtukod","true","",""
"1387.2999999523163","","","","","5","html-slider-response","1120","","","","4",""
"2213","rose","singizi,mwanake,amani,paghalad","paghalad","n","5","html-keyboard-response","1121","n","paghalad","true","",""
"1836","","","","","5","html-slider-response","1122","","","","4",""
"2299","hill","kushoto,kukimba,sweta,matumbo","matumbo","n","5","html-keyboard-response","1123","n","matumbo","true","",""
"1972.199999988079","","","","","5","html-slider-response","1124","","","","4",""
"1948","train","itik,sayari,dakika,mungu","sayari","v","5","html-keyboard-response","1125","v","sayari","true","",""
"1925.3999999761581","","","","","5","html-slider-response","1126","","","","4",""
"1871","shop","nopya,samaki,kerida,ndezu","samaki","v","5","html-keyboard-response","1127","v","samaki","true","",""
"2065.400000035763","","","","","5","html-slider-response","1128","","","","4",""
"2806","nose","gubat,kopa,kidole,sehemu","sehemu","n","5","html-keyboard-response","1129","n","sehemu","true","",""
"1809.8999999761581","","","","","5","html-slider-response","1130","","","","4",""
"2965","boat","hamsi,agalon,pombe,kitanda","agalon","v","5","html-keyboard-response","1131","v","agalon","true","",""
"2106.7999999523163","","","","","5","html-slider-response","1132","","","","4",""
"2045","body","nyundu,jibini,kununa,tindashan","tindashan","n","5","html-keyboard-response","1133","n","tindashan","true","",""
"1732.5999999642372","","","","","5","html-slider-response","1134","","","","4",""
"2021","bed","kalipay,mapintas,haraka,starehe","mapintas","v","5","html-keyboard-response","1135","v","mapintas","true","",""
"1524.2999999523163","","","","","5","html-slider-response","1136","","","","4",""
"1580","squirrel","mahugaw,ukweli,hofu,kichwa","hofu","j","5","html-keyboard-response","1137","j","hofu","true","",""
"1421.699999988079","","","","","5","html-slider-response","1138","","","","4",""
"2524","window","kweli,nanga,kujenga,umaga","kweli","f","5","html-keyboard-response","1139","f","kweli","true","",""
"1453.699999988079","","","","","5","html-slider-response","1140","","","","4",""
"1531","bonfire","mwezi,goti,mfuko,kusanya","goti","v","5","html-keyboard-response","1141","v","goti","true","",""
"1622.5999999642372","","","","","5","html-slider-response","1142","","","","4",""
"1886","fish","bala,baho,buli,imani","buli","j","5","html-keyboard-response","1143","j","buli","true","",""
"1641.699999988079","","","","","5","html-slider-response","1144","","","","4",""
"5406","cat","neyemba,baki,akili,paghukom","paghukom","n","5","html-keyboard-response","1145","n","paghukom","true","",""
"1705.800000011921","","","","","5","html-slider-response","1146","","","","4",""
"2567","spider","bunyag,mkboa,atop,kamwe","kamwe","n","5","html-keyboard-response","1147","n","kamwe","true","",""
"1337.699999988079","","","","","5","html-slider-response","1148","","","","4",""
"1884","eel","ishara,msumari,kunywa,kabuang","msumari","v","5","html-keyboard-response","1149","v","msumari","true","",""
"1347.3999999761581","","","","","5","html-slider-response","1150","","","","4",""
"2885","woman","pagtabon,bandari,bituin,kovuli","pagtabon","f","5","html-keyboard-response","1151","f","pagtabon","true","",""
"1460.5","","","","","5","html-slider-response","1152","","","","4",""
"1796","magazine","gundi,mchawi,kiti,bahandi","kiti","j","5","html-keyboard-response","1153","j","kiti","true","",""
"1709.5999999642372","","","","","5","html-slider-response","1154","","","","4",""
"1799","pudding","aibu,abug,mpishi,iring","aibu","f","5","html-keyboard-response","1155","f","aibu","true","",""
"1513.0999999642372","","","","","5","html-slider-response","1156","","","","4",""
"1534","lamp","afya,daub,bilaska,mbolea","afya","f","5","html-keyboard-response","1157","f","afya","true","",""
"1922.0999999642372","","","","","5","html-slider-response","1158","","","","4",""
"3926","cave","kesho,ganti,maisha,nyundo","kesho","f","5","html-keyboard-response","1159","f","kesho","true","",""
"3409.5","","","","","5","html-slider-response","1160","","","","3",""
"1957","shoulder","kelele,ndaniya,mkuu,guruwe","mkuu","j","5","html-keyboard-response","1161","j","mkuu","true","",""
"1482.7999999523163","","","","","5","html-slider-response","1162","","","","4",""
"3765","stone","ulimwengu,mkasi,asili,wingi","wingi","n","5","html-keyboard-response","1163","n","wingi","true","",""
"2154.399999976158","","","","","5","html-slider-response","1164","","","","2",""
"4079","column","ufagio,pundok,dila,pala","ufagio","f","5","html-keyboard-response","1165","f","ufagio","true","",""
"2474.400000035763","","","","","5","html-slider-response","1166","","","","3",""
"4328","page","wimbo,wakala,ishiri,skina","wimbo","f","5","html-keyboard-response","1167","f","wimbo","true","",""
"1528.2999999523163","","","","","5","html-slider-response","1168","","","","2",""
"1761","shoe","uyoga,nyeusi,hatua,kama","uyoga","f","5","html-keyboard-response","1169","f","uyoga","true","",""
"1514.699999988079","","","","","5","html-slider-response","1170","","","","4",""
"2567","clock","mbwa,kartasi,abang,osha","mbwa","f","5","html-keyboard-response","1171","f","mbwa","true","",""
"1906","","","","","5","html-slider-response","1172","","","","4",""
"2533","towel","tembo,funzi,pagpalit,pito","pagpalit","j","5","html-keyboard-response","1173","j","pagpalit","true","",""
"1758.699999988079","","","","","5","html-slider-response","1174","","","","4",""
"1462","tomato","mvua,chupi,chupa,takatak","mvua","f","5","html-keyboard-response","1175","f","mvua","true","",""
"1355.6000000238419","","","","","5","html-slider-response","1176","","","","4",""
"2285","bucket","baga,ijayo,kiatu,init","kiatu","j","5","html-keyboard-response","1177","j","kiatu","true","",""
"1548.300000011921","","","","","5","html-slider-response","1178","","","","4",""
"1636","finger","moyo,simu,sufuria,lima","moyo","f","5","html-keyboard-response","1179","f","moyo","true","",""
"1412.6000000238419","","","","","5","html-slider-response","1180","","","","4",""
"2140","mother","kahawa,babaye,mbuzi,jokofu","babaye","v","5","html-keyboard-response","1181","v","babaye","true","",""
"1955.699999988079","","","","","5","html-slider-response","1182","","","","4",""
"3199","human","bado,kikapu,tinapay,punguza","tinapay","j","5","html-keyboard-response","1183","j","tinapay","true","",""
"1681.5999999642372","","","","","5","html-slider-response","1184","","","","4",""
"1630","sun","bendi,luha,uongo,basi","basi","n","5","html-keyboard-response","1185","n","basi","true","",""
"1282.199999988079","","","","","5","html-slider-response","1186","","","","4",""
"5813","fork","baboy,mgonjwa,paghago,gorisi","mgonjwa","v","5","html-keyboard-response","1187","v","mgonjwa","true","",""
"1666.8999999761581","","","","","5","html-slider-response","1188","","","","1",""
"1757","donkey","elfu,bloke,lalake,rombus","elfu","f","5","html-keyboard-response","1189","f","elfu","true","",""
"3010.800000011921","","","","","5","html-slider-response","1190","","","","4",""
"2557","wolf","lugha,kaburi,ndizi,mchuzi","lugha","f","5","html-keyboard-response","1191","f","lugha","true","",""
"1498","","","","","5","html-slider-response","1192","","","","4",""
"2324","cigar","adhabu,ndugu,kuta,mlango","adhabu","f","5","html-keyboard-response","1193","f","adhabu","true","",""
"1852","","","","","5","html-slider-response","1194","","","","4",""
"1619","olive","bata,siagi,jiwe,welder","jiwe","j","5","html-keyboard-response","1195","j","jiwe","true","",""
"1389","","","","","5","html-slider-response","1196","","","","4",""
"2022","key","miaka,goma,ahos,chombo","chombo","n","5","html-keyboard-response","1197","n","chombo","true","",""
"2137.800000011921","","","","","5","html-slider-response","1198","","","","4",""
"2336","door","tena,soko,nyota,surali","surali","n","5","html-keyboard-response","1199","n","surali","true","",""
"1602","","","","","5","html-slider-response","1200","","","","4",""
"1807","wheel","punda,tawo,bafuni,baadaye","bafuni","j","5","html-keyboard-response","1201","j","bafuni","true","",""
"1483.7999999523163","","","","","5","html-slider-response","1202","","","","4",""
"3599","basket","kumbuka,utepe,hasira,kumba","kumba","n","5","html-keyboard-response","1203","n","kumba","true","",""
"1844.1000000238419","","","","","5","html-slider-response","1204","","","","2",""
"1557","elephant","petye,kito,pagduol,suka","kito","v","5","html-keyboard-response","1205","v","kito","true","",""
"1508.5","","","","","5","html-slider-response","1206","","","","4",""
"1684","office","hazini,yatima,leso,kuna","leso","j","5","html-keyboard-response","1207","j","leso","true","",""
"1484.199999988079","","","","","5","html-slider-response","1208","","","","4",""
"1860","music","mraba,mageho,tumbo,baiski","baiski","n","5","html-keyboard-response","1209","n","baiski","true","",""
"1291.800000011921","","","","","5","html-slider-response","1210","","","","4",""
"2103","tissue","ugomvi,lamigas,kisiwa,katika","ugomvi","f","5","html-keyboard-response","1211","f","ugomvi","true","",""
"2121.300000011921","","","","","5","html-slider-response","1212","","","","2",""
"2830","curtain","lisud,bulwawan,chubani,mchanga","mchanga","n","5","html-keyboard-response","1213","n","mchanga","true","",""
"1608.3999999761581","","","","","5","html-slider-response","1214","","","","4",""
"2831","flag","ndege,trekta,mkate,kawa","trekta","v","5","html-keyboard-response","1215","v","trekta","true","",""
"1827.1000000238419","","","","","5","html-slider-response","1216","","","","4",""
"2309","dog","lubi,washia,bahari,kalamu","bahari","j","5","html-keyboard-response","1217","j","bahari","true","",""
"1635.5","","","","","5","html-slider-response","1218","","","","4",""
"5261","cup","matumai,dagat,shimoni,jeraha","matumai","f","5","html-keyboard-response","1219","f","matumai","true","",""
"1627.8999999761581","","","","","5","html-slider-response","1220","","","","2",""
"1404","sheet","bililhon,juuya,watu,kamantis","bililhon","f","5","html-keyboard-response","1221","f","bililhon","true","",""
"2108.5","","","","","5","html-slider-response","1222","","","","4",""
"3199","spoon","betri,nzuri,pagsulod,ngazi","pagsulod","j","5","html-keyboard-response","1223","j","pagsulod","true","",""
"2280.800000011921","","","","","5","html-slider-response","1224","","","","3",""
"1621","flower","bega,tamasha,lobo,usiku","bega","f","5","html-keyboard-response","1225","f","bega","true","",""
"1346.1000000238419","","","","","5","html-slider-response","1226","","","","4",""
"3422","picture","kubwa,silya,chaki,asin","kubwa","f","5","html-keyboard-response","1227","f","kubwa","true","",""
"1705.5","","","","","5","html-slider-response","1228","","","","4",""
"1486","puppet","mazishi,napulo,lamok,godoro","mazishi","f","5","html-keyboard-response","1229","f","mazishi","true","",""
"2129.599999964237","","","","","5","html-slider-response","1230","","","","4",""
"1811","banana","kasamok,hagdan,kazi,twai","kazi","j","5","html-keyboard-response","1231","j","kazi","true","",""
"1542.699999988079","","","","","5","html-slider-response","1232","","","","4",""
"4741","book","mali,kuhesa,picha,mara","mali","f","5","html-keyboard-response","1233","f","mali","true","",""
"1587.5999999642372","","","","","5","html-slider-response","1234","","","","4",""
"2316","triangle","kihozi,kasadpan,bentaha,liog","kasadpan","v","5","html-keyboard-response","1235","v","kasadpan","true","",""
"1654.5999999642372","","","","","5","html-slider-response","1236","","","","4",""
"1899","poster","madungog,nchi,fedha,kasuko","madungog","f","5","html-keyboard-response","1237","f","madungog","true","",""
"1277.6000000238419","","","","","5","html-slider-response","1238","","","","4",""
"3615","box","kuacha,rafiki,kitande,adui","adui","n","5","html-keyboard-response","1239","n","adui","true","",""
"1288.8999999761581","","","","","5","html-slider-response","1240","","","","4",""
"1839","mosquito","isda,taras,gutom,martilyo","martilyo","n","5","html-keyboard-response","1241","n","martilyo","true","",""
"1426.5999999642372","","","","","5","html-slider-response","1242","","","","4",""
"2830","shelf","pamahaw,bungtod,kadaot,awit","pamahaw","f","5","html-keyboard-response","1243","f","pamahaw","true","",""
"1826.6000000238419","","","","","5","html-slider-response","1244","","","","4",""
"2718","scissors","duga,tanuri,mtawa,suga","tanuri","v","5","html-keyboard-response","1245","v","tanuri","true","",""
"2154.199999988079","","","","","5","html-slider-response","1246","","","","3",""
"2197","hammer","mekno,kitovu,napakyas,layag","napakyas","j","5","html-keyboard-response","1247","j","napakyas","true","",""
"1876.199999988079","","","","","5","html-slider-response","1248","","","","4",""
