"rt","en_word","options","swa_word","correct_answer","phase","trial_type","trial_index","input_answer","input_word","accuracy","certainty","amt_choices"
"7546","bonfire","mwezi,mfuko,kusanya,goti","goti","n","2","html-keyboard-response","106","v","mfuko","false","",""
"1493.199999999255","","","","","2","html-slider-response","107","","","","1",""
"4949","flower","tamasha,bega,lobo,usiku","bega","v","2","html-keyboard-response","108","n","usiku","false","",""
"1766.5","","","","","2","html-slider-response","109","","","","1",""
"3127","column","pundok,ufagio,dila,pala","ufagio","v","2","html-keyboard-response","110","f","pundok","false","",""
"1574.5999999977648","","","","","2","html-slider-response","111","","","","1",""
"4342","music","baiski,mraba,mageho,tumbo","baiski","f","2","html-keyboard-response","112","j","mageho","false","",""
"1702.199999999255","","","","","2","html-slider-response","113","","","","2",""
"4520","spider","bunyag,mkboa,atop,kamwe","kamwe","n","2","html-keyboard-response","114","n","kamwe","true","",""
"3022.099999997765","","","","","2","html-slider-response","115","","","","2",""
"3934","fork","baboy,paghago,mgonjwa,gorisi","mgonjwa","j","2","html-keyboard-response","116","n","gorisi","false","",""
"1406.1000000014901","","","","","2","html-slider-response","117","","","","1",""
"2671","mosquito","isda,martilyo,taras,gutom","martilyo","v","2","html-keyboard-response","118","v","martilyo","true","",""
"2061.699999999255","","","","","2","html-slider-response","119","","","","5",""
"6511","banana","kasamok,hagdan,twai,kazi","kazi","n","2","html-keyboard-response","120","n","kazi","true","",""
"1694.199999999255","","","","","2","html-slider-response","121","","","","2",""
"4669","cup","matumai,dagat,shimoni,jeraha","matumai","f","2","html-keyboard-response","122","v","dagat","false","",""
"1269.6000000014901","","","","","2","html-slider-response","123","","","","2",""
"3671","shop","samaki,nopya,kerida,ndezu","samaki","f","2","html-keyboard-response","124","n","ndezu","false","",""
"1334.300000000745","","","","","2","html-slider-response","125","","","","2",""
"4743","elephant","petye,pagduol,suka,kito","kito","n","2","html-keyboard-response","126","n","kito","true","",""
"6238.39999999851","","","","","2","html-slider-response","127","","","","2",""
"3262","bucket","baga,ijayo,kiatu,init","kiatu","j","2","html-keyboard-response","128","f","baga","false","",""
"1846.199999999255","","","","","2","html-slider-response","129","","","","2",""
"4583","book","kuhesa,picha,mali,mara","mali","j","2","html-keyboard-response","130","j","mali","true","",""
"3525.800000000745","","","","","2","html-slider-response","131","","","","2",""
"6391","mirror","rangi,kanding,furaha,sulagma","sulagma","n","2","html-keyboard-response","132","j","furaha","false","",""
"1646.9000000022352","","","","","2","html-slider-response","133","","","","1",""
"2478","office","leso,hazini,yatima,kuna","leso","f","2","html-keyboard-response","134","f","leso","true","",""
"1630","","","","","2","html-slider-response","135","","","","1",""
"4926","body","tindashan,nyundu,jibini,kununa","tindashan","f","2","html-keyboard-response","136","n","kununa","false","",""
"1414.1000000014901","","","","","2","html-slider-response","137","","","","2",""
"3526","perfume","katuyoan,bino,sungura,ndogo","katuyoan","f","2","html-keyboard-response","138","j","sungura","false","",""
"1246.1000000014901","","","","","2","html-slider-response","139","","","","2",""
"4062","olive","bata,jiwe,siagi,welder","jiwe","v","2","html-keyboard-response","140","v","jiwe","true","",""
"1229.8999999985099","","","","","2","html-slider-response","141","","","","2",""
"4734","magazine","gundi,mchawi,kiti,bahandi","kiti","j","2","html-keyboard-response","142","f","gundi","false","",""
"1039","","","","","2","html-slider-response","143","","","","2",""
"2990","bread","kaili,dizeli,dari,bugas","dari","j","2","html-keyboard-response","144","f","kaili","false","",""
"1190.6000000014901","","","","","2","html-slider-response","145","","","","2",""
"4422","cave","ganti,kesho,maisha,nyundo","kesho","v","2","html-keyboard-response","146","j","maisha","false","",""
"1469.8999999985099","","","","","2","html-slider-response","147","","","","2",""
"3550","ladder","mashua,mwanga,kamba,pangalan","pangalan","n","2","html-keyboard-response","148","v","mwanga","false","",""
"1261.9000000022352","","","","","2","html-slider-response","149","","","","2",""
"6430","human","bado,kikapu,tinapay,punguza","tinapay","j","2","html-keyboard-response","150","v","kikapu","false","",""
"1941.4000000022352","","","","","2","html-slider-response","151","","","","2",""
"3286","clock","mbwa,kartasi,abang,osha","mbwa","f","2","html-keyboard-response","152","v","kartasi","false","",""
"1173.699999999255","","","","","2","html-slider-response","153","","","","2",""
"3255","shelf","bungtod,kadaot,awit,pamahaw","pamahaw","n","2","html-keyboard-response","154","n","pamahaw","true","",""
"1469.7999999970198","","","","","2","html-slider-response","155","","","","2",""
"2830","salmon","mzungu,seri,baharia,sensilyo","sensilyo","n","2","html-keyboard-response","156","n","sensilyo","true","",""
"1310.199999999255","","","","","2","html-slider-response","157","","","","4",""
"3358","coffin","kioo,barua,tubag,hulma","kioo","f","2","html-keyboard-response","158","v","barua","false","",""
"1742.3999999985099","","","","","2","html-slider-response","159","","","","2",""
"2685","notebook","msitu,kila,kemia,mdudu","kemia","j","2","html-keyboard-response","160","n","mdudu","false","",""
"1813.6000000014901","","","","","2","html-slider-response","161","","","","2",""
"3414","shoulder","kelele,ndaniya,mkuu,guruwe","mkuu","j","2","html-keyboard-response","162","n","guruwe","false","",""
"1316.699999999255","","","","","2","html-slider-response","163","","","","2",""
"2950","park","tambok,bunifu,pwani,ihalas","bunifu","v","2","html-keyboard-response","164","j","pwani","false","",""
"1141.699999999255","","","","","2","html-slider-response","165","","","","2",""
"3574","number","shule,mundamo,kengele,choori","mundamo","v","2","html-keyboard-response","166","f","shule","false","",""
"1190.199999999255","","","","","2","html-slider-response","167","","","","2",""
"3702","apple","ukame,estante,edad,kisu","kisu","n","2","html-keyboard-response","168","n","kisu","true","",""
"1277.8999999985099","","","","","2","html-slider-response","169","","","","2",""
"3694","letter","filimbi,kifua,chuma,uhuru","kifua","v","2","html-keyboard-response","170","j","chuma","false","",""
"1286","","","","","2","html-slider-response","171","","","","2",""
"2775","eel","ishara,kunywa,kabuang,msumari","msumari","n","2","html-keyboard-response","172","f","ishara","false","",""
"1509.7999999970198","","","","","2","html-slider-response","173","","","","2",""
"5351","cop","mechezo,bustani,jikoni,bakus","mechezo","f","2","html-keyboard-response","174","n","bakus","false","",""
"1310","","","","","2","html-slider-response","175","","","","2",""
"3070","wolf","lugha,kaburi,ndizi,mchuzi","lugha","f","2","html-keyboard-response","176","f","lugha","true","",""
"1231.300000000745","","","","","2","html-slider-response","177","","","","2",""
"5376","squirrel","mahugaw,hofu,ukweli,kichwa","hofu","v","2","html-keyboard-response","178","j","ukweli","false","",""
"1869.2999999970198","","","","","2","html-slider-response","179","","","","2",""
"3631","nose","gubat,kopa,kidole,sehemu","sehemu","n","2","html-keyboard-response","180","v","kopa","false","",""
"1205.5","","","","","2","html-slider-response","181","","","","2",""
"3174","sock","mamba,ndoora,kimysa,mtirka","mamba","f","2","html-keyboard-response","182","f","mamba","true","",""
"1589.5999999977648","","","","","2","html-slider-response","183","","","","1",""
"3078","bank","kudhibi,tualya,ofisi,silingan","silingan","n","2","html-keyboard-response","184","f","kudhibi","false","",""
"1517.6000000014901","","","","","2","html-slider-response","185","","","","1",""
"4686","donkey","bloke,lalake,elfu,rombus","elfu","j","2","html-keyboard-response","186","j","elfu","true","",""
"1669.5","","","","","2","html-slider-response","187","","","","1",""
"3062","poster","nchi,madungog,fedha,kasuko","madungog","v","2","html-keyboard-response","188","v","madungog","true","",""
"1366.4000000022352","","","","","2","html-slider-response","189","","","","1",""
"3942","puppet","napulo,mazishi,lamok,godoro","mazishi","v","2","html-keyboard-response","190","v","mazishi","true","",""
"1445.800000000745","","","","","2","html-slider-response","191","","","","1",""
"3591","hill","matumbo,kushoto,kukimba,sweta","matumbo","f","2","html-keyboard-response","192","f","matumbo","true","",""
"1221.699999999255","","","","","2","html-slider-response","193","","","","1",""
"3142","tooth","kijiko,uadui,pahiyum,kabalaka","kabalaka","n","2","html-keyboard-response","194","v","uadui","false","",""
"1421.7999999970198","","","","","2","html-slider-response","195","","","","1",""
"5358","woman","bandari,bituin,pagtabon,kovuli","pagtabon","j","2","html-keyboard-response","196","f","bandari","false","",""
"1309.300000000745","","","","","2","html-slider-response","197","","","","1",""
"3118","wheel","punda,tawo,baadaye,bafuni","bafuni","n","2","html-keyboard-response","198","v","tawo","false","",""
"1484.6000000014901","","","","","2","html-slider-response","199","","","","1",""
"5198","mother","babaye,kahawa,mbuzi,jokofu","babaye","f","2","html-keyboard-response","200","j","mbuzi","false","",""
"1221.8999999985099","","","","","2","html-slider-response","201","","","","1",""
"5079","bed","kalipay,mapintas,haraka,starehe","mapintas","v","2","html-keyboard-response","202","j","haraka","false","",""
"1997.699999999255","","","","","2","html-slider-response","203","","","","1",""
"3054","key","miaka,chombo,goma,ahos","chombo","v","2","html-keyboard-response","204","n","ahos","false","",""
"1942","","","","","2","html-slider-response","205","","","","1",""
"2342","page","wimbo,wakala,ishiri,skina","wimbo","f","2","html-keyboard-response","206","j","ishiri","false","",""
"1965.5","","","","","2","html-slider-response","207","","","","1",""
"3342","pants","haki,pintal,chuki,hari","haki","f","2","html-keyboard-response","208","n","hari","false","",""
"1430","","","","","2","html-slider-response","209","","","","1",""
"3607","sun","basi,bendi,luha,uongo","basi","f","2","html-keyboard-response","210","f","basi","true","",""
"1373.7000000029802","","","","","2","html-slider-response","211","","","","1",""
"2607","finger","simu,moyo,sufuria,lima","moyo","v","2","html-keyboard-response","212","n","lima","false","",""
"1422","","","","","2","html-slider-response","213","","","","1",""
"3903","shoe","nyeusi,uyoga,hatua,kama","uyoga","v","2","html-keyboard-response","214","n","kama","false","",""
"1341.9000000022352","","","","","2","html-slider-response","215","","","","1",""
"3999","giraffe","mahitabo,daraja,jumatu,hangyo","mahitabo","f","2","html-keyboard-response","216","j","jumatu","false","",""
"1142","","","","","2","html-slider-response","217","","","","1",""
"4183","dog","lubi,washia,bahari,kalamu","bahari","j","2","html-keyboard-response","218","v","washia","false","",""
"1629.800000000745","","","","","2","html-slider-response","219","","","","1",""
"3502","box","kuacha,rafiki,adui,kitande","adui","j","2","html-keyboard-response","220","v","rafiki","false","",""
"1158.2999999970198","","","","","2","html-slider-response","221","","","","1",""
"6456","scissors","duga,mtawa,suga,tanuri","tanuri","n","2","html-keyboard-response","222","v","mtawa","false","",""
"1453.5","","","","","2","html-slider-response","223","","","","1",""
"5584","cat","paghukom,neyemba,baki,akili","paghukom","f","2","html-keyboard-response","224","j","baki","false","",""
"1205.699999999255","","","","","2","html-slider-response","225","","","","1",""
"3575","basket","kumbuka,utepe,kumba,hasira","kumba","j","2","html-keyboard-response","226","j","kumba","true","",""
"1541.5","","","","","2","html-slider-response","227","","","","1",""
"2951","snake","pagtukod,jansa,karon,mvringo","pagtukod","f","2","html-keyboard-response","228","v","jansa","false","",""
"1294.4000000022352","","","","","2","html-slider-response","229","","","","1",""
"2303","gift","baba,pagtawag,nyange,baso","pagtawag","v","2","html-keyboard-response","230","n","baso","false","",""
"1838.4000000022352","","","","","2","html-slider-response","231","","","","1",""
"2623","train","itik,sayari,dakika,mungu","sayari","v","2","html-keyboard-response","232","j","dakika","false","",""
"1573.699999999255","","","","","2","html-slider-response","233","","","","1",""
"5111","pudding","abug,mpishi,iring,aibu","aibu","n","2","html-keyboard-response","234","n","aibu","true","",""
"1221.9000000022352","","","","","2","html-slider-response","235","","","","1",""
"3991","tomato","mvua,chupi,chupa,takatak","mvua","f","2","html-keyboard-response","236","f","mvua","true","",""
"1389.3999999985099","","","","","2","html-slider-response","237","","","","1",""
"2654","stone","ulimwengu,mkasi,asili,wingi","wingi","n","2","html-keyboard-response","238","j","asili","false","",""
"1277.699999999255","","","","","2","html-slider-response","239","","","","1",""
"3374","hammer","mekno,kitovu,napakyas,layag","napakyas","j","2","html-keyboard-response","240","v","kitovu","false","",""
"1588.3999999985099","","","","","2","html-slider-response","241","","","","1",""
"1894","knee","mvuke,kubale,duka,bili","duka","j","2","html-keyboard-response","242","j","duka","true","",""
"1270.1000000014901","","","","","2","html-slider-response","243","","","","1",""
"3382","ceiling","kugita,kawaida,rayna,maua","maua","n","2","html-keyboard-response","244","v","kawaida","false","",""
"1229.4000000022352","","","","","2","html-slider-response","245","","","","1",""
"3198","spoon","pagsulod,betri,nzuri,ngazi","pagsulod","f","2","html-keyboard-response","246","n","ngazi","false","",""
"1397.3999999985099","","","","","2","html-slider-response","247","","","","1",""
"2470","marker","mapafu,maji,salita,atay","maji","v","2","html-keyboard-response","248","f","mapafu","false","",""
"1191","","","","","2","html-slider-response","249","","","","1",""
"3911","candle","gabi,geza,farasi,kupanda","geza","v","2","html-keyboard-response","250","v","geza","true","",""
"1205.9000000022352","","","","","2","html-slider-response","251","","","","1",""
"4661","tissue","lamigas,kisiwa,katika,ugomvi","ugomvi","n","2","html-keyboard-response","252","j","katika","false","",""
"1301.800000000745","","","","","2","html-slider-response","253","","","","1",""
"5382","bridge","sahani,daima,ngono,panya","sahani","f","2","html-keyboard-response","254","n","panya","false","",""
"1245.300000000745","","","","","2","html-slider-response","255","","","","1",""
"2895","berry","abogado,nogozi,kofia,kinywa","kofia","j","2","html-keyboard-response","256","n","kinywa","false","",""
"1309.699999999255","","","","","2","html-slider-response","257","","","","1",""
"2510","triangle","kihozi,kasadpan,bentaha,liog","kasadpan","v","2","html-keyboard-response","258","j","bentaha","false","",""
"1070.6000000014901","","","","","2","html-slider-response","259","","","","1",""
"2943","door","tena,soko,nyota,surali","surali","n","2","html-keyboard-response","260","f","tena","false","",""
"1109.5","","","","","2","html-slider-response","261","","","","1",""
"3190","fish","buli,bala,baho,imani","buli","f","2","html-keyboard-response","262","v","bala","false","",""
"1853.800000000745","","","","","2","html-slider-response","263","","","","1",""
"4030","curtain","lisud,mchanga,bulwawan,chubani","mchanga","v","2","html-keyboard-response","264","j","bulwawan","false","",""
"2148.900000002235","","","","","2","html-slider-response","265","","","","1",""
"3398","flag","ndege,mkate,trekta,kawa","trekta","j","2","html-keyboard-response","266","n","kawa","false","",""
"1269.9000000022352","","","","","2","html-slider-response","267","","","","1",""
"4983","boat","hamsi,agalon,pombe,kitanda","agalon","v","2","html-keyboard-response","268","n","kitanda","false","",""
"1245.800000000745","","","","","2","html-slider-response","269","","","","1",""
"6078","rose","singizi,mwanake,paghalad,amani","paghalad","j","2","html-keyboard-response","270","j","paghalad","true","",""
"1365.699999999255","","","","","2","html-slider-response","271","","","","1",""
"3238","lamp","daub,afya,bilaska,mbolea","afya","v","2","html-keyboard-response","272","f","daub","false","",""
"1109.7999999970198","","","","","2","html-slider-response","273","","","","1",""
"2855","cigar","ndugu,kuta,mlango,adhabu","adhabu","n","2","html-keyboard-response","274","j","mlango","false","",""
"1133.6000000014901","","","","","2","html-slider-response","275","","","","1",""
"2222","list","alizeti,kuzama,wingu,kaso","wingu","j","2","html-keyboard-response","276","j","wingu","true","",""
"1445.7999999970198","","","","","2","html-slider-response","277","","","","1",""
"3926","sheet","bililhon,juuya,watu,kamantis","bililhon","f","2","html-keyboard-response","278","v","juuya","false","",""
"1269.6000000014901","","","","","2","html-slider-response","279","","","","1",""
"2598","picture","silya,kubwa,chaki,asin","kubwa","v","2","html-keyboard-response","280","v","kubwa","true","",""
"1285.9000000022352","","","","","2","html-slider-response","281","","","","1",""
"3110","towel","tembo,pagpalit,funzi,pito","pagpalit","v","2","html-keyboard-response","282","f","tembo","false","",""
"1629.699999999255","","","","","2","html-slider-response","283","","","","1",""
"3727","window","kweli,nanga,kujenga,umaga","kweli","f","2","html-keyboard-response","284","n","umaga","false","",""
"1484.7000000029802","","","","","2","html-slider-response","285","","","","1",""
"5065","box","kuacha,rafiki,kitande,adui","adui","n","3","html-keyboard-response","293","f","kuacha","false","","4"
"1781.300000000745","","","","","3","html-slider-response","294","","","","1",""
"2917","","","","","3","html-keyboard-response","295","","","","",""
"5326","pants","haki,pintal,chuki,hari","haki","f","3","html-keyboard-response","296","j","chuki","false","","4"
"1997.8999999985099","","","","","3","html-slider-response","297","","","","1",""
"2398","","","","","3","html-keyboard-response","298","","","","",""
"3646","cup","dagat,shimoni,matumai,jeraha","matumai","j","3","html-keyboard-response","299","f","dagat","false","","4"
"1854.1000000014901","","","","","3","html-slider-response","300","","","","1",""
"1918","","","","","3","html-keyboard-response","301","","","","",""
"4399","triangle","kasadpan,kihozi,bentaha,liog","kasadpan","f","3","html-keyboard-response","302","j","bentaha","false","","4"
"2141.900000002235","","","","","3","html-slider-response","303","","","","1",""
"2543","","","","","3","html-keyboard-response","304","","","","",""
"4622","curtain","lisud,bulwawan,chubani,mchanga","mchanga","n","3","html-keyboard-response","305","v","bulwawan","false","","4"
"2549.800000000745","","","","","3","html-slider-response","306","","","","1",""
"2022","","","","","3","html-keyboard-response","307","","","","",""
"3887","clock","kartasi,abang,osha,mbwa","mbwa","n","3","html-keyboard-response","308","j","osha","false","","4"
"1661.9000000022352","","","","","3","html-slider-response","309","","","","1",""
"1886","","","","","3","html-keyboard-response","310","","","","",""
"4750","mirror","rangi,kanding,furaha,sulagma","sulagma","n","3","html-keyboard-response","311","n","sulagma","true","","4"
"1221.9000000022352","","","","","3","html-slider-response","312","","","","1",""
"2022","","","","","3","html-keyboard-response","313","","","","",""
"2783","coffin","barua,kioo,tubag,hulma","kioo","v","3","html-keyboard-response","314","v","kioo","true","","1"
"1934","","","","","3","html-slider-response","315","","","","5",""
"1341","","","","","3","html-keyboard-response","316","","","","",""
"6111","magazine","gundi,mchawi,bahandi,kiti","kiti","n","3","html-keyboard-response","317","f","gundi","false","","4"
"1357.8999999985099","","","","","3","html-slider-response","318","","","","1",""
"1566","","","","","3","html-keyboard-response","319","","","","",""
"1727","column","ufagio,pundok,dila,pala","ufagio","f","3","html-keyboard-response","320","f","ufagio","true","","1"
"2390.300000000745","","","","","3","html-slider-response","321","","","","5",""
"1799","","","","","3","html-keyboard-response","322","","","","",""
"4207","number","shule,kengele,mundamo,choori","mundamo","j","3","html-keyboard-response","323","f","shule","false","","4"
"1853.1000000014901","","","","","3","html-slider-response","324","","","","1",""
"1934","","","","","3","html-keyboard-response","325","","","","",""
"3791","rose","singizi,mwanake,amani,paghalad","paghalad","n","3","html-keyboard-response","326","v","mwanake","false","","4"
"1685.5","","","","","3","html-slider-response","327","","","","1",""
"1862","","","","","3","html-keyboard-response","328","","","","",""
"2223","eel","ishara,msumari,kunywa,kabuang","msumari","v","3","html-keyboard-response","329","f","ishara","false","","4"
"1300.8999999985099","","","","","3","html-slider-response","330","","","","1",""
"2342","","","","","3","html-keyboard-response","331","","","","",""
"2383","gift","baba,nyange,baso,pagtawag","pagtawag","n","3","html-keyboard-response","332","j","baso","false","","4"
"1238.1000000014901","","","","","3","html-slider-response","333","","","","1",""
"1672","","","","","3","html-keyboard-response","334","","","","",""
"1823","apple","ukame,estante,edad,kisu","kisu","n","3","html-keyboard-response","335","n","kisu","true","","1"
"2382.10000000149","","","","","3","html-slider-response","336","","","","5",""
"1214","","","","","3","html-keyboard-response","337","","","","",""
"2111","wheel","punda,tawo,bafuni,baadaye","bafuni","j","3","html-keyboard-response","338","j","bafuni","true","","1"
"2582.10000000149","","","","","3","html-slider-response","339","","","","5",""
"982","","","","","3","html-keyboard-response","340","","","","",""
"3167","knee","mvuke,kubale,bili,duka","duka","n","3","html-keyboard-response","341","f","mvuke","false","","4"
"1718.1000000014901","","","","","3","html-slider-response","342","","","","1",""
"1350","","","","","3","html-keyboard-response","343","","","","",""
"1792","basket","kumbuka,kumba,utepe,hasira","kumba","v","3","html-keyboard-response","344","v","kumba","true","","1"
"1935","","","","","3","html-slider-response","345","","","","5",""
"1214","","","","","3","html-keyboard-response","346","","","","",""
"3823","park","tambok,pwani,bunifu,ihalas","bunifu","j","3","html-keyboard-response","347","n","ihalas","false","","4"
"2117.800000000745","","","","","3","html-slider-response","348","","","","1",""
"2438","","","","","3","html-keyboard-response","349","","","","",""
"4527","finger","simu,sufuria,moyo,lima","moyo","j","3","html-keyboard-response","350","j","moyo","true","","4"
"1501.5","","","","","3","html-slider-response","351","","","","1",""
"1502","","","","","3","html-keyboard-response","352","","","","",""
"5535","boat","hamsi,pombe,kitanda,agalon","agalon","n","3","html-keyboard-response","353","j","kitanda","false","","4"
"1301.800000000745","","","","","3","html-slider-response","354","","","","1",""
"1239","","","","","3","html-keyboard-response","355","","","","",""
"2255","hill","kushoto,kukimba,matumbo,sweta","matumbo","j","3","html-keyboard-response","356","v","kukimba","false","","4"
"1366","","","","","3","html-slider-response","357","","","","1",""
"1687","","","","","3","html-keyboard-response","358","","","","",""
"4334","train","itik,sayari,dakika,mungu","sayari","v","3","html-keyboard-response","359","n","mungu","false","","4"
"1526","","","","","3","html-slider-response","360","","","","1",""
"1285","","","","","3","html-keyboard-response","361","","","","",""
"4272","wolf","kaburi,lugha,ndizi,mchuzi","lugha","v","3","html-keyboard-response","362","n","mchuzi","false","","4"
"1246.0999999977648","","","","","3","html-slider-response","363","","","","1",""
"1215","","","","","3","html-keyboard-response","364","","","","",""
"4815","snake","jansa,karon,pagtukod,mvringo","pagtukod","j","3","html-keyboard-response","365","f","jansa","false","","4"
"1221.4000000022352","","","","","3","html-slider-response","366","","","","1",""
"1302","","","","","3","html-keyboard-response","367","","","","",""
"3359","tooth","kabalaka,kijiko,uadui,pahiyum","kabalaka","f","3","html-keyboard-response","368","v","kijiko","false","","4"
"1725.5","","","","","3","html-slider-response","369","","","","1",""
"1182","","","","","3","html-keyboard-response","370","","","","",""
"3775","notebook","msitu,kila,kemia,mdudu","kemia","j","3","html-keyboard-response","371","f","msitu","false","","4"
"1213.2000000029802","","","","","3","html-slider-response","372","","","","1",""
"1374","","","","","3","html-keyboard-response","373","","","","",""
"3310","flag","ndege,mkate,trekta,kawa","trekta","j","3","html-keyboard-response","374","n","kawa","false","","4"
"1141.699999999255","","","","","3","html-slider-response","375","","","","1",""
"1254","","","","","3","html-keyboard-response","376","","","","",""
"3759","squirrel","mahugaw,ukweli,kichwa,hofu","hofu","n","3","html-keyboard-response","377","v","ukweli","false","","4"
"1741.4000000022352","","","","","3","html-slider-response","378","","","","1",""
"1213","","","","","3","html-keyboard-response","379","","","","",""
"2974","door","surali,tena,soko,nyota","surali","f","3","html-keyboard-response","380","v","tena","false","","4"
"1183.1000000014901","","","","","3","html-slider-response","381","","","","1",""
"1486","","","","","3","html-keyboard-response","382","","","","",""
"4639","salmon","sensilyo,mzungu,seri,baharia","sensilyo","f","3","html-keyboard-response","383","v","mzungu","false","","4"
"1285.800000000745","","","","","3","html-slider-response","384","","","","1",""
"1334","","","","","3","html-keyboard-response","385","","","","",""
"5167","shoulder","kelele,mkuu,ndaniya,guruwe","mkuu","v","3","html-keyboard-response","386","j","ndaniya","false","","4"
"1062","","","","","3","html-slider-response","387","","","","1",""
"1223","","","","","3","html-keyboard-response","388","","","","",""
"3327","lamp","afya,daub,bilaska,mbolea","afya","f","3","html-keyboard-response","389","n","mbolea","false","","4"
"1270.3999999985099","","","","","3","html-slider-response","390","","","","1",""
"1175","","","","","3","html-keyboard-response","391","","","","",""
"2366","shelf","bungtod,kadaot,awit,pamahaw","pamahaw","n","3","html-keyboard-response","392","n","pamahaw","true","","1"
"2310.2000000029802","","","","","3","html-slider-response","393","","","","5",""
"998","","","","","3","html-keyboard-response","394","","","","",""
"3646","human","bado,tinapay,kikapu,punguza","tinapay","v","3","html-keyboard-response","395","j","kikapu","false","","4"
"1382.199999999255","","","","","3","html-slider-response","396","","","","1",""
"2038","","","","","3","html-keyboard-response","397","","","","",""
"5294","towel","pagpalit,tembo,funzi,pito","pagpalit","f","3","html-keyboard-response","398","n","pito","false","","4"
"1453.800000000745","","","","","3","html-slider-response","399","","","","1",""
"1486","","","","","3","html-keyboard-response","400","","","","",""
"3822","cat","neyemba,baki,paghukom,akili","paghukom","j","3","html-keyboard-response","401","v","baki","false","","4"
"1125.3999999985099","","","","","3","html-slider-response","402","","","","1",""
"1302","","","","","3","html-keyboard-response","403","","","","",""
"3023","spider","bunyag,kamwe,mkboa,atop","kamwe","v","3","html-keyboard-response","404","v","kamwe","true","","4"
"1317.699999999255","","","","","3","html-slider-response","405","","","","1",""
"1575","","","","","3","html-keyboard-response","406","","","","",""
"3199","window","nanga,kujenga,kweli,umaga","kweli","j","3","html-keyboard-response","407","j","kweli","true","","4"
"2237.5","","","","","3","html-slider-response","408","","","","1",""
"1230","","","","","3","html-keyboard-response","409","","","","",""
"1678","woman","pagtabon,bandari,bituin,kovuli","pagtabon","f","3","html-keyboard-response","410","f","pagtabon","true","","1"
"1685.7999999970198","","","","","3","html-slider-response","411","","","","5",""
"1670","","","","","3","html-keyboard-response","412","","","","",""
"3182","giraffe","daraja,jumatu,hangyo,mahitabo","mahitabo","n","3","html-keyboard-response","413","n","mahitabo","true","","4"
"1188.7999999970198","","","","","3","html-slider-response","414","","","","1",""
"1446","","","","","3","html-keyboard-response","415","","","","",""
"3246","elephant","petye,kito,pagduol,suka","kito","v","3","html-keyboard-response","416","v","kito","true","","4"
"1293.300000000745","","","","","3","html-slider-response","417","","","","2",""
"1567","","","","","3","html-keyboard-response","418","","","","",""
"2750","cave","kesho,ganti,maisha,nyundo","kesho","f","3","html-keyboard-response","419","n","nyundo","false","","4"
"1534","","","","","3","html-slider-response","420","","","","1",""
"1214","","","","","3","html-keyboard-response","421","","","","",""
"3902","bread","kaili,dari,dizeli,bugas","dari","v","3","html-keyboard-response","422","f","kaili","false","","4"
"1237.7000000029802","","","","","3","html-slider-response","423","","","","1",""
"982","","","","","3","html-keyboard-response","424","","","","",""
"2718","stone","wingi,ulimwengu,mkasi,asili","wingi","f","3","html-keyboard-response","425","j","mkasi","false","","4"
"2685.800000000745","","","","","3","html-slider-response","426","","","","1",""
"910","","","","","3","html-keyboard-response","427","","","","",""
"4175","donkey","bloke,elfu,lalake,rombus","elfu","v","3","html-keyboard-response","428","v","elfu","true","","4"
"1404.699999999255","","","","","3","html-slider-response","429","","","","1",""
"1742","","","","","3","html-keyboard-response","430","","","","",""
"4479","bridge","daima,ngono,panya,sahani","sahani","n","3","html-keyboard-response","431","j","panya","false","","4"
"1389.800000000745","","","","","3","html-slider-response","432","","","","2",""
"1423","","","","","3","html-keyboard-response","433","","","","",""
"2191","bonfire","mwezi,goti,mfuko,kusanya","goti","v","3","html-keyboard-response","434","f","mwezi","false","","4"
"1166.800000000745","","","","","3","html-slider-response","435","","","","1",""
"1150","","","","","3","html-keyboard-response","436","","","","",""
"3471","book","kuhesa,picha,mara,mali","mali","n","3","html-keyboard-response","437","v","picha","false","","4"
"1382.300000000745","","","","","3","html-slider-response","438","","","","1",""
"1063","","","","","3","html-keyboard-response","439","","","","",""
"3279","fish","buli,bala,baho,imani","buli","f","3","html-keyboard-response","440","j","baho","false","","4"
"1182.1000000014901","","","","","3","html-slider-response","441","","","","1",""
"1054","","","","","3","html-keyboard-response","442","","","","",""
"2735","spoon","betri,nzuri,ngazi,pagsulod","pagsulod","n","3","html-keyboard-response","443","v","nzuri","false","","4"
"1085.6000000014901","","","","","3","html-slider-response","444","","","","1",""
"1407","","","","","3","html-keyboard-response","445","","","","",""
"4046","scissors","duga,tanuri,mtawa,suga","tanuri","v","3","html-keyboard-response","446","j","mtawa","false","","4"
"1190.0999999977648","","","","","3","html-slider-response","447","","","","1",""
"934","","","","","3","html-keyboard-response","448","","","","",""
"4127","page","wimbo,wakala,ishiri,skina","wimbo","f","3","html-keyboard-response","449","j","ishiri","false","","4"
"1109.800000000745","","","","","3","html-slider-response","450","","","","1",""
"806","","","","","3","html-keyboard-response","451","","","","",""
"1743","nose","gubat,kopa,sehemu,kidole","sehemu","j","3","html-keyboard-response","452","j","sehemu","true","","1"
"2062.10000000149","","","","","3","html-slider-response","453","","","","5",""
"974","","","","","3","html-keyboard-response","454","","","","",""
"3422","ceiling","kugita,kawaida,maua,rayna","maua","j","3","html-keyboard-response","455","f","kugita","false","","4"
"1189.7999999970198","","","","","3","html-slider-response","456","","","","1",""
"1030","","","","","3","html-keyboard-response","457","","","","",""
"3583","bucket","baga,ijayo,init,kiatu","kiatu","n","3","html-keyboard-response","458","n","kiatu","true","","4"
"1333.699999999255","","","","","3","html-slider-response","459","","","","1",""
"1222","","","","","3","html-keyboard-response","460","","","","",""
"2462","berry","kofia,abogado,nogozi,kinywa","kofia","f","3","html-keyboard-response","461","f","kofia","true","","1"
"1446","","","","","3","html-slider-response","462","","","","5",""
"759","","","","","3","html-keyboard-response","463","","","","",""
"2511","mother","kahawa,mbuzi,babaye,jokofu","babaye","j","3","html-keyboard-response","464","j","babaye","true","","1"
"1605.7999999970198","","","","","3","html-slider-response","465","","","","5",""
"919","","","","","3","html-keyboard-response","466","","","","",""
"2143","mosquito","isda,martilyo,taras,gutom","martilyo","v","3","html-keyboard-response","467","v","martilyo","true","","4"
"1718","","","","","3","html-slider-response","468","","","","5",""
"901","","","","","3","html-keyboard-response","469","","","","",""
"4943","perfume","katuyoan,bino,sungura,ndogo","katuyoan","f","3","html-keyboard-response","470","f","katuyoan","true","","4"
"1365.699999999255","","","","","3","html-slider-response","471","","","","1",""
"886","","","","","3","html-keyboard-response","472","","","","",""
"3726","sheet","juuya,bililhon,watu,kamantis","bililhon","v","3","html-keyboard-response","473","j","watu","false","","4"
"1685.6000000014901","","","","","3","html-slider-response","474","","","","1",""
"1046","","","","","3","html-keyboard-response","475","","","","",""
"1935","puppet","mazishi,napulo,lamok,godoro","mazishi","f","3","html-keyboard-response","476","f","mazishi","true","","1"
"1325.6000000014901","","","","","3","html-slider-response","477","","","","5",""
"510","","","","","3","html-keyboard-response","478","","","","",""
"2495","poster","nchi,fedha,kasuko,madungog","madungog","n","3","html-keyboard-response","479","j","kasuko","false","","4"
"1221.6000000014901","","","","","3","html-slider-response","480","","","","1",""
"1062","","","","","3","html-keyboard-response","481","","","","",""
"3344","music","baiski,mraba,mageho,tumbo","baiski","f","3","html-keyboard-response","482","j","mageho","false","","4"
"1430.5","","","","","3","html-slider-response","483","","","","1",""
"1159","","","","","3","html-keyboard-response","484","","","","",""
"3135","key","miaka,goma,ahos,chombo","chombo","n","3","html-keyboard-response","485","f","miaka","false","","4"
"1094.8999999985099","","","","","3","html-slider-response","486","","","","1",""
"887","","","","","3","html-keyboard-response","487","","","","",""
"3327","sock","mamba,ndoora,kimysa,mtirka","mamba","f","3","html-keyboard-response","488","j","kimysa","false","","4"
"1238.6000000014901","","","","","3","html-slider-response","489","","","","1",""
"870","","","","","3","html-keyboard-response","490","","","","",""
"3200","marker","mapafu,maji,salita,atay","maji","v","3","html-keyboard-response","491","f","mapafu","false","","4"
"1189.800000000745","","","","","3","html-slider-response","492","","","","1",""
"807","","","","","3","html-keyboard-response","493","","","","",""
"3247","office","leso,hazini,yatima,kuna","leso","f","3","html-keyboard-response","494","j","yatima","false","","4"
"1014.1999999992549","","","","","3","html-slider-response","495","","","","1",""
"790","","","","","3","html-keyboard-response","496","","","","",""
"3119","shoe","nyeusi,uyoga,hatua,kama","uyoga","v","3","html-keyboard-response","497","n","kama","false","","4"
"1141","","","","","3","html-slider-response","498","","","","1",""
"790","","","","","3","html-keyboard-response","499","","","","",""
"5455","cop","bustani,mechezo,jikoni,bakus","mechezo","v","3","html-keyboard-response","500","n","bakus","false","","4"
"1381.699999999255","","","","","3","html-slider-response","501","","","","1",""
"855","","","","","3","html-keyboard-response","502","","","","",""
"4607","bank","silingan,kudhibi,tualya,ofisi","silingan","f","3","html-keyboard-response","503","j","tualya","false","","4"
"1669.5","","","","","3","html-slider-response","504","","","","1",""
"1047","","","","","3","html-keyboard-response","505","","","","",""
"1919","letter","filimbi,kifua,chuma,uhuru","kifua","v","3","html-keyboard-response","506","v","kifua","true","","1"
"1606.300000000745","","","","","3","html-slider-response","507","","","","5",""
"678","","","","","3","html-keyboard-response","508","","","","",""
"2239","dog","lubi,bahari,washia,kalamu","bahari","v","3","html-keyboard-response","509","v","bahari","true","","1"
"2014.699999999255","","","","","3","html-slider-response","510","","","","5",""
"941","","","","","3","html-keyboard-response","511","","","","",""
"4271","shop","nopya,kerida,samaki,ndezu","samaki","j","3","html-keyboard-response","512","j","samaki","true","","4"
"1597.5999999977648","","","","","3","html-slider-response","513","","","","1",""
"863","","","","","3","html-keyboard-response","514","","","","",""
"3359","flower","tamasha,lobo,bega,usiku","bega","j","3","html-keyboard-response","515","f","tamasha","false","","4"
"1157.3999999985099","","","","","3","html-slider-response","516","","","","1",""
"1094","","","","","3","html-keyboard-response","517","","","","",""
"1470","cigar","ndugu,adhabu,kuta,mlango","adhabu","v","3","html-keyboard-response","518","v","adhabu","true","","1"
"1846","","","","","3","html-slider-response","519","","","","5",""
"470","","","","","3","html-keyboard-response","520","","","","",""
"4351","hammer","mekno,kitovu,napakyas,layag","napakyas","j","3","html-keyboard-response","521","j","napakyas","true","","4"
"1110.800000000745","","","","","3","html-slider-response","522","","","","1",""
"853","","","","","3","html-keyboard-response","523","","","","",""
"3728","fork","mgonjwa,baboy,paghago,gorisi","mgonjwa","f","3","html-keyboard-response","524","j","paghago","false","","4"
"1221.6000000014901","","","","","3","html-slider-response","525","","","","1",""
"790","","","","","3","html-keyboard-response","526","","","","",""
"2015","sun","bendi,luha,uongo,basi","basi","n","3","html-keyboard-response","527","n","basi","true","","1"
"1389.5","","","","","3","html-slider-response","528","","","","5",""
"446","","","","","3","html-keyboard-response","529","","","","",""
"4894","ladder","pangalan,mashua,mwanga,kamba","pangalan","f","3","html-keyboard-response","530","f","pangalan","true","","4"
"1269.7999999970198","","","","","3","html-slider-response","531","","","","1",""
"774","","","","","3","html-keyboard-response","532","","","","",""
"2527","banana","kasamok,hagdan,twai,kazi","kazi","n","3","html-keyboard-response","533","n","kazi","true","","1"
"1373.5999999940395","","","","","3","html-slider-response","534","","","","5",""
"557","","","","","3","html-keyboard-response","535","","","","",""
"3407","pudding","abug,aibu,mpishi,iring","aibu","v","3","html-keyboard-response","536","j","mpishi","false","","4"
"1213.1999999955297","","","","","3","html-slider-response","537","","","","1",""
"606","","","","","3","html-keyboard-response","538","","","","",""
"3151","body","nyundu,jibini,tindashan,kununa","tindashan","j","3","html-keyboard-response","539","n","kununa","false","","4"
"1053.6000000014901","","","","","3","html-slider-response","540","","","","1",""
"1247","","","","","3","html-keyboard-response","541","","","","",""
"3998","bed","mapintas,kalipay,haraka,starehe","mapintas","f","3","html-keyboard-response","542","f","mapintas","true","","4"
"2063.5999999940395","","","","","3","html-slider-response","543","","","","1",""
"783","","","","","3","html-keyboard-response","544","","","","",""
"4687","tissue","lamigas,kisiwa,ugomvi,katika","ugomvi","j","3","html-keyboard-response","545","v","kisiwa","false","","4"
"1181.7000000029802","","","","","3","html-slider-response","546","","","","1",""
"894","","","","","3","html-keyboard-response","547","","","","",""
"4448","candle","geza,gabi,farasi,kupanda","geza","f","3","html-keyboard-response","548","n","kupanda","false","","4"
"1805.2999999970198","","","","","3","html-slider-response","549","","","","1",""
"847","","","","","3","html-keyboard-response","550","","","","",""
"1887","tomato","mvua,chupi,chupa,takatak","mvua","f","3","html-keyboard-response","551","f","mvua","true","","1"
"1662","","","","","3","html-slider-response","552","","","","5",""
"718","","","","","3","html-keyboard-response","553","","","","",""
"3919","list","alizeti,kuzama,kaso,wingu","wingu","n","3","html-keyboard-response","554","n","wingu","true","","4"
"1909.7000000029802","","","","","3","html-slider-response","555","","","","1",""
"678","","","","","3","html-keyboard-response","556","","","","",""
"2367","olive","jiwe,bata,siagi,welder","jiwe","f","3","html-keyboard-response","557","f","jiwe","true","","4"
"1269.8999999985099","","","","","3","html-slider-response","558","","","","1",""
"742","","","","","3","html-keyboard-response","559","","","","",""
"2014","picture","silya,kubwa,chaki,asin","kubwa","v","3","html-keyboard-response","560","v","kubwa","true","","1"
"1246.7999999970198","","","","","3","html-slider-response","561","","","","5",""
"639","","","","","3","html-keyboard-response","562","","","","",""
"6282","page","wimbo,wakala,ishiri,skina","wimbo","f","4","html-keyboard-response","888","j","ishiri","false","",""
"1802.5","","","","","4","html-slider-response","889","","","","2",""
"4558","sheet","bililhon,juuya,watu,kamantis","bililhon","f","4","html-keyboard-response","890","j","watu","false","",""
"1590.1000000014901","","","","","4","html-slider-response","891","","","","2",""
"5399","ladder","mashua,mwanga,kamba,pangalan","pangalan","n","4","html-keyboard-response","892","v","mwanga","false","",""
"1428.3999999985099","","","","","4","html-slider-response","893","","","","2",""
"2967","door","surali,tena,soko,nyota","surali","f","4","html-keyboard-response","894","n","nyota","false","",""
"1190.8000000044703","","","","","4","html-slider-response","895","","","","2",""
"9814","spider","kamwe,bunyag,mkboa,atop","kamwe","f","4","html-keyboard-response","896","f","kamwe","true","",""
"1773.5","","","","","4","html-slider-response","897","","","","2",""
"4958","picture","silya,chaki,kubwa,asin","kubwa","j","4","html-keyboard-response","898","j","kubwa","true","",""
"1565.7000000029802","","","","","4","html-slider-response","899","","","","2",""
"3534","boat","agalon,hamsi,pombe,kitanda","agalon","f","4","html-keyboard-response","900","n","kitanda","false","",""
"1285.8999999985099","","","","","4","html-slider-response","901","","","","2",""
"3940","donkey","bloke,lalake,elfu,rombus","elfu","j","4","html-keyboard-response","902","j","elfu","true","",""
"1429.7999999970198","","","","","4","html-slider-response","903","","","","2",""
"5911","book","kuhesa,mali,picha,mara","mali","v","4","html-keyboard-response","904","v","mali","true","",""
"1365.2999999970198","","","","","4","html-slider-response","905","","","","2",""
"3686","cup","dagat,shimoni,jeraha,matumai","matumai","n","4","html-keyboard-response","906","n","matumai","true","",""
"1204.8999999985099","","","","","4","html-slider-response","907","","","","2",""
"1894","sun","basi,bendi,luha,uongo","basi","f","4","html-keyboard-response","908","f","basi","true","",""
"1549.8999999985099","","","","","4","html-slider-response","909","","","","4",""
"3422","pudding","abug,mpishi,iring,aibu","aibu","n","4","html-keyboard-response","910","v","mpishi","false","",""
"1630.1999999955297","","","","","4","html-slider-response","911","","","","2",""
"3326","human","bado,kikapu,punguza,tinapay","tinapay","n","4","html-keyboard-response","912","j","punguza","false","",""
"1413.8999999985099","","","","","4","html-slider-response","913","","","","2",""
"3367","squirrel","mahugaw,ukweli,hofu,kichwa","hofu","j","4","html-keyboard-response","914","f","mahugaw","false","",""
"1228.2999999970198","","","","","4","html-slider-response","915","","","","2",""
"3438","park","bunifu,tambok,pwani,ihalas","bunifu","f","4","html-keyboard-response","916","f","bunifu","true","",""
"1006","","","","","4","html-slider-response","917","","","","2",""
"3165","poster","nchi,madungog,fedha,kasuko","madungog","v","4","html-keyboard-response","918","n","kasuko","false","",""
"1069.6999999955297","","","","","4","html-slider-response","919","","","","2",""
"4831","wolf","kaburi,ndizi,mchuzi,lugha","lugha","n","4","html-keyboard-response","920","f","kaburi","false","",""
"973.4000000059605","","","","","4","html-slider-response","921","","","","2",""
"3805","cat","neyemba,paghukom,baki,akili","paghukom","v","4","html-keyboard-response","922","j","baki","false","",""
"1125.6999999955297","","","","","4","html-slider-response","923","","","","2",""
"4487","fish","bala,baho,imani,buli","buli","n","4","html-keyboard-response","924","f","bala","false","",""
"1196.7000000029802","","","","","4","html-slider-response","925","","","","2",""
"3136","tooth","kijiko,kabalaka,uadui,pahiyum","kabalaka","v","4","html-keyboard-response","926","j","uadui","false","",""
"1004.7999999970198","","","","","4","html-slider-response","927","","","","2",""
"2462","cave","kesho,ganti,maisha,nyundo","kesho","f","4","html-keyboard-response","928","n","nyundo","false","",""
"1965.5","","","","","4","html-slider-response","929","","","","2",""
"4414","lamp","daub,bilaska,afya,mbolea","afya","j","4","html-keyboard-response","930","v","bilaska","false","",""
"1061","","","","","4","html-slider-response","931","","","","2",""
"2006","banana","kasamok,hagdan,twai,kazi","kazi","n","4","html-keyboard-response","932","n","kazi","true","",""
"1662.5","","","","","4","html-slider-response","933","","","","4",""
"2926","bonfire","mwezi,mfuko,kusanya,goti","goti","n","4","html-keyboard-response","934","f","mwezi","false","",""
"1078.2000000029802","","","","","4","html-slider-response","935","","","","2",""
"6678","cop","bustani,jikoni,bakus,mechezo","mechezo","n","4","html-keyboard-response","936","n","mechezo","true","",""
"1277.8999999985099","","","","","4","html-slider-response","937","","","","2",""
"4526","marker","mapafu,salita,atay,maji","maji","n","4","html-keyboard-response","938","n","maji","true","",""
"1125.8000000044703","","","","","4","html-slider-response","939","","","","2",""
"2614","window","nanga,kujenga,umaga,kweli","kweli","n","4","html-keyboard-response","940","n","kweli","true","",""
"910.5","","","","","4","html-slider-response","941","","","","2",""
"4430","body","nyundu,jibini,tindashan,kununa","tindashan","j","4","html-keyboard-response","942","n","kununa","false","",""
"1037.6000000014901","","","","","4","html-slider-response","943","","","","2",""
"2030","apple","ukame,kisu,estante,edad","kisu","v","4","html-keyboard-response","944","v","kisu","true","",""
"1310.4000000059605","","","","","4","html-slider-response","945","","","","4",""
"4414","salmon","sensilyo,mzungu,seri,baharia","sensilyo","f","4","html-keyboard-response","946","f","sensilyo","true","",""
"1365.8000000044703","","","","","4","html-slider-response","947","","","","2",""
"2630","bed","kalipay,mapintas,haraka,starehe","mapintas","v","4","html-keyboard-response","948","j","haraka","false","",""
"1390.7999999970198","","","","","4","html-slider-response","949","","","","2",""
"5134","berry","abogado,nogozi,kinywa,kofia","kofia","n","4","html-keyboard-response","950","j","kinywa","false","",""
"1077.3999999985099","","","","","4","html-slider-response","951","","","","2",""
"3654","mirror","rangi,kanding,sulagma,furaha","sulagma","j","4","html-keyboard-response","952","n","furaha","false","",""
"1108.3999999985099","","","","","4","html-slider-response","953","","","","2",""
"2966","flag","ndege,mkate,kawa,trekta","trekta","n","4","html-keyboard-response","954","j","kawa","false","",""
"1317.3999999985099","","","","","4","html-slider-response","955","","","","2",""
"2614","shoulder","kelele,ndaniya,mkuu,guruwe","mkuu","j","4","html-keyboard-response","956","j","mkuu","true","",""
"1045.8999999985099","","","","","4","html-slider-response","957","","","","2",""
"4198","tissue","ugomvi,lamigas,kisiwa,katika","ugomvi","f","4","html-keyboard-response","958","j","kisiwa","false","",""
"1069.2999999970198","","","","","4","html-slider-response","959","","","","2",""
"3438","notebook","msitu,kemia,kila,mdudu","kemia","v","4","html-keyboard-response","960","n","mdudu","false","",""
"1077.5","","","","","4","html-slider-response","961","","","","2",""
"2630","snake","jansa,karon,pagtukod,mvringo","pagtukod","j","4","html-keyboard-response","962","f","jansa","false","",""
"2204.39999999851","","","","","4","html-slider-response","963","","","","2",""
"35630","finger","moyo,simu,sufuria,lima","moyo","f","4","html-keyboard-response","964","f","moyo","true","",""
"1549.2000000029802","","","","","4","html-slider-response","965","","","","2",""
"9038","basket","kumba,kumbuka,utepe,hasira","kumba","f","4","html-keyboard-response","966","f","kumba","true","",""
"1293.5","","","","","4","html-slider-response","967","","","","2",""
"7647","curtain","lisud,mchanga,bulwawan,chubani","mchanga","v","4","html-keyboard-response","968","j","bulwawan","false","",""
"1597.3999999985099","","","","","4","html-slider-response","969","","","","2",""
"3710","perfume","bino,sungura,ndogo,katuyoan","katuyoan","n","4","html-keyboard-response","970","n","katuyoan","true","",""
"1781.8999999985099","","","","","4","html-slider-response","971","","","","2",""
"3366","key","miaka,goma,chombo,ahos","chombo","j","4","html-keyboard-response","972","f","miaka","false","",""
"1181.1000000014901","","","","","4","html-slider-response","973","","","","2",""
"3134","olive","bata,jiwe,siagi,welder","jiwe","v","4","html-keyboard-response","974","v","jiwe","true","",""
"933","","","","","4","html-slider-response","975","","","","2",""
"4773","rose","singizi,mwanake,paghalad,amani","paghalad","j","4","html-keyboard-response","976","j","paghalad","true","",""
"1397.8000000044703","","","","","4","html-slider-response","977","","","","2",""
"3126","bridge","daima,ngono,panya,sahani","sahani","n","4","html-keyboard-response","978","j","panya","false","",""
"1325.2000000029802","","","","","4","html-slider-response","979","","","","2",""
"3341","hill","kushoto,kukimba,matumbo,sweta","matumbo","j","4","html-keyboard-response","980","j","matumbo","true","",""
"1045.2999999970198","","","","","4","html-slider-response","981","","","","2",""
"3927","letter","filimbi,chuma,uhuru,kifua","kifua","n","4","html-keyboard-response","982","j","uhuru","false","",""
"1253.5999999940395","","","","","4","html-slider-response","983","","","","2",""
"4231","sock","ndoora,mamba,kimysa,mtirka","mamba","v","4","html-keyboard-response","984","n","mtirka","false","",""
"1277.6999999955297","","","","","4","html-slider-response","985","","","","2",""
"4351","fork","baboy,mgonjwa,paghago,gorisi","mgonjwa","v","4","html-keyboard-response","986","j","paghago","false","",""
"2645.5","","","","","4","html-slider-response","987","","","","2",""
"3430","box","kuacha,adui,rafiki,kitande","adui","v","4","html-keyboard-response","988","v","adui","true","",""
"3335.39999999851","","","","","4","html-slider-response","989","","","","3",""
"5254","gift","baba,nyange,baso,pagtawag","pagtawag","n","4","html-keyboard-response","990","j","baso","false","",""
"1885.6999999955297","","","","","4","html-slider-response","991","","","","2",""
"2782","bucket","baga,ijayo,kiatu,init","kiatu","j","4","html-keyboard-response","992","j","kiatu","true","",""
"1654","","","","","4","html-slider-response","993","","","","2",""
"2550","shop","nopya,kerida,ndezu,samaki","samaki","n","4","html-keyboard-response","994","n","samaki","true","",""
"1358.3999999985099","","","","","4","html-slider-response","995","","","","2",""
"2894","puppet","napulo,mazishi,lamok,godoro","mazishi","v","4","html-keyboard-response","996","v","mazishi","true","",""
"965.7999999970198","","","","","4","html-slider-response","997","","","","2",""
"3110","nose","sehemu,gubat,kopa,kidole","sehemu","f","4","html-keyboard-response","998","j","kopa","false","",""
"1053.8000000044703","","","","","4","html-slider-response","999","","","","2",""
"3567","music","baiski,mraba,mageho,tumbo","baiski","f","4","html-keyboard-response","1000","f","baiski","true","",""
"909.1999999955297","","","","","4","html-slider-response","1001","","","","2",""
"6926","dog","bahari,lubi,washia,kalamu","bahari","f","4","html-keyboard-response","1002","f","bahari","true","",""
"1149.6000000014901","","","","","4","html-slider-response","1003","","","","2",""
"3583","eel","ishara,kunywa,kabuang,msumari","msumari","n","4","html-keyboard-response","1004","n","msumari","true","",""
"1293.4000000059605","","","","","4","html-slider-response","1005","","","","4",""
"2926","number","shule,mundamo,kengele,choori","mundamo","v","4","html-keyboard-response","1006","v","mundamo","true","",""
"1046","","","","","4","html-slider-response","1007","","","","2",""
"6694","tomato","chupi,mvua,chupa,takatak","mvua","v","4","html-keyboard-response","1008","f","chupi","false","",""
"1076.6000000014901","","","","","4","html-slider-response","1009","","","","2",""
"1670","coffin","barua,tubag,kioo,hulma","kioo","j","4","html-keyboard-response","1010","j","kioo","true","",""
"1158","","","","","4","html-slider-response","1011","","","","5",""
"3830","knee","duka,mvuke,kubale,bili","duka","f","4","html-keyboard-response","1012","f","duka","true","",""
"1101.6000000014901","","","","","4","html-slider-response","1013","","","","2",""
"3438","woman","bandari,bituin,pagtabon,kovuli","pagtabon","j","4","html-keyboard-response","1014","j","pagtabon","true","",""
"1053.2999999970198","","","","","4","html-slider-response","1015","","","","2",""
"3310","stone","ulimwengu,mkasi,asili,wingi","wingi","n","4","html-keyboard-response","1016","j","asili","false","",""
"1077.7000000029802","","","","","4","html-slider-response","1017","","","","2",""
"3238","bread","dari,kaili,dizeli,bugas","dari","f","4","html-keyboard-response","1018","f","dari","true","",""
"1341.2000000029802","","","","","4","html-slider-response","1019","","","","2",""
"2478","triangle","kihozi,kasadpan,bentaha,liog","kasadpan","v","4","html-keyboard-response","1020","j","bentaha","false","",""
"853.7000000029802","","","","","4","html-slider-response","1021","","","","2",""
"3942","scissors","duga,mtawa,suga,tanuri","tanuri","n","4","html-keyboard-response","1022","n","tanuri","true","",""
"1285.3999999985099","","","","","4","html-slider-response","1023","","","","2",""
"3477","giraffe","mahitabo,daraja,jumatu,hangyo","mahitabo","f","4","html-keyboard-response","1024","f","mahitabo","true","",""
"1069.6000000014901","","","","","4","html-slider-response","1025","","","","2",""
"2669","flower","tamasha,bega,lobo,usiku","bega","v","4","html-keyboard-response","1026","f","tamasha","false","",""
"965.7000000029802","","","","","4","html-slider-response","1027","","","","2",""
"3366","candle","geza,gabi,farasi,kupanda","geza","f","4","html-keyboard-response","1028","v","gabi","false","",""
"973.1999999955297","","","","","4","html-slider-response","1029","","","","2",""
"4622","mother","kahawa,mbuzi,babaye,jokofu","babaye","j","4","html-keyboard-response","1030","f","kahawa","false","",""
"1069.2999999970198","","","","","4","html-slider-response","1031","","","","2",""
"5709","towel","tembo,funzi,pito,pagpalit","pagpalit","n","4","html-keyboard-response","1032","n","pagpalit","true","",""
"1222","","","","","4","html-slider-response","1033","","","","2",""
"4807","elephant","petye,kito,pagduol,suka","kito","v","4","html-keyboard-response","1034","v","kito","true","",""
"1749.2000000029802","","","","","4","html-slider-response","1035","","","","2",""
"2487","shelf","bungtod,kadaot,pamahaw,awit","pamahaw","j","4","html-keyboard-response","1036","v","kadaot","false","",""
"942.1999999955297","","","","","4","html-slider-response","1037","","","","2",""
"2015","mosquito","isda,taras,martilyo,gutom","martilyo","j","4","html-keyboard-response","1038","j","martilyo","true","",""
"1542.2000000029802","","","","","4","html-slider-response","1039","","","","5",""
"4886","column","pundok,dila,ufagio,pala","ufagio","j","4","html-keyboard-response","1040","n","pala","false","",""
"1061","","","","","4","html-slider-response","1041","","","","2",""
"4630","pants","pintal,chuki,haki,hari","haki","j","4","html-keyboard-response","1042","n","hari","false","",""
"2022.4000000059605","","","","","4","html-slider-response","1043","","","","2",""
"3030","list","alizeti,wingu,kuzama,kaso","wingu","v","4","html-keyboard-response","1044","j","kuzama","false","",""
"2221.89999999851","","","","","4","html-slider-response","1045","","","","2",""
"3838","bank","kudhibi,tualya,silingan,ofisi","silingan","j","4","html-keyboard-response","1046","f","kudhibi","false","",""
"1086.1999999955297","","","","","4","html-slider-response","1047","","","","2",""
"3919","clock","kartasi,abang,mbwa,osha","mbwa","j","4","html-keyboard-response","1048","j","mbwa","true","",""
"1366.0999999940395","","","","","4","html-slider-response","1049","","","","2",""
"2597","ceiling","kugita,kawaida,maua,rayna","maua","j","4","html-keyboard-response","1050","f","kugita","false","",""
"1142.1999999955297","","","","","4","html-slider-response","1051","","","","2",""
"2902","train","itik,sayari,dakika,mungu","sayari","v","4","html-keyboard-response","1052","v","sayari","true","",""
"1165.6999999955297","","","","","4","html-slider-response","1053","","","","2",""
"3919","magazine","gundi,mchawi,bahandi,kiti","kiti","n","4","html-keyboard-response","1054","j","bahandi","false","",""
"2349.5","","","","","4","html-slider-response","1055","","","","2",""
"4398","office","hazini,leso,yatima,kuna","leso","v","4","html-keyboard-response","1056","j","yatima","false","",""
"1165.3999999985099","","","","","4","html-slider-response","1057","","","","2",""
"5774","wheel","punda,tawo,bafuni,baadaye","bafuni","j","4","html-keyboard-response","1058","j","bafuni","true","",""
"1020.6999999955297","","","","","4","html-slider-response","1059","","","","2",""
"2046","spoon","betri,nzuri,pagsulod,ngazi","pagsulod","j","4","html-keyboard-response","1060","j","pagsulod","true","",""
"1245.5","","","","","4","html-slider-response","1061","","","","2",""
"3661","hammer","napakyas,mekno,kitovu,layag","napakyas","f","4","html-keyboard-response","1062","f","napakyas","true","",""
"1101.7999999970198","","","","","4","html-slider-response","1063","","","","2",""
"3791","cigar","ndugu,adhabu,kuta,mlango","adhabu","v","4","html-keyboard-response","1064","j","kuta","false","",""
"1132.2000000029802","","","","","4","html-slider-response","1065","","","","2",""
"4463","shoe","nyeusi,uyoga,hatua,kama","uyoga","v","4","html-keyboard-response","1066","j","hatua","false","",""
"1693.3000000044703","","","","","4","html-slider-response","1067","","","","2",""
"5593","list","alizeti,kuzama,kaso,wingu","wingu","n","5","html-keyboard-response","1069","n","wingu","true","",""
"1244.8999999985099","","","","","5","html-slider-response","1070","","","","2",""
"2942","number","shule,mundamo,kengele,choori","mundamo","v","5","html-keyboard-response","1071","v","mundamo","true","",""
"1053","","","","","5","html-slider-response","1072","","","","2",""
"2159","apple","ukame,kisu,estante,edad","kisu","v","5","html-keyboard-response","1073","v","kisu","true","",""
"1422.2000000029802","","","","","5","html-slider-response","1074","","","","4",""
"2190","knee","duka,mvuke,kubale,bili","duka","f","5","html-keyboard-response","1075","j","kubale","false","",""
"1133.8999999985099","","","","","5","html-slider-response","1076","","","","2",""
"2638","tooth","kijiko,kabalaka,uadui,pahiyum","kabalaka","v","5","html-keyboard-response","1077","j","uadui","false","",""
"3261.60000000149","","","","","5","html-slider-response","1078","","","","2",""
"2142","berry","abogado,nogozi,kinywa,kofia","kofia","n","5","html-keyboard-response","1079","j","kinywa","false","",""
"1462.1000000014901","","","","","5","html-slider-response","1080","","","","2",""
"3735","bridge","daima,sahani,ngono,panya","sahani","v","5","html-keyboard-response","1081","v","sahani","true","",""
"1046.1000000014901","","","","","5","html-slider-response","1082","","","","2",""
"3687","perfume","bino,sungura,katuyoan,ndogo","katuyoan","j","5","html-keyboard-response","1083","j","katuyoan","true","",""
"1517.9000000059605","","","","","5","html-slider-response","1084","","","","2",""
"2670","ladder","pangalan,mashua,mwanga,kamba","pangalan","f","5","html-keyboard-response","1085","f","pangalan","true","",""
"999.1999999955297","","","","","5","html-slider-response","1086","","","","2",""
"3655","pants","haki,pintal,chuki,hari","haki","f","5","html-keyboard-response","1087","n","hari","false","",""
"997.6000000014901","","","","","5","html-slider-response","1088","","","","2",""
"2342","salmon","mzungu,sensilyo,seri,baharia","sensilyo","v","5","html-keyboard-response","1089","f","mzungu","false","",""
"1151","","","","","5","html-slider-response","1090","","","","2",""
"1679","coffin","barua,tubag,hulma,kioo","kioo","n","5","html-keyboard-response","1091","n","kioo","true","",""
"1150.3999999985099","","","","","5","html-slider-response","1092","","","","5",""
"2735","park","tambok,pwani,bunifu,ihalas","bunifu","j","5","html-keyboard-response","1093","v","pwani","false","",""
"1110","","","","","5","html-slider-response","1094","","","","2",""
"2647","giraffe","daraja,mahitabo,jumatu,hangyo","mahitabo","v","5","html-keyboard-response","1095","v","mahitabo","true","",""
"933.7000000029802","","","","","5","html-slider-response","1096","","","","2",""
"3063","mirror","rangi,kanding,sulagma,furaha","sulagma","j","5","html-keyboard-response","1097","n","furaha","false","",""
"1093.5","","","","","5","html-slider-response","1098","","","","2",""
"2214","ceiling","maua,kugita,kawaida,rayna","maua","f","5","html-keyboard-response","1099","j","kawaida","false","",""
"2173.7999999970198","","","","","5","html-slider-response","1100","","","","2",""
"3135","marker","mapafu,salita,maji,atay","maji","j","5","html-keyboard-response","1101","j","maji","true","",""
"981.7000000029802","","","","","5","html-slider-response","1102","","","","2",""
"3558","sock","ndoora,kimysa,mtirka,mamba","mamba","n","5","html-keyboard-response","1103","v","kimysa","false","",""
"869.7000000029802","","","","","5","html-slider-response","1104","","","","2",""
"2677","cop","bustani,jikoni,mechezo,bakus","mechezo","j","5","html-keyboard-response","1105","j","mechezo","true","",""
"1373.9000000059605","","","","","5","html-slider-response","1106","","","","2",""
"3262","gift","baba,pagtawag,nyange,baso","pagtawag","v","5","html-keyboard-response","1107","n","baso","false","",""
"965.6000000014901","","","","","5","html-slider-response","1108","","","","2",""
"2550","notebook","msitu,kila,mdudu,kemia","kemia","n","5","html-keyboard-response","1109","f","msitu","false","",""
"1197.9000000059605","","","","","5","html-slider-response","1110","","","","2",""
"3455","bank","silingan,kudhibi,tualya,ofisi","silingan","f","5","html-keyboard-response","1111","v","kudhibi","false","",""
"1508.8999999985099","","","","","5","html-slider-response","1112","","","","2",""
"3079","letter","filimbi,chuma,kifua,uhuru","kifua","j","5","html-keyboard-response","1113","n","uhuru","false","",""
"972.6000000014901","","","","","5","html-slider-response","1114","","","","2",""
"2574","candle","gabi,farasi,geza,kupanda","geza","j","5","html-keyboard-response","1115","n","kupanda","false","",""
"1405.7999999970198","","","","","5","html-slider-response","1116","","","","2",""
"3038","bread","dari,kaili,dizeli,bugas","dari","f","5","html-keyboard-response","1117","v","kaili","false","",""
"1181.5","","","","","5","html-slider-response","1118","","","","2",""
"4830","snake","jansa,karon,mvringo,pagtukod","pagtukod","n","5","html-keyboard-response","1119","n","pagtukod","true","",""
"1109.2000000029802","","","","","5","html-slider-response","1120","","","","2",""
"3462","rose","singizi,paghalad,mwanake,amani","paghalad","v","5","html-keyboard-response","1121","v","paghalad","true","",""
"1229.5","","","","","5","html-slider-response","1122","","","","2",""
"2510","hill","kushoto,matumbo,kukimba,sweta","matumbo","v","5","html-keyboard-response","1123","v","matumbo","true","",""
"989.3999999985099","","","","","5","html-slider-response","1124","","","","2",""
"2910","train","sayari,itik,dakika,mungu","sayari","f","5","html-keyboard-response","1125","f","sayari","true","",""
"869.8000000044703","","","","","5","html-slider-response","1126","","","","2",""
"4230","shop","nopya,kerida,samaki,ndezu","samaki","j","5","html-keyboard-response","1127","j","samaki","true","",""
"1068.9000000059605","","","","","5","html-slider-response","1128","","","","2",""
"4844","nose","sehemu,gubat,kopa,kidole","sehemu","f","5","html-keyboard-response","1129","j","kopa","false","",""
"1652.7999999970198","","","","","5","html-slider-response","1130","","","","2",""
"2791","boat","hamsi,pombe,agalon,kitanda","agalon","j","5","html-keyboard-response","1131","n","kitanda","false","",""
"989.2999999970198","","","","","5","html-slider-response","1132","","","","2",""
"3326","body","nyundu,jibini,tindashan,kununa","tindashan","j","5","html-keyboard-response","1133","f","nyundu","false","",""
"965.3999999985099","","","","","5","html-slider-response","1134","","","","2",""
"2582","bed","kalipay,haraka,mapintas,starehe","mapintas","j","5","html-keyboard-response","1135","v","haraka","false","",""
"1132.7999999970198","","","","","5","html-slider-response","1136","","","","2",""
"4654","squirrel","mahugaw,ukweli,kichwa,hofu","hofu","n","5","html-keyboard-response","1137","j","kichwa","false","",""
"1326","","","","","5","html-slider-response","1138","","","","2",""
"2430","window","nanga,kujenga,umaga,kweli","kweli","n","5","html-keyboard-response","1139","v","kujenga","false","",""
"1061.8999999985099","","","","","5","html-slider-response","1140","","","","2",""
"6086","bonfire","mwezi,mfuko,goti,kusanya","goti","j","5","html-keyboard-response","1141","f","mwezi","false","",""
"1117.5999999940395","","","","","5","html-slider-response","1142","","","","2",""
"4254","fish","buli,bala,baho,imani","buli","f","5","html-keyboard-response","1143","v","bala","false","",""
"1261.5","","","","","5","html-slider-response","1144","","","","2",""
"2542","cat","neyemba,paghukom,baki,akili","paghukom","v","5","html-keyboard-response","1145","j","baki","false","",""
"3637.4000000059605","","","","","5","html-slider-response","1146","","","","3",""
"2710","spider","kamwe,bunyag,mkboa,atop","kamwe","f","5","html-keyboard-response","1147","f","kamwe","true","",""
"1101.7000000029802","","","","","5","html-slider-response","1148","","","","2",""
"2126","eel","ishara,kunywa,kabuang,msumari","msumari","n","5","html-keyboard-response","1149","n","msumari","true","",""
"1262","","","","","5","html-slider-response","1150","","","","4",""
"4382","woman","bandari,pagtabon,bituin,kovuli","pagtabon","v","5","html-keyboard-response","1151","v","pagtabon","true","",""
"1221.5","","","","","5","html-slider-response","1152","","","","2",""
"2534","magazine","kiti,gundi,mchawi,bahandi","kiti","f","5","html-keyboard-response","1153","f","kiti","true","",""
"3332.9000000059605","","","","","5","html-slider-response","1154","","","","3",""
"2982","pudding","abug,mpishi,iring,aibu","aibu","n","5","html-keyboard-response","1155","v","mpishi","false","",""
"1031.7999999970198","","","","","5","html-slider-response","1156","","","","2",""
"2740","lamp","afya,daub,bilaska,mbolea","afya","f","5","html-keyboard-response","1157","j","bilaska","false","",""
"1317.8000000044703","","","","","5","html-slider-response","1158","","","","2",""
"2630","cave","kesho,ganti,maisha,nyundo","kesho","f","5","html-keyboard-response","1159","n","nyundo","false","",""
"1405.5","","","","","5","html-slider-response","1160","","","","2",""
"3902","shoulder","kelele,ndaniya,guruwe,mkuu","mkuu","n","5","html-keyboard-response","1161","v","ndaniya","false","",""
"1013.8000000044703","","","","","5","html-slider-response","1162","","","","2",""
"2807","stone","wingi,ulimwengu,mkasi,asili","wingi","f","5","html-keyboard-response","1163","j","mkasi","false","",""
"1255.1999999955297","","","","","5","html-slider-response","1164","","","","2",""
"5526","column","pundok,ufagio,dila,pala","ufagio","v","5","html-keyboard-response","1165","v","ufagio","true","",""
"868.5","","","","","5","html-slider-response","1166","","","","2",""
"2598","page","wakala,ishiri,skina,wimbo","wimbo","n","5","html-keyboard-response","1167","f","wakala","false","",""
"1021.7999999970198","","","","","5","html-slider-response","1168","","","","2",""
"3998","shoe","nyeusi,uyoga,hatua,kama","uyoga","v","5","html-keyboard-response","1169","v","uyoga","true","",""
"869.5","","","","","5","html-slider-response","1170","","","","2",""
"5365","clock","kartasi,abang,osha,mbwa","mbwa","n","5","html-keyboard-response","1171","n","mbwa","true","",""
"1421.1999999955297","","","","","5","html-slider-response","1172","","","","2",""
"2798","towel","tembo,funzi,pagpalit,pito","pagpalit","j","5","html-keyboard-response","1173","n","pito","false","",""
"1029.3000000044703","","","","","5","html-slider-response","1174","","","","2",""
"4630","tomato","chupi,chupa,takatak,mvua","mvua","n","5","html-keyboard-response","1175","j","takatak","false","",""
"1037.5","","","","","5","html-slider-response","1176","","","","2",""
"1774","bucket","baga,ijayo,kiatu,init","kiatu","j","5","html-keyboard-response","1177","j","kiatu","true","",""
"1007.1000000014901","","","","","5","html-slider-response","1178","","","","2",""
"2510","finger","simu,moyo,sufuria,lima","moyo","v","5","html-keyboard-response","1179","n","lima","false","",""
"1925.8999999985099","","","","","5","html-slider-response","1180","","","","2",""
"3335","mother","babaye,kahawa,mbuzi,jokofu","babaye","f","5","html-keyboard-response","1181","v","kahawa","false","",""
"1558.7000000029802","","","","","5","html-slider-response","1182","","","","2",""
"3447","human","bado,tinapay,kikapu,punguza","tinapay","v","5","html-keyboard-response","1183","j","kikapu","false","",""
"886.6000000014901","","","","","5","html-slider-response","1184","","","","2",""
"1623","sun","bendi,luha,uongo,basi","basi","n","5","html-keyboard-response","1185","n","basi","true","",""
"1998.6000000014901","","","","","5","html-slider-response","1186","","","","5",""
"4526","fork","baboy,paghago,gorisi,mgonjwa","mgonjwa","n","5","html-keyboard-response","1187","v","paghago","false","",""
"2103.1999999955297","","","","","5","html-slider-response","1188","","","","2",""
"3767","donkey","bloke,elfu,lalake,rombus","elfu","v","5","html-keyboard-response","1189","v","elfu","true","",""
"1645.9000000059605","","","","","5","html-slider-response","1190","","","","2",""
"2432","wolf","kaburi,ndizi,lugha,mchuzi","lugha","j","5","html-keyboard-response","1191","f","kaburi","false","",""
"1373.5999999940395","","","","","5","html-slider-response","1192","","","","2",""
"2895","cigar","ndugu,adhabu,kuta,mlango","adhabu","v","5","html-keyboard-response","1193","j","kuta","false","",""
"1166.7000000029802","","","","","5","html-slider-response","1194","","","","2",""
"3726","olive","jiwe,bata,siagi,welder","jiwe","f","5","html-keyboard-response","1195","f","jiwe","true","",""
"1133.3000000044703","","","","","5","html-slider-response","1196","","","","2",""
"2462","key","miaka,goma,chombo,ahos","chombo","j","5","html-keyboard-response","1197","f","miaka","false","",""
"1229.7999999970198","","","","","5","html-slider-response","1198","","","","2",""
"1935","door","tena,soko,nyota,surali","surali","n","5","html-keyboard-response","1199","j","nyota","false","",""
"1085.5","","","","","5","html-slider-response","1200","","","","2",""
"3311","wheel","bafuni,punda,tawo,baadaye","bafuni","f","5","html-keyboard-response","1201","n","baadaye","false","",""
"989.7999999970198","","","","","5","html-slider-response","1202","","","","2",""
"2127","basket","kumbuka,utepe,kumba,hasira","kumba","j","5","html-keyboard-response","1203","j","kumba","true","",""
"933","","","","","5","html-slider-response","1204","","","","2",""
"2758","elephant","kito,petye,pagduol,suka","kito","f","5","html-keyboard-response","1205","f","kito","true","",""
"2189.60000000149","","","","","5","html-slider-response","1206","","","","2",""
"5407","office","hazini,yatima,kuna,leso","leso","n","5","html-keyboard-response","1207","v","yatima","false","",""
"1084.7999999970198","","","","","5","html-slider-response","1208","","","","2",""
"3101","music","mraba,mageho,tumbo,baiski","baiski","n","5","html-keyboard-response","1209","n","baiski","true","",""
"2053.6999999955297","","","","","5","html-slider-response","1210","","","","2",""
"2887","tissue","lamigas,kisiwa,katika,ugomvi","ugomvi","n","5","html-keyboard-response","1211","j","katika","false","",""
"1068.3999999985099","","","","","5","html-slider-response","1212","","","","2",""
"3854","curtain","lisud,mchanga,bulwawan,chubani","mchanga","v","5","html-keyboard-response","1213","v","mchanga","true","",""
"1541.3999999985099","","","","","5","html-slider-response","1214","","","","2",""
"2838","flag","ndege,mkate,kawa,trekta","trekta","n","5","html-keyboard-response","1215","j","kawa","false","",""
"1462","","","","","5","html-slider-response","1216","","","","2",""
"2775","dog","lubi,washia,bahari,kalamu","bahari","j","5","html-keyboard-response","1217","j","bahari","true","",""
"1517.2999999970198","","","","","5","html-slider-response","1218","","","","2",""
"4654","cup","matumai,dagat,shimoni,jeraha","matumai","f","5","html-keyboard-response","1219","f","matumai","true","",""
"1054.1000000014901","","","","","5","html-slider-response","1220","","","","2",""
"3134","sheet","bililhon,juuya,watu,kamantis","bililhon","f","5","html-keyboard-response","1221","j","watu","false","",""
"1365.2999999970198","","","","","5","html-slider-response","1222","","","","2",""
"2486","spoon","betri,nzuri,pagsulod,ngazi","pagsulod","j","5","html-keyboard-response","1223","j","pagsulod","true","",""
"1053.2999999970198","","","","","5","html-slider-response","1224","","","","2",""
"2526","flower","tamasha,lobo,usiku,bega","bega","n","5","html-keyboard-response","1225","f","tamasha","false","",""
"1141.3999999985099","","","","","5","html-slider-response","1226","","","","2",""
"2149","picture","silya,chaki,kubwa,asin","kubwa","j","5","html-keyboard-response","1227","j","kubwa","true","",""
"1475.6000000014901","","","","","5","html-slider-response","1228","","","","2",""
"2646","puppet","napulo,lamok,godoro,mazishi","mazishi","n","5","html-keyboard-response","1229","n","mazishi","true","",""
"1237.5999999940395","","","","","5","html-slider-response","1230","","","","2",""
"1718","banana","kasamok,hagdan,kazi,twai","kazi","j","5","html-keyboard-response","1231","j","kazi","true","",""
"1861.2000000029802","","","","","5","html-slider-response","1232","","","","4",""
"4599","book","kuhesa,picha,mali,mara","mali","j","5","html-keyboard-response","1233","n","mara","false","",""
"1070","","","","","5","html-slider-response","1234","","","","2",""
"2302","triangle","kihozi,bentaha,liog,kasadpan","kasadpan","n","5","html-keyboard-response","1235","v","bentaha","false","",""
"870","","","","","5","html-slider-response","1236","","","","2",""
"2839","poster","nchi,fedha,kasuko,madungog","madungog","n","5","html-keyboard-response","1237","j","kasuko","false","",""
"1574.7000000029802","","","","","5","html-slider-response","1238","","","","2",""
"2246","box","kuacha,rafiki,kitande,adui","adui","n","5","html-keyboard-response","1239","j","kitande","false","",""
"1053.5","","","","","5","html-slider-response","1240","","","","2",""
"1951","mosquito","isda,taras,gutom,martilyo","martilyo","n","5","html-keyboard-response","1241","n","martilyo","true","",""
"1790.3000000044703","","","","","5","html-slider-response","1242","","","","5",""
"2350","shelf","bungtod,kadaot,awit,pamahaw","pamahaw","n","5","html-keyboard-response","1243","v","kadaot","false","",""
"1190.5","","","","","5","html-slider-response","1244","","","","2",""
"2951","scissors","duga,mtawa,suga,tanuri","tanuri","n","5","html-keyboard-response","1245","v","mtawa","false","",""
"981.8999999985099","","","","","5","html-slider-response","1246","","","","2",""
"2103","hammer","mekno,napakyas,kitovu,layag","napakyas","v","5","html-keyboard-response","1247","j","kitovu","false","",""
"1165.9000000059605","","","","","5","html-slider-response","1248","","","","2",""
