"rt","en_word","options","swa_word","correct_answer","phase","trial_type","trial_index","input_answer","input_word","accuracy","certainty","amt_choices"
"4828","bonfire","mwezi,goti,mfuko,kusanya","goti","v","2","html-keyboard-response","106","j","mfuko","false","",""
"3326","","","","","2","html-slider-response","107","","","","4",""
"8272","flower","tamasha,lobo,bega,usiku","bega","j","2","html-keyboard-response","108","j","bega","true","",""
"3277.0999999940395","","","","","2","html-slider-response","109","","","","4",""
"4047","column","pundok,ufagio,dila,pala","ufagio","v","2","html-keyboard-response","110","f","pundok","false","",""
"2735.5","","","","","2","html-slider-response","111","","","","4",""
"16994","music","mraba,baiski,mageho,tumbo","baiski","v","2","html-keyboard-response","112","n","tumbo","false","",""
"8107.29999999702","","","","","2","html-slider-response","113","","","","2",""
"4721","spider","kamwe,bunyag,mkboa,atop","kamwe","f","2","html-keyboard-response","114","f","kamwe","true","",""
"4132.399999991059","","","","","2","html-slider-response","115","","","","2",""
"9430","fork","mgonjwa,baboy,paghago,gorisi","mgonjwa","f","2","html-keyboard-response","116","v","baboy","false","",""
"4622","","","","","2","html-slider-response","117","","","","2",""
"5624","mosquito","isda,taras,gutom,martilyo","martilyo","n","2","html-keyboard-response","118","n","martilyo","true","",""
"2645.1000000089407","","","","","2","html-slider-response","119","","","","4",""
"8245","banana","kazi,kasamok,hagdan,twai","kazi","f","2","html-keyboard-response","120","f","kazi","true","",""
"3220.7000000029802","","","","","2","html-slider-response","121","","","","2",""
"10519","cup","dagat,shimoni,jeraha,matumai","matumai","n","2","html-keyboard-response","122","f","dagat","false","",""
"3285.7999999970198","","","","","2","html-slider-response","123","","","","4",""
"5590","shop","samaki,nopya,kerida,ndezu","samaki","f","2","html-keyboard-response","124","f","samaki","true","",""
"3199.5","","","","","2","html-slider-response","125","","","","2",""
"19588","elephant","kito,petye,pagduol,suka","kito","f","2","html-keyboard-response","126","v","petye","false","",""
"3359.5","","","","","2","html-slider-response","127","","","","4",""
"16034","bucket","kiatu,baga,ijayo,init","kiatu","f","2","html-keyboard-response","128","f","kiatu","true","",""
"3281.7999999970198","","","","","2","html-slider-response","129","","","","2",""
"4028","book","kuhesa,mali,picha,mara","mali","v","2","html-keyboard-response","130","v","mali","true","",""
"3806.7999999970198","","","","","2","html-slider-response","131","","","","4",""
"13839","mirror","rangi,sulagma,kanding,furaha","sulagma","v","2","html-keyboard-response","132","f","rangi","false","",""
"2714.300000011921","","","","","2","html-slider-response","133","","","","2",""
"4901","office","hazini,yatima,kuna,leso","leso","n","2","html-keyboard-response","134","n","leso","true","",""
"3468.2999999970198","","","","","2","html-slider-response","135","","","","5",""
"10568","body","nyundu,jibini,kununa,tindashan","tindashan","n","2","html-keyboard-response","136","j","kununa","false","",""
"3126.2000000029802","","","","","2","html-slider-response","137","","","","4",""
"3456","perfume","bino,sungura,katuyoan,ndogo","katuyoan","j","2","html-keyboard-response","138","n","ndogo","false","",""
"5804","","","","","2","html-slider-response","139","","","","3",""
"4112","olive","bata,siagi,welder,jiwe","jiwe","n","2","html-keyboard-response","140","v","siagi","false","",""
"4443.100000008941","","","","","2","html-slider-response","141","","","","4",""
"14625","magazine","gundi,mchawi,bahandi,kiti","kiti","n","2","html-keyboard-response","142","n","kiti","true","",""
"2913.7000000029802","","","","","2","html-slider-response","143","","","","5",""
"3820","bread","dari,kaili,dizeli,bugas","dari","f","2","html-keyboard-response","144","f","dari","true","",""
"3127.9000000059605","","","","","2","html-slider-response","145","","","","4",""
"6421","cave","ganti,maisha,kesho,nyundo","kesho","j","2","html-keyboard-response","146","j","kesho","true","",""
"3036.9000000059605","","","","","2","html-slider-response","147","","","","4",""
"3367","ladder","mashua,mwanga,kamba,pangalan","pangalan","n","2","html-keyboard-response","148","n","pangalan","true","",""
"2821.7000000029802","","","","","2","html-slider-response","149","","","","4",""
"3484","human","bado,kikapu,punguza,tinapay","tinapay","n","2","html-keyboard-response","150","n","tinapay","true","",""
"3968.1000000089407","","","","","2","html-slider-response","151","","","","5",""
"9933","clock","kartasi,mbwa,abang,osha","mbwa","v","2","html-keyboard-response","152","v","mbwa","true","",""
"4813.70000000298","","","","","2","html-slider-response","153","","","","2",""
"4039","shelf","bungtod,pamahaw,kadaot,awit","pamahaw","v","2","html-keyboard-response","154","v","pamahaw","true","",""
"3103.7000000029802","","","","","2","html-slider-response","155","","","","5",""
"2880","salmon","mzungu,seri,baharia,sensilyo","sensilyo","n","2","html-keyboard-response","156","f","mzungu","false","",""
"3470.2000000029802","","","","","2","html-slider-response","157","","","","1",""
"6934","coffin","barua,tubag,kioo,hulma","kioo","j","2","html-keyboard-response","158","v","tubag","false","",""
"3022.9000000059605","","","","","2","html-slider-response","159","","","","4",""
"6484","notebook","msitu,kila,kemia,mdudu","kemia","j","2","html-keyboard-response","160","f","msitu","false","",""
"3245.9000000059605","","","","","2","html-slider-response","161","","","","1",""
"7416","shoulder","mkuu,kelele,ndaniya,guruwe","mkuu","f","2","html-keyboard-response","162","f","mkuu","true","",""
"3676.1000000089407","","","","","2","html-slider-response","163","","","","5",""
"9001","park","tambok,pwani,ihalas,bunifu","bunifu","n","2","html-keyboard-response","164","j","ihalas","false","",""
"4121.20000000298","","","","","2","html-slider-response","165","","","","2",""
"3768","number","mundamo,shule,kengele,choori","mundamo","f","2","html-keyboard-response","166","f","mundamo","true","",""
"3535.9000000059605","","","","","2","html-slider-response","167","","","","2",""
"3647","apple","kisu,ukame,estante,edad","kisu","f","2","html-keyboard-response","168","n","edad","false","",""
"2888.9000000059605","","","","","2","html-slider-response","169","","","","4",""
"10025","letter","filimbi,kifua,chuma,uhuru","kifua","v","2","html-keyboard-response","170","f","filimbi","false","",""
"3177.2000000029802","","","","","2","html-slider-response","171","","","","4",""
"3290","eel","ishara,kunywa,kabuang,msumari","msumari","n","2","html-keyboard-response","172","v","kunywa","false","",""
"3489.9000000059605","","","","","2","html-slider-response","173","","","","2",""
"9184","cop","mechezo,bustani,jikoni,bakus","mechezo","f","2","html-keyboard-response","174","j","jikoni","false","",""
"2937.300000011921","","","","","2","html-slider-response","175","","","","4",""
"7897","wolf","kaburi,lugha,ndizi,mchuzi","lugha","v","2","html-keyboard-response","176","v","lugha","true","",""
"3382.2000000029802","","","","","2","html-slider-response","177","","","","4",""
"3591","squirrel","mahugaw,hofu,ukweli,kichwa","hofu","v","2","html-keyboard-response","178","n","kichwa","false","",""
"3069.199999988079","","","","","2","html-slider-response","179","","","","2",""
"7518","nose","gubat,kopa,sehemu,kidole","sehemu","j","2","html-keyboard-response","180","j","sehemu","true","",""
"3911.0999999940395","","","","","2","html-slider-response","181","","","","4",""
"14398","sock","mamba,ndoora,kimysa,mtirka","mamba","f","2","html-keyboard-response","182","f","mamba","true","",""
"3311.7000000029802","","","","","2","html-slider-response","183","","","","4",""
"10846","bank","silingan,kudhibi,tualya,ofisi","silingan","f","2","html-keyboard-response","184","v","kudhibi","false","",""
"3234.0999999940395","","","","","2","html-slider-response","185","","","","4",""
"2368","donkey","elfu,bloke,lalake,rombus","elfu","f","2","html-keyboard-response","186","f","elfu","true","",""
"3424.8999999910593","","","","","2","html-slider-response","187","","","","2",""
"2656","poster","nchi,madungog,fedha,kasuko","madungog","v","2","html-keyboard-response","188","f","nchi","false","",""
"3518","","","","","2","html-slider-response","189","","","","4",""
"10419","puppet","napulo,lamok,mazishi,godoro","mazishi","j","2","html-keyboard-response","190","v","lamok","false","",""
"3401.4000000059605","","","","","2","html-slider-response","191","","","","2",""
"3139","hill","matumbo,kushoto,kukimba,sweta","matumbo","f","2","html-keyboard-response","192","n","sweta","false","",""
"3671.2000000029802","","","","","2","html-slider-response","193","","","","4",""
"3334","tooth","kijiko,uadui,kabalaka,pahiyum","kabalaka","j","2","html-keyboard-response","194","v","uadui","false","",""
"3600.3999999910593","","","","","2","html-slider-response","195","","","","2",""
"23991","woman","bandari,pagtabon,bituin,kovuli","pagtabon","v","2","html-keyboard-response","196","f","bandari","false","",""
"5835.79999999702","","","","","2","html-slider-response","197","","","","4",""
"2880","wheel","punda,bafuni,tawo,baadaye","bafuni","v","2","html-keyboard-response","198","n","baadaye","false","",""
"3718.0999999940395","","","","","2","html-slider-response","199","","","","1",""
"6061","mother","babaye,kahawa,mbuzi,jokofu","babaye","f","2","html-keyboard-response","200","f","babaye","true","",""
"7352.4000000059605","","","","","2","html-slider-response","201","","","","5",""
"8592","bed","kalipay,haraka,mapintas,starehe","mapintas","j","2","html-keyboard-response","202","f","kalipay","false","",""
"3123.4000000059605","","","","","2","html-slider-response","203","","","","4",""
"5722","key","miaka,goma,chombo,ahos","chombo","j","2","html-keyboard-response","204","j","chombo","true","",""
"3018.5999999940395","","","","","2","html-slider-response","205","","","","4",""
"10440","page","wakala,ishiri,skina,wimbo","wimbo","n","2","html-keyboard-response","206","n","wimbo","true","",""
"3034.7000000029802","","","","","2","html-slider-response","207","","","","4",""
"9840","pants","pintal,chuki,hari,haki","haki","n","2","html-keyboard-response","208","v","chuki","false","",""
"10457.699999988079","","","","","2","html-slider-response","209","","","","2",""
"27263","sun","bendi,basi,luha,uongo","basi","v","2","html-keyboard-response","210","f","bendi","false","",""
"3204.5999999940395","","","","","2","html-slider-response","211","","","","4",""
"7230","finger","simu,sufuria,moyo,lima","moyo","j","2","html-keyboard-response","212","j","moyo","true","",""
"4616","","","","","2","html-slider-response","213","","","","5",""
"12850","shoe","nyeusi,hatua,kama,uyoga","uyoga","n","2","html-keyboard-response","214","f","nyeusi","false","",""
"4089.2000000029802","","","","","2","html-slider-response","215","","","","4",""
"3446","giraffe","daraja,jumatu,mahitabo,hangyo","mahitabo","j","2","html-keyboard-response","216","j","mahitabo","true","",""
"3486.699999988079","","","","","2","html-slider-response","217","","","","2",""
"2610","dog","lubi,washia,kalamu,bahari","bahari","n","2","html-keyboard-response","218","n","bahari","true","",""
"3593.2999999970198","","","","","2","html-slider-response","219","","","","5",""
"7708","box","kuacha,rafiki,adui,kitande","adui","j","2","html-keyboard-response","220","v","rafiki","false","",""
"3472.5999999940395","","","","","2","html-slider-response","221","","","","2",""
"2409","scissors","duga,tanuri,mtawa,suga","tanuri","v","2","html-keyboard-response","222","f","duga","false","",""
"5527.5","","","","","2","html-slider-response","223","","","","3",""
"11924","cat","paghukom,neyemba,baki,akili","paghukom","f","2","html-keyboard-response","224","v","neyemba","false","",""
"3108.3999999910593","","","","","2","html-slider-response","225","","","","4",""
"7675","basket","kumbuka,utepe,hasira,kumba","kumba","n","2","html-keyboard-response","226","f","kumbuka","false","",""
"3643.3999999910593","","","","","2","html-slider-response","227","","","","4",""
"3275","snake","pagtukod,jansa,karon,mvringo","pagtukod","f","2","html-keyboard-response","228","v","jansa","false","",""
"2842.5","","","","","2","html-slider-response","229","","","","4",""
"2711","gift","baba,pagtawag,nyange,baso","pagtawag","v","2","html-keyboard-response","230","n","baso","false","",""
"3118.8999999910593","","","","","2","html-slider-response","231","","","","2",""
"4713","train","sayari,itik,dakika,mungu","sayari","f","2","html-keyboard-response","232","j","dakika","false","",""
"3443.4000000059605","","","","","2","html-slider-response","233","","","","4",""
"1991","pudding","aibu,abug,mpishi,iring","aibu","f","2","html-keyboard-response","234","v","abug","false","",""
"2958.1000000089407","","","","","2","html-slider-response","235","","","","1",""
"2458","tomato","chupi,chupa,takatak,mvua","mvua","n","2","html-keyboard-response","236","f","chupi","false","",""
"3518.0999999940395","","","","","2","html-slider-response","237","","","","2",""
"3115","stone","ulimwengu,wingi,mkasi,asili","wingi","v","2","html-keyboard-response","238","v","wingi","true","",""
"3084.300000011921","","","","","2","html-slider-response","239","","","","4",""
"10395","hammer","mekno,napakyas,kitovu,layag","napakyas","v","2","html-keyboard-response","240","v","napakyas","true","",""
"3074","","","","","2","html-slider-response","241","","","","4",""
"11887","knee","mvuke,kubale,duka,bili","duka","j","2","html-keyboard-response","242","n","bili","false","",""
"2939.2999999970198","","","","","2","html-slider-response","243","","","","4",""
"5148","ceiling","kugita,maua,kawaida,rayna","maua","v","2","html-keyboard-response","244","j","kawaida","false","",""
"2899.4000000059605","","","","","2","html-slider-response","245","","","","2",""
"2574","spoon","pagsulod,betri,nzuri,ngazi","pagsulod","f","2","html-keyboard-response","246","j","nzuri","false","",""
"3218.7999999970198","","","","","2","html-slider-response","247","","","","1",""
"2443","marker","mapafu,maji,salita,atay","maji","v","2","html-keyboard-response","248","n","atay","false","",""
"2582.0999999940395","","","","","2","html-slider-response","249","","","","4",""
"3033","candle","geza,gabi,farasi,kupanda","geza","f","2","html-keyboard-response","250","n","kupanda","false","",""
"3230.5","","","","","2","html-slider-response","251","","","","4",""
"3170","tissue","lamigas,kisiwa,katika,ugomvi","ugomvi","n","2","html-keyboard-response","252","j","katika","false","",""
"3342.7999999970198","","","","","2","html-slider-response","253","","","","2",""
"4931","bridge","daima,ngono,sahani,panya","sahani","j","2","html-keyboard-response","254","j","sahani","true","",""
"3536.2000000029802","","","","","2","html-slider-response","255","","","","5",""
"4666","berry","kofia,abogado,nogozi,kinywa","kofia","f","2","html-keyboard-response","256","v","abogado","false","",""
"3366.0999999940395","","","","","2","html-slider-response","257","","","","4",""
"4885","triangle","kasadpan,kihozi,bentaha,liog","kasadpan","f","2","html-keyboard-response","258","f","kasadpan","true","",""
"3401.3999999910593","","","","","2","html-slider-response","259","","","","4",""
"5793","door","tena,soko,surali,nyota","surali","j","2","html-keyboard-response","260","j","surali","true","",""
"2849.5999999940395","","","","","2","html-slider-response","261","","","","5",""
"9561","fish","bala,baho,buli,imani","buli","j","2","html-keyboard-response","262","v","baho","false","",""
"2721.3999999910593","","","","","2","html-slider-response","263","","","","4",""
"2261","curtain","lisud,bulwawan,chubani,mchanga","mchanga","n","2","html-keyboard-response","264","j","chubani","false","",""
"2899.7999999970198","","","","","2","html-slider-response","265","","","","2",""
"3430","flag","ndege,trekta,mkate,kawa","trekta","v","2","html-keyboard-response","266","v","trekta","true","",""
"2845","","","","","2","html-slider-response","267","","","","2",""
"2001","boat","hamsi,agalon,pombe,kitanda","agalon","v","2","html-keyboard-response","268","j","pombe","false","",""
"4039.800000011921","","","","","2","html-slider-response","269","","","","4",""
"10767","rose","singizi,mwanake,paghalad,amani","paghalad","j","2","html-keyboard-response","270","v","mwanake","false","",""
"4550.20000000298","","","","","2","html-slider-response","271","","","","4",""
"6252","lamp","daub,afya,bilaska,mbolea","afya","v","2","html-keyboard-response","272","n","mbolea","false","",""
"4298.899999991059","","","","","2","html-slider-response","273","","","","2",""
"2910","cigar","ndugu,kuta,adhabu,mlango","adhabu","j","2","html-keyboard-response","274","j","adhabu","true","",""
"3280.1000000089407","","","","","2","html-slider-response","275","","","","2",""
"3248","list","alizeti,wingu,kuzama,kaso","wingu","v","2","html-keyboard-response","276","j","kuzama","false","",""
"3163.2999999970198","","","","","2","html-slider-response","277","","","","4",""
"11903","sheet","juuya,watu,bililhon,kamantis","bililhon","j","2","html-keyboard-response","278","v","watu","false","",""
"3054.2999999970198","","","","","2","html-slider-response","279","","","","4",""
"7170","picture","kubwa,silya,chaki,asin","kubwa","f","2","html-keyboard-response","280","f","kubwa","true","",""
"3167.3999999910593","","","","","2","html-slider-response","281","","","","5",""
"9690","towel","pagpalit,tembo,funzi,pito","pagpalit","f","2","html-keyboard-response","282","n","pito","false","",""
"3512","","","","","2","html-slider-response","283","","","","2",""
"8358","window","nanga,kweli,kujenga,umaga","kweli","v","2","html-keyboard-response","284","v","kweli","true","",""
"3890.2999999970198","","","","","2","html-slider-response","285","","","","4",""
"25209","box","kuacha,rafiki,adui,kitande","adui","j","3","html-keyboard-response","293","v","rafiki","false","","4"
"3649","","","","","3","html-slider-response","294","","","","2",""
"7463","","","","","3","html-keyboard-response","295","","","","",""
"7589","pants","pintal,haki,chuki,hari","haki","v","3","html-keyboard-response","296","f","pintal","false","","4"
"4225.70000000298","","","","","3","html-slider-response","297","","","","2",""
"13030","","","","","3","html-keyboard-response","298","","","","",""
"9464","cup","matumai,dagat,shimoni,jeraha","matumai","f","3","html-keyboard-response","299","f","matumai","true","","4"
"3140.5","","","","","3","html-slider-response","300","","","","4",""
"27926","","","","","3","html-keyboard-response","301","","","","",""
"24775","triangle","kihozi,bentaha,kasadpan,liog","kasadpan","j","3","html-keyboard-response","302","v","bentaha","false","","4"
"2920.7999999970198","","","","","3","html-slider-response","303","","","","4",""
"8630","","","","","3","html-keyboard-response","304","","","","",""
"3162","curtain","lisud,mchanga,bulwawan,chubani","mchanga","v","3","html-keyboard-response","305","n","chubani","false","","4"
"2935.8999999910593","","","","","3","html-slider-response","306","","","","4",""
"11877","","","","","3","html-keyboard-response","307","","","","",""
"7682","clock","kartasi,mbwa,abang,osha","mbwa","v","3","html-keyboard-response","308","n","osha","false","","4"
"2922.4000000059605","","","","","3","html-slider-response","309","","","","4",""
"8724","","","","","3","html-keyboard-response","310","","","","",""
"7166","mirror","rangi,kanding,sulagma,furaha","sulagma","j","3","html-keyboard-response","311","f","rangi","false","","4"
"3615.0999999940395","","","","","3","html-slider-response","312","","","","2",""
"3061","","","","","3","html-keyboard-response","313","","","","",""
"11589","coffin","kioo,barua,tubag,hulma","kioo","f","3","html-keyboard-response","314","f","kioo","true","","1"
"3252.7000000029802","","","","","3","html-slider-response","315","","","","5",""
"2960","","","","","3","html-keyboard-response","316","","","","",""
"15593","magazine","gundi,mchawi,kiti,bahandi","kiti","j","3","html-keyboard-response","317","j","kiti","true","","4"
"3458.5","","","","","3","html-slider-response","318","","","","4",""
"1451","","","","","3","html-keyboard-response","319","","","","",""
"17187","column","pundok,dila,pala,ufagio","ufagio","n","3","html-keyboard-response","320","n","ufagio","true","","1"
"3299.4000000059605","","","","","3","html-slider-response","321","","","","5",""
"1288","","","","","3","html-keyboard-response","322","","","","",""
"4956","number","shule,kengele,choori,mundamo","mundamo","n","3","html-keyboard-response","323","v","kengele","false","","4"
"6100.20000000298","","","","","3","html-slider-response","324","","","","2",""
"11804","","","","","3","html-keyboard-response","325","","","","",""
"8864","rose","singizi,paghalad,mwanake,amani","paghalad","v","3","html-keyboard-response","326","f","singizi","false","","4"
"2779.7000000029802","","","","","3","html-slider-response","327","","","","4",""
"12132","","","","","3","html-keyboard-response","328","","","","",""
"3468","eel","ishara,kunywa,kabuang,msumari","msumari","n","3","html-keyboard-response","329","v","kunywa","false","","4"
"3608","","","","","3","html-slider-response","330","","","","4",""
"10124","","","","","3","html-keyboard-response","331","","","","",""
"7901","gift","baba,nyange,pagtawag,baso","pagtawag","j","3","html-keyboard-response","332","n","baso","false","","4"
"2777.9000000059605","","","","","3","html-slider-response","333","","","","4",""
"2014","","","","","3","html-keyboard-response","334","","","","",""
"2283","apple","ukame,estante,edad,kisu","kisu","n","3","html-keyboard-response","335","n","kisu","true","","1"
"3697.5999999940395","","","","","3","html-slider-response","336","","","","4",""
"1773","","","","","3","html-keyboard-response","337","","","","",""
"1945","wheel","punda,tawo,baadaye,bafuni","bafuni","n","3","html-keyboard-response","338","n","bafuni","true","","1"
"3608.0999999940395","","","","","3","html-slider-response","339","","","","4",""
"1630","","","","","3","html-keyboard-response","340","","","","",""
"5115","knee","mvuke,duka,kubale,bili","duka","v","3","html-keyboard-response","341","v","duka","true","","4"
"3058.199999988079","","","","","3","html-slider-response","342","","","","4",""
"1181","","","","","3","html-keyboard-response","343","","","","",""
"3497","basket","kumbuka,kumba,utepe,hasira","kumba","v","3","html-keyboard-response","344","v","kumba","true","","1"
"4258.5","","","","","3","html-slider-response","345","","","","5",""
"1384","","","","","3","html-keyboard-response","346","","","","",""
"6272","park","tambok,pwani,ihalas,bunifu","bunifu","n","3","html-keyboard-response","347","n","bunifu","true","","4"
"3374.5999999940395","","","","","3","html-slider-response","348","","","","5",""
"7416","","","","","3","html-keyboard-response","349","","","","",""
"6755","finger","moyo,simu,sufuria,lima","moyo","f","3","html-keyboard-response","350","f","moyo","true","","4"
"3276","","","","","3","html-slider-response","351","","","","5",""
"1352","","","","","3","html-keyboard-response","352","","","","",""
"8867","boat","hamsi,pombe,agalon,kitanda","agalon","j","3","html-keyboard-response","353","v","pombe","false","","4"
"3263.5999999940395","","","","","3","html-slider-response","354","","","","4",""
"2025","","","","","3","html-keyboard-response","355","","","","",""
"4072","hill","matumbo,kushoto,kukimba,sweta","matumbo","f","3","html-keyboard-response","356","n","sweta","false","","4"
"2826","","","","","3","html-slider-response","357","","","","4",""
"2261","","","","","3","html-keyboard-response","358","","","","",""
"29173","train","itik,sayari,dakika,mungu","sayari","v","3","html-keyboard-response","359","f","itik","false","","4"
"4838.79999999702","","","","","3","html-slider-response","360","","","","2",""
"7582","","","","","3","html-keyboard-response","361","","","","",""
"7832","wolf","kaburi,lugha,ndizi,mchuzi","lugha","v","3","html-keyboard-response","362","v","lugha","true","","4"
"2934.7999999970198","","","","","3","html-slider-response","363","","","","4",""
"1265","","","","","3","html-keyboard-response","364","","","","",""
"37378","snake","jansa,karon,mvringo,pagtukod","pagtukod","n","3","html-keyboard-response","365","n","pagtukod","true","","4"
"3594.2999999970198","","","","","3","html-slider-response","366","","","","2",""
"2122","","","","","3","html-keyboard-response","367","","","","",""
"18862","tooth","kijiko,uadui,kabalaka,pahiyum","kabalaka","j","3","html-keyboard-response","368","j","kabalaka","true","","4"
"2920.7000000029802","","","","","3","html-slider-response","369","","","","2",""
"2602","","","","","3","html-keyboard-response","370","","","","",""
"15631","notebook","msitu,kila,mdudu,kemia","kemia","n","3","html-keyboard-response","371","j","mdudu","false","","4"
"3224.800000011921","","","","","3","html-slider-response","372","","","","4",""
"12865","","","","","3","html-keyboard-response","373","","","","",""
"6626","flag","trekta,ndege,mkate,kawa","trekta","f","3","html-keyboard-response","374","n","kawa","false","","4"
"3713.2000000029802","","","","","3","html-slider-response","375","","","","4",""
"9376","","","","","3","html-keyboard-response","376","","","","",""
"5301","squirrel","mahugaw,hofu,ukweli,kichwa","hofu","v","3","html-keyboard-response","377","n","kichwa","false","","4"
"2544","","","","","3","html-slider-response","378","","","","4",""
"1914","","","","","3","html-keyboard-response","379","","","","",""
"4295","door","tena,surali,soko,nyota","surali","v","3","html-keyboard-response","380","v","surali","true","","4"
"5554.399999991059","","","","","3","html-slider-response","381","","","","4",""
"979","","","","","3","html-keyboard-response","382","","","","",""
"3013","salmon","mzungu,seri,sensilyo,baharia","sensilyo","j","3","html-keyboard-response","383","j","sensilyo","true","","4"
"3596","","","","","3","html-slider-response","384","","","","2",""
"4945","","","","","3","html-keyboard-response","385","","","","",""
"61961","shoulder","mkuu,kelele,ndaniya,guruwe","mkuu","f","3","html-keyboard-response","386","f","mkuu","true","","4"
"3971","","","","","3","html-slider-response","387","","","","5",""
"23211","","","","","3","html-keyboard-response","388","","","","",""
"20412","lamp","daub,bilaska,afya,mbolea","afya","j","3","html-keyboard-response","389","n","mbolea","false","","4"
"4482.9000000059605","","","","","3","html-slider-response","390","","","","2",""
"12586","","","","","3","html-keyboard-response","391","","","","",""
"2540","shelf","bungtod,kadaot,pamahaw,awit","pamahaw","j","3","html-keyboard-response","392","j","pamahaw","true","","1"
"3850.2999999970198","","","","","3","html-slider-response","393","","","","5",""
"1057","","","","","3","html-keyboard-response","394","","","","",""
"3136","human","bado,kikapu,punguza,tinapay","tinapay","n","3","html-keyboard-response","395","n","tinapay","true","","4"
"4392.5","","","","","3","html-slider-response","396","","","","5",""
"791","","","","","3","html-keyboard-response","397","","","","",""
"3979","towel","tembo,funzi,pito,pagpalit","pagpalit","n","3","html-keyboard-response","398","j","pito","false","","4"
"4041","","","","","3","html-slider-response","399","","","","4",""
"1955","","","","","3","html-keyboard-response","400","","","","",""
"3600","cat","neyemba,paghukom,baki,akili","paghukom","v","3","html-keyboard-response","401","f","neyemba","false","","4"
"4965.5","","","","","3","html-slider-response","402","","","","5",""
"3492","","","","","3","html-keyboard-response","403","","","","",""
"2392","spider","bunyag,kamwe,mkboa,atop","kamwe","v","3","html-keyboard-response","404","n","atop","false","","4"
"18807","","","","","3","html-slider-response","405","","","","2",""
"9829","","","","","3","html-keyboard-response","406","","","","",""
"18688","window","nanga,kujenga,kweli,umaga","kweli","j","3","html-keyboard-response","407","n","umaga","false","","4"
"4239.5","","","","","3","html-slider-response","408","","","","4",""
"19657","","","","","3","html-keyboard-response","409","","","","",""
"17793","woman","pagtabon,bandari,bituin,kovuli","pagtabon","f","3","html-keyboard-response","410","f","pagtabon","true","","1"
"5777.800000011921","","","","","3","html-slider-response","411","","","","5",""
"2129","","","","","3","html-keyboard-response","412","","","","",""
"6779","giraffe","mahitabo,daraja,jumatu,hangyo","mahitabo","f","3","html-keyboard-response","413","f","mahitabo","true","","4"
"3670.7000000029802","","","","","3","html-slider-response","414","","","","4",""
"2513","","","","","3","html-keyboard-response","415","","","","",""
"15297","elephant","petye,pagduol,suka,kito","kito","n","3","html-keyboard-response","416","n","kito","true","","4"
"5285.70000000298","","","","","3","html-slider-response","417","","","","4",""
"1943","","","","","3","html-keyboard-response","418","","","","",""
"5744","cave","ganti,maisha,kesho,nyundo","kesho","j","3","html-keyboard-response","419","j","kesho","true","","4"
"8099.0999999940395","","","","","3","html-slider-response","420","","","","5",""
"1911","","","","","3","html-keyboard-response","421","","","","",""
"5159","bread","kaili,dari,dizeli,bugas","dari","v","3","html-keyboard-response","422","v","dari","true","","4"
"4753.100000008941","","","","","3","html-slider-response","423","","","","5",""
"1727","","","","","3","html-keyboard-response","424","","","","",""
"5769","stone","ulimwengu,wingi,mkasi,asili","wingi","v","3","html-keyboard-response","425","v","wingi","true","","4"
"3534.0999999940395","","","","","3","html-slider-response","426","","","","5",""
"1302","","","","","3","html-keyboard-response","427","","","","",""
"8979","donkey","bloke,lalake,rombus,elfu","elfu","n","3","html-keyboard-response","428","n","elfu","true","","4"
"3251","","","","","3","html-slider-response","429","","","","4",""
"1281","","","","","3","html-keyboard-response","430","","","","",""
"7575","bridge","daima,ngono,panya,sahani","sahani","n","3","html-keyboard-response","431","n","sahani","true","","4"
"3921.7000000029802","","","","","3","html-slider-response","432","","","","5",""
"1617","","","","","3","html-keyboard-response","433","","","","",""
"4172","bonfire","goti,mwezi,mfuko,kusanya","goti","f","3","html-keyboard-response","434","f","goti","true","","4"
"4558.899999991059","","","","","3","html-slider-response","435","","","","4",""
"57417","","","","","3","html-keyboard-response","436","","","","",""
"9674","book","mali,kuhesa,picha,mara","mali","f","3","html-keyboard-response","437","f","mali","true","","4"
"3593.9000000059605","","","","","3","html-slider-response","438","","","","4",""
"3023","","","","","3","html-keyboard-response","439","","","","",""
"21243","fish","bala,baho,buli,imani","buli","j","3","html-keyboard-response","440","v","baho","false","","4"
"4035.7999999970198","","","","","3","html-slider-response","441","","","","4",""
"9619","","","","","3","html-keyboard-response","442","","","","",""
"13751","spoon","betri,pagsulod,nzuri,ngazi","pagsulod","v","3","html-keyboard-response","443","f","betri","false","","4"
"3118.300000011921","","","","","3","html-slider-response","444","","","","4",""
"2498","","","","","3","html-keyboard-response","445","","","","",""
"3782","scissors","tanuri,duga,mtawa,suga","tanuri","f","3","html-keyboard-response","446","f","tanuri","true","","4"
"3199.2999999970198","","","","","3","html-slider-response","447","","","","4",""
"32577","","","","","3","html-keyboard-response","448","","","","",""
"12879","page","wakala,ishiri,skina,wimbo","wimbo","n","3","html-keyboard-response","449","n","wimbo","true","","4"
"3706.2999999970198","","","","","3","html-slider-response","450","","","","5",""
"1957","","","","","3","html-keyboard-response","451","","","","",""
"4637","nose","sehemu,gubat,kopa,kidole","sehemu","f","3","html-keyboard-response","452","f","sehemu","true","","1"
"3468.2000000029802","","","","","3","html-slider-response","453","","","","5",""
"1620","","","","","3","html-keyboard-response","454","","","","",""
"5977","ceiling","kugita,kawaida,maua,rayna","maua","j","3","html-keyboard-response","455","n","rayna","false","","4"
"3062.7000000029802","","","","","3","html-slider-response","456","","","","2",""
"1623","","","","","3","html-keyboard-response","457","","","","",""
"15047","bucket","baga,kiatu,ijayo,init","kiatu","v","3","html-keyboard-response","458","n","init","false","","4"
"3080.0999999940395","","","","","3","html-slider-response","459","","","","2",""
"1720","","","","","3","html-keyboard-response","460","","","","",""
"2014","berry","kofia,abogado,nogozi,kinywa","kofia","f","3","html-keyboard-response","461","f","kofia","true","","1"
"3248.5","","","","","3","html-slider-response","462","","","","5",""
"1393","","","","","3","html-keyboard-response","463","","","","",""
"2879","mother","kahawa,babaye,mbuzi,jokofu","babaye","v","3","html-keyboard-response","464","v","babaye","true","","1"
"3102.3999999910593","","","","","3","html-slider-response","465","","","","4",""
"1265","","","","","3","html-keyboard-response","466","","","","",""
"10076","mosquito","martilyo,isda,taras,gutom","martilyo","f","3","html-keyboard-response","467","n","gutom","false","","4"
"3220.5","","","","","3","html-slider-response","468","","","","4",""
"3884","","","","","3","html-keyboard-response","469","","","","",""
"14826","perfume","bino,katuyoan,sungura,ndogo","katuyoan","v","3","html-keyboard-response","470","f","bino","false","","4"
"3595.0999999940395","","","","","3","html-slider-response","471","","","","4",""
"1469","","","","","3","html-keyboard-response","472","","","","",""
"15139","sheet","juuya,watu,kamantis,bililhon","bililhon","n","3","html-keyboard-response","473","n","bililhon","true","","4"
"4831.4000000059605","","","","","3","html-slider-response","474","","","","1",""
"6744","","","","","3","html-keyboard-response","475","","","","",""
"1886","puppet","napulo,mazishi,lamok,godoro","mazishi","v","3","html-keyboard-response","476","v","mazishi","true","","1"
"5944.29999999702","","","","","3","html-slider-response","477","","","","2",""
"2554","","","","","3","html-keyboard-response","478","","","","",""
"10769","poster","nchi,fedha,madungog,kasuko","madungog","j","3","html-keyboard-response","479","j","madungog","true","","4"
"4001.0999999940395","","","","","3","html-slider-response","480","","","","4",""
"1957","","","","","3","html-keyboard-response","481","","","","",""
"32058","music","baiski,mraba,mageho,tumbo","baiski","f","3","html-keyboard-response","482","v","mraba","false","","4"
"3228.7999999970198","","","","","3","html-slider-response","483","","","","2",""
"1384","","","","","3","html-keyboard-response","484","","","","",""
"7949","key","miaka,goma,chombo,ahos","chombo","j","3","html-keyboard-response","485","j","chombo","true","","4"
"3060.3999999910593","","","","","3","html-slider-response","486","","","","4",""
"6851","","","","","3","html-keyboard-response","487","","","","",""
"8542","sock","ndoora,kimysa,mamba,mtirka","mamba","j","3","html-keyboard-response","488","j","mamba","true","","4"
"3131.4000000059605","","","","","3","html-slider-response","489","","","","5",""
"1258","","","","","3","html-keyboard-response","490","","","","",""
"9532","marker","mapafu,salita,atay,maji","maji","n","3","html-keyboard-response","491","n","maji","true","","4"
"3000.5","","","","","3","html-slider-response","492","","","","2",""
"1266","","","","","3","html-keyboard-response","493","","","","",""
"4051","office","hazini,yatima,kuna,leso","leso","n","3","html-keyboard-response","494","n","leso","true","","4"
"3121.7000000029802","","","","","3","html-slider-response","495","","","","5",""
"1261","","","","","3","html-keyboard-response","496","","","","",""
"15824","shoe","nyeusi,uyoga,hatua,kama","uyoga","v","3","html-keyboard-response","497","v","uyoga","true","","4"
"3939.800000011921","","","","","3","html-slider-response","498","","","","2",""
"2153","","","","","3","html-keyboard-response","499","","","","",""
"2333","cop","bustani,jikoni,bakus,mechezo","mechezo","n","3","html-keyboard-response","500","n","mechezo","true","","4"
"3779.2000000029802","","","","","3","html-slider-response","501","","","","4",""
"1335","","","","","3","html-keyboard-response","502","","","","",""
"4785","bank","silingan,kudhibi,tualya,ofisi","silingan","f","3","html-keyboard-response","503","f","silingan","true","","4"
"5827.5","","","","","3","html-slider-response","504","","","","4",""
"1536","","","","","3","html-keyboard-response","505","","","","",""
"2088","letter","filimbi,chuma,uhuru,kifua","kifua","n","3","html-keyboard-response","506","n","kifua","true","","1"
"3787.699999988079","","","","","3","html-slider-response","507","","","","4",""
"2196","","","","","3","html-keyboard-response","508","","","","",""
"3712","dog","lubi,bahari,washia,kalamu","bahari","v","3","html-keyboard-response","509","v","bahari","true","","1"
"4738.899999991059","","","","","3","html-slider-response","510","","","","5",""
"1173","","","","","3","html-keyboard-response","511","","","","",""
"15470","shop","samaki,nopya,kerida,ndezu","samaki","f","3","html-keyboard-response","512","n","ndezu","false","","4"
"3108.8999999910593","","","","","3","html-slider-response","513","","","","4",""
"2585","","","","","3","html-keyboard-response","514","","","","",""
"41120","flower","bega,tamasha,lobo,usiku","bega","f","3","html-keyboard-response","515","f","bega","true","","4"
"3102.2999999970198","","","","","3","html-slider-response","516","","","","2",""
"2407","","","","","3","html-keyboard-response","517","","","","",""
"42452","cigar","adhabu,ndugu,kuta,mlango","adhabu","f","3","html-keyboard-response","518","f","adhabu","true","","1"
"3629.4000000059605","","","","","3","html-slider-response","519","","","","5",""
"2260","","","","","3","html-keyboard-response","520","","","","",""
"22290","hammer","napakyas,mekno,kitovu,layag","napakyas","f","3","html-keyboard-response","521","j","kitovu","false","","4"
"3550.9000000059605","","","","","3","html-slider-response","522","","","","4",""
"2183","","","","","3","html-keyboard-response","523","","","","",""
"21203","fork","baboy,mgonjwa,paghago,gorisi","mgonjwa","v","3","html-keyboard-response","524","v","mgonjwa","true","","4"
"3053.7999999970198","","","","","3","html-slider-response","525","","","","4",""
"1531","","","","","3","html-keyboard-response","526","","","","",""
"26094","sun","bendi,basi,luha,uongo","basi","v","3","html-keyboard-response","527","v","basi","true","","1"
"2816.5","","","","","3","html-slider-response","528","","","","5",""
"1909","","","","","3","html-keyboard-response","529","","","","",""
"12173","ladder","mashua,mwanga,pangalan,kamba","pangalan","j","3","html-keyboard-response","530","n","kamba","false","","4"
"2643.2999999970198","","","","","3","html-slider-response","531","","","","4",""
"2841","","","","","3","html-keyboard-response","532","","","","",""
"2026","banana","kazi,kasamok,hagdan,twai","kazi","f","3","html-keyboard-response","533","f","kazi","true","","1"
"5010.0999999940395","","","","","3","html-slider-response","534","","","","5",""
"1080","","","","","3","html-keyboard-response","535","","","","",""
"9872","pudding","abug,mpishi,aibu,iring","aibu","j","3","html-keyboard-response","536","j","aibu","true","","4"
"2864.7999999970198","","","","","3","html-slider-response","537","","","","2",""
"2155","","","","","3","html-keyboard-response","538","","","","",""
"8204","body","nyundu,jibini,kununa,tindashan","tindashan","n","3","html-keyboard-response","539","n","tindashan","true","","4"
"2715.7999999970198","","","","","3","html-slider-response","540","","","","4",""
"1900","","","","","3","html-keyboard-response","541","","","","",""
"8469","bed","kalipay,haraka,mapintas,starehe","mapintas","j","3","html-keyboard-response","542","f","kalipay","false","","4"
"2891.2000000029802","","","","","3","html-slider-response","543","","","","4",""
"1554","","","","","3","html-keyboard-response","544","","","","",""
"2288","tissue","ugomvi,lamigas,kisiwa,katika","ugomvi","f","3","html-keyboard-response","545","n","katika","false","","4"
"2816.8999999910593","","","","","3","html-slider-response","546","","","","4",""
"3452","","","","","3","html-keyboard-response","547","","","","",""
"4751","candle","gabi,geza,farasi,kupanda","geza","v","3","html-keyboard-response","548","j","farasi","false","","4"
"3273.8999999910593","","","","","3","html-slider-response","549","","","","4",""
"2258","","","","","3","html-keyboard-response","550","","","","",""
"1585","tomato","chupi,mvua,chupa,takatak","mvua","v","3","html-keyboard-response","551","v","mvua","true","","1"
"4152.0999999940395","","","","","3","html-slider-response","552","","","","5",""
"4806","","","","","3","html-keyboard-response","553","","","","",""
"10438","list","alizeti,wingu,kuzama,kaso","wingu","v","3","html-keyboard-response","554","j","kuzama","false","","4"
"3094.199999988079","","","","","3","html-slider-response","555","","","","4",""
"1128","","","","","3","html-keyboard-response","556","","","","",""
"3203","olive","bata,jiwe,siagi,welder","jiwe","v","3","html-keyboard-response","557","n","welder","false","","4"
"2747.2999999970198","","","","","3","html-slider-response","558","","","","2",""
"1607","","","","","3","html-keyboard-response","559","","","","",""
"3815","picture","silya,kubwa,chaki,asin","kubwa","v","3","html-keyboard-response","560","v","kubwa","true","","1"
"2846.0999999940395","","","","","3","html-slider-response","561","","","","5",""
"1086","","","","","3","html-keyboard-response","562","","","","",""
"2764","page","wimbo,wakala,ishiri,skina","wimbo","f","4","html-keyboard-response","888","f","wimbo","true","",""
"2831.5","","","","","4","html-slider-response","889","","","","4",""
"2557","sheet","juuya,watu,bililhon,kamantis","bililhon","j","4","html-keyboard-response","890","j","bililhon","true","",""
"3072.300000011921","","","","","4","html-slider-response","891","","","","2",""
"2943","ladder","mashua,pangalan,mwanga,kamba","pangalan","v","4","html-keyboard-response","892","v","pangalan","true","",""
"2637.4000000059605","","","","","4","html-slider-response","893","","","","2",""
"12954","door","surali,tena,soko,nyota","surali","f","4","html-keyboard-response","894","f","surali","true","",""
"4107.100000008941","","","","","4","html-slider-response","895","","","","5",""
"4745","spider","kamwe,bunyag,mkboa,atop","kamwe","f","4","html-keyboard-response","896","f","kamwe","true","",""
"2755.9000000059605","","","","","4","html-slider-response","897","","","","5",""
"2982","picture","kubwa,silya,chaki,asin","kubwa","f","4","html-keyboard-response","898","f","kubwa","true","",""
"3639.5","","","","","4","html-slider-response","899","","","","5",""
"4817","boat","hamsi,pombe,kitanda,agalon","agalon","n","4","html-keyboard-response","900","v","pombe","false","",""
"3055.5999999940395","","","","","4","html-slider-response","901","","","","4",""
"10555","donkey","elfu,bloke,lalake,rombus","elfu","f","4","html-keyboard-response","902","v","bloke","false","",""
"2924.800000011921","","","","","4","html-slider-response","903","","","","4",""
"8539","book","kuhesa,picha,mara,mali","mali","n","4","html-keyboard-response","904","n","mali","true","",""
"3232.2000000029802","","","","","4","html-slider-response","905","","","","5",""
"5408","cup","matumai,dagat,shimoni,jeraha","matumai","f","4","html-keyboard-response","906","f","matumai","true","",""
"3243.7000000029802","","","","","4","html-slider-response","907","","","","5",""
"5972","sun","bendi,luha,basi,uongo","basi","j","4","html-keyboard-response","908","j","basi","true","",""
"3682","","","","","4","html-slider-response","909","","","","5",""
"7595","pudding","abug,aibu,mpishi,iring","aibu","v","4","html-keyboard-response","910","j","mpishi","false","",""
"2891.2000000029802","","","","","4","html-slider-response","911","","","","4",""
"5438","human","bado,kikapu,tinapay,punguza","tinapay","j","4","html-keyboard-response","912","j","tinapay","true","",""
"3141.1000000089407","","","","","4","html-slider-response","913","","","","5",""
"3546","squirrel","hofu,mahugaw,ukweli,kichwa","hofu","f","4","html-keyboard-response","914","j","ukweli","false","",""
"2741","","","","","4","html-slider-response","915","","","","2",""
"2041","park","tambok,pwani,ihalas,bunifu","bunifu","n","4","html-keyboard-response","916","n","bunifu","true","",""
"2897.6000000089407","","","","","4","html-slider-response","917","","","","2",""
"15617","poster","nchi,madungog,fedha,kasuko","madungog","v","4","html-keyboard-response","918","f","nchi","false","",""
"2943.800000011921","","","","","4","html-slider-response","919","","","","4",""
"2885","wolf","kaburi,ndizi,lugha,mchuzi","lugha","j","4","html-keyboard-response","920","j","lugha","true","",""
"3065.2999999970198","","","","","4","html-slider-response","921","","","","4",""
"12107","cat","neyemba,baki,paghukom,akili","paghukom","j","4","html-keyboard-response","922","n","akili","false","",""
"3135.7000000029802","","","","","4","html-slider-response","923","","","","4",""
"2455","fish","bala,buli,baho,imani","buli","v","4","html-keyboard-response","924","v","buli","true","",""
"3460.2000000029802","","","","","4","html-slider-response","925","","","","2",""
"2114","tooth","kijiko,kabalaka,uadui,pahiyum","kabalaka","v","4","html-keyboard-response","926","n","pahiyum","false","",""
"3071.4000000059605","","","","","4","html-slider-response","927","","","","2",""
"10131","cave","kesho,ganti,maisha,nyundo","kesho","f","4","html-keyboard-response","928","f","kesho","true","",""
"3514.9000000059605","","","","","4","html-slider-response","929","","","","4",""
"5749","lamp","daub,bilaska,mbolea,afya","afya","n","4","html-keyboard-response","930","n","afya","true","",""
"3672.2000000029802","","","","","4","html-slider-response","931","","","","5",""
"4167","banana","kasamok,hagdan,kazi,twai","kazi","j","4","html-keyboard-response","932","j","kazi","true","",""
"4225.300000011921","","","","","4","html-slider-response","933","","","","4",""
"4922","bonfire","goti,mwezi,mfuko,kusanya","goti","f","4","html-keyboard-response","934","f","goti","true","",""
"4088.699999988079","","","","","4","html-slider-response","935","","","","4",""
"16785","cop","bustani,mechezo,jikoni,bakus","mechezo","v","4","html-keyboard-response","936","j","jikoni","false","",""
"3011.7999999970198","","","","","4","html-slider-response","937","","","","4",""
"7631","marker","mapafu,salita,atay,maji","maji","n","4","html-keyboard-response","938","n","maji","true","",""
"3980.0999999940395","","","","","4","html-slider-response","939","","","","2",""
"14804","window","nanga,kujenga,umaga,kweli","kweli","n","4","html-keyboard-response","940","v","kujenga","false","",""
"3559.1000000089407","","","","","4","html-slider-response","941","","","","4",""
"87935","body","nyundu,jibini,tindashan,kununa","tindashan","j","4","html-keyboard-response","942","n","kununa","false","",""
"2713.4000000059605","","","","","4","html-slider-response","943","","","","4",""
"2705","apple","ukame,estante,edad,kisu","kisu","n","4","html-keyboard-response","944","f","ukame","false","",""
"2677.699999988079","","","","","4","html-slider-response","945","","","","2",""
"28489","salmon","mzungu,seri,baharia,sensilyo","sensilyo","n","4","html-keyboard-response","946","n","sensilyo","true","",""
"3651.6000000089407","","","","","4","html-slider-response","947","","","","4",""
"34597","bed","kalipay,haraka,starehe,mapintas","mapintas","n","4","html-keyboard-response","948","v","haraka","false","",""
"3130.5999999940395","","","","","4","html-slider-response","949","","","","4",""
"7303","berry","kofia,abogado,nogozi,kinywa","kofia","f","4","html-keyboard-response","950","f","kofia","true","",""
"3021.7999999970198","","","","","4","html-slider-response","951","","","","4",""
"52847","mirror","rangi,kanding,furaha,sulagma","sulagma","n","4","html-keyboard-response","952","n","sulagma","true","",""
"3541.7000000029802","","","","","4","html-slider-response","953","","","","4",""
"11719","flag","trekta,ndege,mkate,kawa","trekta","f","4","html-keyboard-response","954","f","trekta","true","",""
"3646.5","","","","","4","html-slider-response","955","","","","4",""
"5526","shoulder","kelele,ndaniya,guruwe,mkuu","mkuu","n","4","html-keyboard-response","956","n","mkuu","true","",""
"3014.199999988079","","","","","4","html-slider-response","957","","","","4",""
"14268","tissue","ugomvi,lamigas,kisiwa,katika","ugomvi","f","4","html-keyboard-response","958","j","kisiwa","false","",""
"3560.2000000029802","","","","","4","html-slider-response","959","","","","2",""
"4565","notebook","msitu,kila,mdudu,kemia","kemia","n","4","html-keyboard-response","960","n","kemia","true","",""
"2873.2999999970198","","","","","4","html-slider-response","961","","","","5",""
"4668","snake","jansa,karon,mvringo,pagtukod","pagtukod","n","4","html-keyboard-response","962","n","pagtukod","true","",""
"2680.2999999970198","","","","","4","html-slider-response","963","","","","4",""
"10523","finger","simu,moyo,sufuria,lima","moyo","v","4","html-keyboard-response","964","v","moyo","true","",""
"2857.3999999910593","","","","","4","html-slider-response","965","","","","4",""
"24087","basket","kumbuka,utepe,hasira,kumba","kumba","n","4","html-keyboard-response","966","v","utepe","false","",""
"3764.2000000029802","","","","","4","html-slider-response","967","","","","2",""
"6515","curtain","lisud,bulwawan,chubani,mchanga","mchanga","n","4","html-keyboard-response","968","n","mchanga","true","",""
"3301.5","","","","","4","html-slider-response","969","","","","4",""
"10845","perfume","katuyoan,bino,sungura,ndogo","katuyoan","f","4","html-keyboard-response","970","n","ndogo","false","",""
"3008.2000000029802","","","","","4","html-slider-response","971","","","","4",""
"2442","key","miaka,chombo,goma,ahos","chombo","v","4","html-keyboard-response","972","j","goma","false","",""
"2730.2999999970198","","","","","4","html-slider-response","973","","","","2",""
"3178","olive","jiwe,bata,siagi,welder","jiwe","f","4","html-keyboard-response","974","f","jiwe","true","",""
"3044.7000000029802","","","","","4","html-slider-response","975","","","","4",""
"3047","rose","singizi,mwanake,amani,paghalad","paghalad","n","4","html-keyboard-response","976","n","paghalad","true","",""
"3112.7999999970198","","","","","4","html-slider-response","977","","","","5",""
"5045","bridge","daima,sahani,ngono,panya","sahani","v","4","html-keyboard-response","978","v","sahani","true","",""
"2850.7000000029802","","","","","4","html-slider-response","979","","","","5",""
"2492","hill","kushoto,matumbo,kukimba,sweta","matumbo","v","4","html-keyboard-response","980","n","sweta","false","",""
"2815","","","","","4","html-slider-response","981","","","","4",""
"11109","letter","kifua,filimbi,chuma,uhuru","kifua","f","4","html-keyboard-response","982","f","kifua","true","",""
"5221.79999999702","","","","","4","html-slider-response","983","","","","4",""
"4878","sock","ndoora,mamba,kimysa,mtirka","mamba","v","4","html-keyboard-response","984","v","mamba","true","",""
"2781.9000000059605","","","","","4","html-slider-response","985","","","","5",""
"10609","fork","baboy,mgonjwa,paghago,gorisi","mgonjwa","v","4","html-keyboard-response","986","v","mgonjwa","true","",""
"2984","","","","","4","html-slider-response","987","","","","2",""
"6263","box","kuacha,rafiki,kitande,adui","adui","n","4","html-keyboard-response","988","n","adui","true","",""
"2945.2999999970198","","","","","4","html-slider-response","989","","","","4",""
"11535","gift","baba,nyange,baso,pagtawag","pagtawag","n","4","html-keyboard-response","990","v","nyange","false","",""
"3023.8999999910593","","","","","4","html-slider-response","991","","","","4",""
"25293","bucket","baga,kiatu,ijayo,init","kiatu","v","4","html-keyboard-response","992","j","ijayo","false","",""
"4019.5","","","","","4","html-slider-response","993","","","","4",""
"12367","shop","nopya,kerida,ndezu,samaki","samaki","n","4","html-keyboard-response","994","v","kerida","false","",""
"2899.2000000029802","","","","","4","html-slider-response","995","","","","4",""
"2050","puppet","napulo,mazishi,lamok,godoro","mazishi","v","4","html-keyboard-response","996","n","godoro","false","",""
"3840.0999999940395","","","","","4","html-slider-response","997","","","","2",""
"2695","nose","gubat,kopa,kidole,sehemu","sehemu","n","4","html-keyboard-response","998","j","kidole","false","",""
"2525.2000000029802","","","","","4","html-slider-response","999","","","","4",""
"2024","music","baiski,mraba,mageho,tumbo","baiski","f","4","html-keyboard-response","1000","v","mraba","false","",""
"2605","","","","","4","html-slider-response","1001","","","","2",""
"2248","dog","bahari,lubi,washia,kalamu","bahari","f","4","html-keyboard-response","1002","f","bahari","true","",""
"3594.2000000029802","","","","","4","html-slider-response","1003","","","","5",""
"5084","eel","ishara,kunywa,msumari,kabuang","msumari","j","4","html-keyboard-response","1004","j","msumari","true","",""
"2949.0999999940395","","","","","4","html-slider-response","1005","","","","4",""
"4062","number","shule,mundamo,kengele,choori","mundamo","v","4","html-keyboard-response","1006","v","mundamo","true","",""
"2857.2999999970198","","","","","4","html-slider-response","1007","","","","4",""
"2665","tomato","mvua,chupi,chupa,takatak","mvua","f","4","html-keyboard-response","1008","v","chupi","false","",""
"2928.4000000059605","","","","","4","html-slider-response","1009","","","","4",""
"3072","coffin","barua,kioo,tubag,hulma","kioo","v","4","html-keyboard-response","1010","n","hulma","false","",""
"3648.7000000029802","","","","","4","html-slider-response","1011","","","","4",""
"3984","knee","duka,mvuke,kubale,bili","duka","f","4","html-keyboard-response","1012","f","duka","true","",""
"3232.7999999970198","","","","","4","html-slider-response","1013","","","","4",""
"8808","woman","bandari,bituin,pagtabon,kovuli","pagtabon","j","4","html-keyboard-response","1014","j","pagtabon","true","",""
"2605.0999999940395","","","","","4","html-slider-response","1015","","","","5",""
"2097","stone","ulimwengu,mkasi,asili,wingi","wingi","n","4","html-keyboard-response","1016","v","mkasi","false","",""
"2830.199999988079","","","","","4","html-slider-response","1017","","","","2",""
"1655","bread","kaili,dari,dizeli,bugas","dari","v","4","html-keyboard-response","1018","n","bugas","false","",""
"3752.3999999910593","","","","","4","html-slider-response","1019","","","","2",""
"6992","triangle","kasadpan,kihozi,bentaha,liog","kasadpan","f","4","html-keyboard-response","1020","f","kasadpan","true","",""
"2763.699999988079","","","","","4","html-slider-response","1021","","","","4",""
"2002","scissors","tanuri,duga,mtawa,suga","tanuri","f","4","html-keyboard-response","1022","j","mtawa","false","",""
"7481.29999999702","","","","","4","html-slider-response","1023","","","","3",""
"2553","giraffe","mahitabo,daraja,jumatu,hangyo","mahitabo","f","4","html-keyboard-response","1024","n","hangyo","false","",""
"2741.3999999910593","","","","","4","html-slider-response","1025","","","","4",""
"2212","flower","bega,tamasha,lobo,usiku","bega","f","4","html-keyboard-response","1026","j","lobo","false","",""
"2750.0999999940395","","","","","4","html-slider-response","1027","","","","2",""
"2132","candle","gabi,farasi,geza,kupanda","geza","j","4","html-keyboard-response","1028","n","kupanda","false","",""
"2889.7999999970198","","","","","4","html-slider-response","1029","","","","4",""
"2215","mother","babaye,kahawa,mbuzi,jokofu","babaye","f","4","html-keyboard-response","1030","f","babaye","true","",""
"3440.0999999940395","","","","","4","html-slider-response","1031","","","","5",""
"2732","towel","tembo,pagpalit,funzi,pito","pagpalit","v","4","html-keyboard-response","1032","f","tembo","false","",""
"3023.0999999940395","","","","","4","html-slider-response","1033","","","","4",""
"2347","elephant","petye,kito,pagduol,suka","kito","v","4","html-keyboard-response","1034","v","kito","true","",""
"2639.0999999940395","","","","","4","html-slider-response","1035","","","","4",""
"2430","shelf","bungtod,pamahaw,kadaot,awit","pamahaw","v","4","html-keyboard-response","1036","n","awit","false","",""
"3879","","","","","4","html-slider-response","1037","","","","4",""
"2641","mosquito","isda,taras,martilyo,gutom","martilyo","j","4","html-keyboard-response","1038","j","martilyo","true","",""
"3200.7000000029802","","","","","4","html-slider-response","1039","","","","4",""
"8098","column","ufagio,pundok,dila,pala","ufagio","f","4","html-keyboard-response","1040","f","ufagio","true","",""
"3191.7999999970198","","","","","4","html-slider-response","1041","","","","4",""
"1886","pants","haki,pintal,chuki,hari","haki","f","4","html-keyboard-response","1042","v","pintal","false","",""
"2839.4000000059605","","","","","4","html-slider-response","1043","","","","4",""
"2449","list","wingu,alizeti,kuzama,kaso","wingu","f","4","html-keyboard-response","1044","j","kuzama","false","",""
"3179.7000000029802","","","","","4","html-slider-response","1045","","","","2",""
"3593","bank","kudhibi,silingan,tualya,ofisi","silingan","v","4","html-keyboard-response","1046","v","silingan","true","",""
"4414.0999999940395","","","","","4","html-slider-response","1047","","","","4",""
"1944","clock","mbwa,kartasi,abang,osha","mbwa","f","4","html-keyboard-response","1048","n","osha","false","",""
"2582.6000000089407","","","","","4","html-slider-response","1049","","","","4",""
"1858","ceiling","kugita,maua,kawaida,rayna","maua","v","4","html-keyboard-response","1050","j","kawaida","false","",""
"3027.9000000059605","","","","","4","html-slider-response","1051","","","","2",""
"7204","train","itik,dakika,sayari,mungu","sayari","j","4","html-keyboard-response","1052","j","sayari","true","",""
"3144.3999999910593","","","","","4","html-slider-response","1053","","","","4",""
"8999","magazine","gundi,mchawi,bahandi,kiti","kiti","n","4","html-keyboard-response","1054","j","bahandi","false","",""
"3310","","","","","4","html-slider-response","1055","","","","4",""
"5328","office","leso,hazini,yatima,kuna","leso","f","4","html-keyboard-response","1056","f","leso","true","",""
"2619","","","","","4","html-slider-response","1057","","","","5",""
"1733","wheel","punda,tawo,baadaye,bafuni","bafuni","n","4","html-keyboard-response","1058","n","bafuni","true","",""
"2671.2999999970198","","","","","4","html-slider-response","1059","","","","2",""
"1736","spoon","betri,pagsulod,nzuri,ngazi","pagsulod","v","4","html-keyboard-response","1060","j","nzuri","false","",""
"2992.2999999970198","","","","","4","html-slider-response","1061","","","","4",""
"3194","hammer","mekno,kitovu,layag,napakyas","napakyas","n","4","html-keyboard-response","1062","j","layag","false","",""
"2796.7999999970198","","","","","4","html-slider-response","1063","","","","2",""
"1528","cigar","ndugu,kuta,mlango,adhabu","adhabu","n","4","html-keyboard-response","1064","n","adhabu","true","",""
"2839.2999999970198","","","","","4","html-slider-response","1065","","","","4",""
"1556","shoe","nyeusi,hatua,uyoga,kama","uyoga","j","4","html-keyboard-response","1066","f","nyeusi","false","",""
"3121.3999999910593","","","","","4","html-slider-response","1067","","","","4",""
"10232","list","alizeti,wingu,kuzama,kaso","wingu","v","5","html-keyboard-response","1069","n","kaso","false","",""
"3608.0999999940395","","","","","5","html-slider-response","1070","","","","4",""
"2331","number","shule,kengele,mundamo,choori","mundamo","j","5","html-keyboard-response","1071","n","choori","false","",""
"2715","","","","","5","html-slider-response","1072","","","","4",""
"2253","apple","ukame,estante,kisu,edad","kisu","j","5","html-keyboard-response","1073","j","kisu","true","",""
"2919.5","","","","","5","html-slider-response","1074","","","","4",""
"3086","knee","duka,mvuke,kubale,bili","duka","f","5","html-keyboard-response","1075","f","duka","true","",""
"2631.7000000029802","","","","","5","html-slider-response","1076","","","","4",""
"46446","tooth","kijiko,uadui,kabalaka,pahiyum","kabalaka","j","5","html-keyboard-response","1077","j","kabalaka","true","",""
"3296.800000011921","","","","","5","html-slider-response","1078","","","","4",""
"1483","berry","abogado,nogozi,kofia,kinywa","kofia","j","5","html-keyboard-response","1079","v","nogozi","false","",""
"3279.699999988079","","","","","5","html-slider-response","1080","","","","2",""
"2627","bridge","daima,ngono,sahani,panya","sahani","j","5","html-keyboard-response","1081","j","sahani","true","",""
"2941.9000000059605","","","","","5","html-slider-response","1082","","","","4",""
"2812","perfume","bino,katuyoan,sungura,ndogo","katuyoan","v","5","html-keyboard-response","1083","n","ndogo","false","",""
"3499.8999999910593","","","","","5","html-slider-response","1084","","","","4",""
"1971","ladder","mashua,mwanga,pangalan,kamba","pangalan","j","5","html-keyboard-response","1085","j","pangalan","true","",""
"2643.4000000059605","","","","","5","html-slider-response","1086","","","","2",""
"15945","pants","haki,pintal,chuki,hari","haki","f","5","html-keyboard-response","1087","f","haki","true","",""
"2875.5","","","","","5","html-slider-response","1088","","","","4",""
"1882","salmon","mzungu,seri,baharia,sensilyo","sensilyo","n","5","html-keyboard-response","1089","n","sensilyo","true","",""
"2806.7000000029802","","","","","5","html-slider-response","1090","","","","2",""
"1890","coffin","barua,tubag,kioo,hulma","kioo","j","5","html-keyboard-response","1091","j","kioo","true","",""
"3034.5999999940395","","","","","5","html-slider-response","1092","","","","4",""
"3530","park","bunifu,tambok,pwani,ihalas","bunifu","f","5","html-keyboard-response","1093","f","bunifu","true","",""
"3474.800000011921","","","","","5","html-slider-response","1094","","","","4",""
"2082","giraffe","mahitabo,daraja,jumatu,hangyo","mahitabo","f","5","html-keyboard-response","1095","v","daraja","false","",""
"2916.0999999940395","","","","","5","html-slider-response","1096","","","","2",""
"11130","mirror","rangi,kanding,sulagma,furaha","sulagma","j","5","html-keyboard-response","1097","j","sulagma","true","",""
"2886.0999999940395","","","","","5","html-slider-response","1098","","","","4",""
"2513","ceiling","kugita,kawaida,maua,rayna","maua","j","5","html-keyboard-response","1099","f","kugita","false","",""
"2572","","","","","5","html-slider-response","1100","","","","4",""
"3087","marker","maji,mapafu,salita,atay","maji","f","5","html-keyboard-response","1101","f","maji","true","",""
"3224.699999988079","","","","","5","html-slider-response","1102","","","","2",""
"1969","sock","mamba,ndoora,kimysa,mtirka","mamba","f","5","html-keyboard-response","1103","n","mtirka","false","",""
"2793.5","","","","","5","html-slider-response","1104","","","","4",""
"2451","cop","bustani,jikoni,mechezo,bakus","mechezo","j","5","html-keyboard-response","1105","j","mechezo","true","",""
"3177.7000000029802","","","","","5","html-slider-response","1106","","","","2",""
"2787","gift","baba,nyange,baso,pagtawag","pagtawag","n","5","html-keyboard-response","1107","v","nyange","false","",""
"3003.7000000029802","","","","","5","html-slider-response","1108","","","","4",""
"3052","notebook","msitu,kemia,kila,mdudu","kemia","v","5","html-keyboard-response","1109","f","msitu","false","",""
"3615.5999999940395","","","","","5","html-slider-response","1110","","","","4",""
"5060","bank","kudhibi,tualya,silingan,ofisi","silingan","j","5","html-keyboard-response","1111","j","silingan","true","",""
"2899","","","","","5","html-slider-response","1112","","","","4",""
"8874","letter","filimbi,chuma,kifua,uhuru","kifua","j","5","html-keyboard-response","1113","f","filimbi","false","",""
"5206.5999999940395","","","","","5","html-slider-response","1114","","","","4",""
"1957","candle","geza,gabi,farasi,kupanda","geza","f","5","html-keyboard-response","1115","n","kupanda","false","",""
"2719.4000000059605","","","","","5","html-slider-response","1116","","","","4",""
"1859","bread","kaili,dizeli,dari,bugas","dari","j","5","html-keyboard-response","1117","f","kaili","false","",""
"2917.8999999910593","","","","","5","html-slider-response","1118","","","","4",""
"3703","snake","jansa,karon,mvringo,pagtukod","pagtukod","n","5","html-keyboard-response","1119","n","pagtukod","true","",""
"3292.9000000059605","","","","","5","html-slider-response","1120","","","","4",""
"6762","rose","singizi,mwanake,amani,paghalad","paghalad","n","5","html-keyboard-response","1121","n","paghalad","true","",""
"2797","","","","","5","html-slider-response","1122","","","","4",""
"1954","hill","kushoto,kukimba,sweta,matumbo","matumbo","n","5","html-keyboard-response","1123","j","sweta","false","",""
"2971.5999999940395","","","","","5","html-slider-response","1124","","","","4",""
"5073","train","itik,dakika,sayari,mungu","sayari","j","5","html-keyboard-response","1125","j","sayari","true","",""
"3963.7999999970198","","","","","5","html-slider-response","1126","","","","5",""
"10601","shop","nopya,kerida,samaki,ndezu","samaki","j","5","html-keyboard-response","1127","v","kerida","false","",""
"3241.7000000029802","","","","","5","html-slider-response","1128","","","","4",""
"3598","nose","gubat,kopa,sehemu,kidole","sehemu","j","5","html-keyboard-response","1129","n","kidole","false","",""
"3195.5999999940395","","","","","5","html-slider-response","1130","","","","2",""
"2645","boat","hamsi,pombe,agalon,kitanda","agalon","j","5","html-keyboard-response","1131","n","kitanda","false","",""
"2762.2000000029802","","","","","5","html-slider-response","1132","","","","4",""
"15761","body","nyundu,jibini,kununa,tindashan","tindashan","n","5","html-keyboard-response","1133","j","kununa","false","",""
"3807.7999999970198","","","","","5","html-slider-response","1134","","","","4",""
"9268","bed","kalipay,haraka,mapintas,starehe","mapintas","j","5","html-keyboard-response","1135","f","kalipay","false","",""
"3237.5999999940395","","","","","5","html-slider-response","1136","","","","4",""
"2337","squirrel","mahugaw,ukweli,hofu,kichwa","hofu","j","5","html-keyboard-response","1137","f","mahugaw","false","",""
"2798.5","","","","","5","html-slider-response","1138","","","","4",""
"2012","window","nanga,kweli,kujenga,umaga","kweli","v","5","html-keyboard-response","1139","n","umaga","false","",""
"2676.8999999910593","","","","","5","html-slider-response","1140","","","","4",""
"3877","bonfire","mwezi,mfuko,goti,kusanya","goti","j","5","html-keyboard-response","1141","j","goti","true","",""
"3462.0999999940395","","","","","5","html-slider-response","1142","","","","4",""
"8520","fish","bala,buli,baho,imani","buli","v","5","html-keyboard-response","1143","v","buli","true","",""
"6117.20000000298","","","","","5","html-slider-response","1144","","","","4",""
"70476","cat","neyemba,paghukom,baki,akili","paghukom","v","5","html-keyboard-response","1145","n","akili","false","",""
"2612.7999999970198","","","","","5","html-slider-response","1146","","","","4",""
"1630","spider","bunyag,kamwe,mkboa,atop","kamwe","v","5","html-keyboard-response","1147","v","kamwe","true","",""
"3653.6000000089407","","","","","5","html-slider-response","1148","","","","4",""
"5567","eel","msumari,ishara,kunywa,kabuang","msumari","f","5","html-keyboard-response","1149","f","msumari","true","",""
"2711.199999988079","","","","","5","html-slider-response","1150","","","","4",""
"2388","woman","bandari,bituin,kovuli,pagtabon","pagtabon","n","5","html-keyboard-response","1151","n","pagtabon","true","",""
"2510.6000000089407","","","","","5","html-slider-response","1152","","","","5",""
"2637","magazine","gundi,mchawi,kiti,bahandi","kiti","j","5","html-keyboard-response","1153","f","gundi","false","",""
"2536","","","","","5","html-slider-response","1154","","","","4",""
"1783","pudding","abug,mpishi,iring,aibu","aibu","n","5","html-keyboard-response","1155","f","abug","false","",""
"3313.6000000089407","","","","","5","html-slider-response","1156","","","","2",""
"3632","lamp","daub,bilaska,mbolea,afya","afya","n","5","html-keyboard-response","1157","n","afya","true","",""
"2840.5999999940395","","","","","5","html-slider-response","1158","","","","4",""
"2030","cave","kesho,ganti,maisha,nyundo","kesho","f","5","html-keyboard-response","1159","f","kesho","true","",""
"3229.7999999970198","","","","","5","html-slider-response","1160","","","","4",""
"8415","shoulder","mkuu,kelele,ndaniya,guruwe","mkuu","f","5","html-keyboard-response","1161","f","mkuu","true","",""
"3801.1000000089407","","","","","5","html-slider-response","1162","","","","4",""
"3882","stone","ulimwengu,mkasi,asili,wingi","wingi","n","5","html-keyboard-response","1163","n","wingi","true","",""
"2639.2999999970198","","","","","5","html-slider-response","1164","","","","4",""
"2971","column","pundok,ufagio,dila,pala","ufagio","v","5","html-keyboard-response","1165","n","pala","false","",""
"2741.5","","","","","5","html-slider-response","1166","","","","4",""
"6121","page","wakala,ishiri,wimbo,skina","wimbo","j","5","html-keyboard-response","1167","j","wimbo","true","",""
"2600","","","","","5","html-slider-response","1168","","","","5",""
"10233","shoe","nyeusi,uyoga,hatua,kama","uyoga","v","5","html-keyboard-response","1169","j","hatua","false","",""
"3033","","","","","5","html-slider-response","1170","","","","4",""
"1943","clock","mbwa,kartasi,abang,osha","mbwa","f","5","html-keyboard-response","1171","v","kartasi","false","",""
"2584.7999999970198","","","","","5","html-slider-response","1172","","","","4",""
"4223","towel","tembo,funzi,pito,pagpalit","pagpalit","n","5","html-keyboard-response","1173","j","pito","false","",""
"2490.6000000089407","","","","","5","html-slider-response","1174","","","","2",""
"3165","tomato","chupi,chupa,mvua,takatak","mvua","j","5","html-keyboard-response","1175","f","chupi","false","",""
"2932.199999988079","","","","","5","html-slider-response","1176","","","","2",""
"1903","bucket","kiatu,baga,ijayo,init","kiatu","f","5","html-keyboard-response","1177","v","baga","false","",""
"2611","","","","","5","html-slider-response","1178","","","","4",""
"3940","finger","moyo,simu,sufuria,lima","moyo","f","5","html-keyboard-response","1179","j","sufuria","false","",""
"2739.8999999910593","","","","","5","html-slider-response","1180","","","","2",""
"2662","mother","kahawa,mbuzi,babaye,jokofu","babaye","j","5","html-keyboard-response","1181","j","babaye","true","",""
"2422","","","","","5","html-slider-response","1182","","","","4",""
"2512","human","bado,kikapu,punguza,tinapay","tinapay","n","5","html-keyboard-response","1183","n","tinapay","true","",""
"2617.1000000089407","","","","","5","html-slider-response","1184","","","","5",""
"2179","sun","bendi,luha,basi,uongo","basi","j","5","html-keyboard-response","1185","j","basi","true","",""
"2411","","","","","5","html-slider-response","1186","","","","2",""
"4008","fork","baboy,paghago,gorisi,mgonjwa","mgonjwa","n","5","html-keyboard-response","1187","f","baboy","false","",""
"3350.5","","","","","5","html-slider-response","1188","","","","4",""
"1812","donkey","bloke,lalake,rombus,elfu","elfu","n","5","html-keyboard-response","1189","n","elfu","true","",""
"3171","","","","","5","html-slider-response","1190","","","","4",""
"2058","wolf","kaburi,ndizi,lugha,mchuzi","lugha","j","5","html-keyboard-response","1191","v","ndizi","false","",""
"2688.5","","","","","5","html-slider-response","1192","","","","2",""
"3127","cigar","ndugu,adhabu,kuta,mlango","adhabu","v","5","html-keyboard-response","1193","f","ndugu","false","",""
"3175.1000000089407","","","","","5","html-slider-response","1194","","","","2",""
"2431","olive","jiwe,bata,siagi,welder","jiwe","f","5","html-keyboard-response","1195","j","siagi","false","",""
"3345.2000000029802","","","","","5","html-slider-response","1196","","","","4",""
"2415","key","miaka,goma,ahos,chombo","chombo","n","5","html-keyboard-response","1197","f","miaka","false","",""
"3114.2000000029802","","","","","5","html-slider-response","1198","","","","4",""
"4936","door","tena,soko,nyota,surali","surali","n","5","html-keyboard-response","1199","n","surali","true","",""
"3167","","","","","5","html-slider-response","1200","","","","4",""
"10211","wheel","punda,tawo,bafuni,baadaye","bafuni","j","5","html-keyboard-response","1201","n","baadaye","false","",""
"2900.9000000059605","","","","","5","html-slider-response","1202","","","","5",""
"1973","basket","kumbuka,utepe,hasira,kumba","kumba","n","5","html-keyboard-response","1203","v","utepe","false","",""
"2625.300000011921","","","","","5","html-slider-response","1204","","","","4",""
"2260","elephant","petye,kito,pagduol,suka","kito","v","5","html-keyboard-response","1205","v","kito","true","",""
"2872.7000000029802","","","","","5","html-slider-response","1206","","","","5",""
"2690","office","hazini,yatima,kuna,leso","leso","n","5","html-keyboard-response","1207","n","leso","true","",""
"2853.3999999910593","","","","","5","html-slider-response","1208","","","","5",""
"2023","music","mraba,baiski,mageho,tumbo","baiski","v","5","html-keyboard-response","1209","j","mageho","false","",""
"3528.2000000029802","","","","","5","html-slider-response","1210","","","","2",""
"2036","tissue","lamigas,kisiwa,katika,ugomvi","ugomvi","n","5","html-keyboard-response","1211","n","ugomvi","true","",""
"4125.29999999702","","","","","5","html-slider-response","1212","","","","2",""
"3587","curtain","lisud,bulwawan,chubani,mchanga","mchanga","n","5","html-keyboard-response","1213","n","mchanga","true","",""
"2586.5999999940395","","","","","5","html-slider-response","1214","","","","2",""
"4872","flag","ndege,mkate,trekta,kawa","trekta","j","5","html-keyboard-response","1215","n","kawa","false","",""
"2516.2000000029802","","","","","5","html-slider-response","1216","","","","4",""
"2123","dog","lubi,washia,bahari,kalamu","bahari","j","5","html-keyboard-response","1217","j","bahari","true","",""
"4040.2999999970198","","","","","5","html-slider-response","1218","","","","5",""
"2880","cup","dagat,shimoni,jeraha,matumai","matumai","n","5","html-keyboard-response","1219","f","dagat","false","",""
"3046.9000000059605","","","","","5","html-slider-response","1220","","","","4",""
"4484","sheet","bililhon,juuya,watu,kamantis","bililhon","f","5","html-keyboard-response","1221","v","juuya","false","",""
"2865.1000000089407","","","","","5","html-slider-response","1222","","","","4",""
"1837","spoon","betri,pagsulod,nzuri,ngazi","pagsulod","v","5","html-keyboard-response","1223","j","nzuri","false","",""
"2789.9000000059605","","","","","5","html-slider-response","1224","","","","4",""
"1718","flower","bega,tamasha,lobo,usiku","bega","f","5","html-keyboard-response","1225","v","tamasha","false","",""
"2561.9000000059605","","","","","5","html-slider-response","1226","","","","2",""
"2678","picture","silya,kubwa,chaki,asin","kubwa","v","5","html-keyboard-response","1227","v","kubwa","true","",""
"2884.5999999940395","","","","","5","html-slider-response","1228","","","","5",""
"1790","puppet","napulo,lamok,godoro,mazishi","mazishi","n","5","html-keyboard-response","1229","j","godoro","false","",""
"3110.7999999970198","","","","","5","html-slider-response","1230","","","","2",""
"5302","banana","kazi,kasamok,hagdan,twai","kazi","f","5","html-keyboard-response","1231","n","twai","false","",""
"3968.5999999940395","","","","","5","html-slider-response","1232","","","","4",""
"12087","book","mali,kuhesa,picha,mara","mali","f","5","html-keyboard-response","1233","f","mali","true","",""
"3266.5","","","","","5","html-slider-response","1234","","","","5",""
"8794","triangle","kihozi,bentaha,liog,kasadpan","kasadpan","n","5","html-keyboard-response","1235","n","kasadpan","true","",""
"3174.9000000059605","","","","","5","html-slider-response","1236","","","","4",""
"4336","poster","madungog,nchi,fedha,kasuko","madungog","f","5","html-keyboard-response","1237","v","nchi","false","",""
"2629.5999999940395","","","","","5","html-slider-response","1238","","","","4",""
"1982","box","kuacha,rafiki,kitande,adui","adui","n","5","html-keyboard-response","1239","f","kuacha","false","",""
"2916.5","","","","","5","html-slider-response","1240","","","","4",""
"2485","mosquito","isda,martilyo,taras,gutom","martilyo","v","5","html-keyboard-response","1241","n","gutom","false","",""
"2513.8999999910593","","","","","5","html-slider-response","1242","","","","4",""
"2647","shelf","bungtod,pamahaw,kadaot,awit","pamahaw","v","5","html-keyboard-response","1243","f","bungtod","false","",""
"2782.6000000089407","","","","","5","html-slider-response","1244","","","","4",""
"1858","scissors","duga,mtawa,tanuri,suga","tanuri","j","5","html-keyboard-response","1245","n","suga","false","",""
"2818","","","","","5","html-slider-response","1246","","","","2",""
"2216","hammer","mekno,kitovu,layag,napakyas","napakyas","n","5","html-keyboard-response","1247","n","napakyas","true","",""
"3166.4000000059605","","","","","5","html-slider-response","1248","","","","4",""
