"rt","en_word","options","swa_word","correct_answer","phase","trial_type","trial_index","input_answer","input_word","accuracy","certainty","amt_choices"
"6204","bonfire","mwezi,goti,mfuko,kusanya","goti","v","2","html-keyboard-response","106","j","mfuko","false","",""
"2755.4000000953674","","","","","2","html-slider-response","107","","","","4",""
"3758","flower","bega,tamasha,lobo,usiku","bega","f","2","html-keyboard-response","108","f","bega","true","",""
"2383","","","","","2","html-slider-response","109","","","","4",""
"6239","column","pundok,dila,ufagio,pala","ufagio","j","2","html-keyboard-response","110","n","pala","false","",""
"2286.100000023842","","","","","2","html-slider-response","111","","","","2",""
"6312","music","mraba,mageho,baiski,tumbo","baiski","j","2","html-keyboard-response","112","v","mageho","false","",""
"2756.2999999523163","","","","","2","html-slider-response","113","","","","3",""
"5351","spider","kamwe,bunyag,mkboa,atop","kamwe","f","2","html-keyboard-response","114","f","kamwe","true","",""
"2436.600000023842","","","","","2","html-slider-response","115","","","","2",""
"6321","fork","baboy,mgonjwa,paghago,gorisi","mgonjwa","v","2","html-keyboard-response","116","j","paghago","false","",""
"2011.2000000476837","","","","","2","html-slider-response","117","","","","2",""
"2552","mosquito","martilyo,isda,taras,gutom","martilyo","f","2","html-keyboard-response","118","f","martilyo","true","",""
"2012.7000000476837","","","","","2","html-slider-response","119","","","","5",""
"4063","banana","kasamok,hagdan,twai,kazi","kazi","n","2","html-keyboard-response","120","n","kazi","true","",""
"2174.8000000715256","","","","","2","html-slider-response","121","","","","2",""
"7183","cup","dagat,matumai,shimoni,jeraha","matumai","v","2","html-keyboard-response","122","v","matumai","true","",""
"1954.4000000953674","","","","","2","html-slider-response","123","","","","2",""
"4248","shop","samaki,nopya,kerida,ndezu","samaki","f","2","html-keyboard-response","124","f","samaki","true","",""
"1730.8999999761581","","","","","2","html-slider-response","125","","","","2",""
"1814","elephant","petye,pagduol,suka,kito","kito","n","2","html-keyboard-response","126","n","kito","true","",""
"2087.2999999523163","","","","","2","html-slider-response","127","","","","5",""
"3455","bucket","kiatu,baga,ijayo,init","kiatu","f","2","html-keyboard-response","128","v","baga","false","",""
"1802.8999999761581","","","","","2","html-slider-response","129","","","","4",""
"4624","book","kuhesa,picha,mali,mara","mali","j","2","html-keyboard-response","130","n","mara","false","",""
"2012.2000000476837","","","","","2","html-slider-response","131","","","","2",""
"4503","mirror","sulagma,rangi,kanding,furaha","sulagma","f","2","html-keyboard-response","132","f","sulagma","true","",""
"1740.3000000715256","","","","","2","html-slider-response","133","","","","4",""
"4703","office","hazini,yatima,leso,kuna","leso","j","2","html-keyboard-response","134","j","leso","true","",""
"1947","","","","","2","html-slider-response","135","","","","4",""
"4166","body","nyundu,jibini,tindashan,kununa","tindashan","j","2","html-keyboard-response","136","f","nyundu","false","",""
"1542.7999999523163","","","","","2","html-slider-response","137","","","","2",""
"6190","perfume","katuyoan,bino,sungura,ndogo","katuyoan","f","2","html-keyboard-response","138","j","sungura","false","",""
"2142.5","","","","","2","html-slider-response","139","","","","2",""
"2328","olive","jiwe,bata,siagi,welder","jiwe","f","2","html-keyboard-response","140","f","jiwe","true","",""
"1676.7000000476837","","","","","2","html-slider-response","141","","","","5",""
"7592","magazine","gundi,mchawi,bahandi,kiti","kiti","n","2","html-keyboard-response","142","n","kiti","true","",""
"2259.1999999284744","","","","","2","html-slider-response","143","","","","4",""
"3383","bread","kaili,dizeli,dari,bugas","dari","j","2","html-keyboard-response","144","j","dari","true","",""
"2175.399999976158","","","","","2","html-slider-response","145","","","","4",""
"2479","cave","ganti,maisha,nyundo,kesho","kesho","n","2","html-keyboard-response","146","n","kesho","true","",""
"2047.2000000476837","","","","","2","html-slider-response","147","","","","2",""
"4063","ladder","pangalan,mashua,mwanga,kamba","pangalan","f","2","html-keyboard-response","148","f","pangalan","true","",""
"1222.6000000238419","","","","","2","html-slider-response","149","","","","2",""
"5631","human","bado,tinapay,kikapu,punguza","tinapay","v","2","html-keyboard-response","150","f","bado","false","",""
"1582.8999999761581","","","","","2","html-slider-response","151","","","","2",""
"3679","clock","kartasi,abang,osha,mbwa","mbwa","n","2","html-keyboard-response","152","j","osha","false","",""
"1990.2000000476837","","","","","2","html-slider-response","153","","","","1",""
"2743","shelf","bungtod,kadaot,pamahaw,awit","pamahaw","j","2","html-keyboard-response","154","n","awit","false","",""
"1935.6000000238419","","","","","2","html-slider-response","155","","","","2",""
"6264","salmon","mzungu,seri,sensilyo,baharia","sensilyo","j","2","html-keyboard-response","156","j","sensilyo","true","",""
"2346.7999999523163","","","","","2","html-slider-response","157","","","","4",""
"3239","coffin","barua,tubag,hulma,kioo","kioo","n","2","html-keyboard-response","158","n","kioo","true","",""
"1895","","","","","2","html-slider-response","159","","","","4",""
"4383","notebook","msitu,kila,mdudu,kemia","kemia","n","2","html-keyboard-response","160","v","kila","false","",""
"1524.1999999284744","","","","","2","html-slider-response","161","","","","2",""
"6208","shoulder","mkuu,kelele,ndaniya,guruwe","mkuu","f","2","html-keyboard-response","162","v","kelele","false","",""
"1404.2000000476837","","","","","2","html-slider-response","163","","","","2",""
"4840","park","tambok,bunifu,pwani,ihalas","bunifu","v","2","html-keyboard-response","164","j","pwani","false","",""
"1876","","","","","2","html-slider-response","165","","","","2",""
"2392","number","shule,kengele,mundamo,choori","mundamo","j","2","html-keyboard-response","166","n","choori","false","",""
"1996.3999999761581","","","","","2","html-slider-response","167","","","","1",""
"4496","apple","ukame,kisu,estante,edad","kisu","v","2","html-keyboard-response","168","f","ukame","false","",""
"1676.5","","","","","2","html-slider-response","169","","","","2",""
"3560","letter","kifua,filimbi,chuma,uhuru","kifua","f","2","html-keyboard-response","170","n","uhuru","false","",""
"2196.0999999046326","","","","","2","html-slider-response","171","","","","2",""
"3855","eel","ishara,kunywa,kabuang,msumari","msumari","n","2","html-keyboard-response","172","f","ishara","false","",""
"1508","","","","","2","html-slider-response","173","","","","4",""
"2863","cop","bustani,jikoni,mechezo,bakus","mechezo","j","2","html-keyboard-response","174","n","bakus","false","",""
"1923","","","","","2","html-slider-response","175","","","","4",""
"3649","wolf","kaburi,lugha,ndizi,mchuzi","lugha","v","2","html-keyboard-response","176","v","lugha","true","",""
"1441.7000000476837","","","","","2","html-slider-response","177","","","","4",""
"4727","squirrel","mahugaw,ukweli,kichwa,hofu","hofu","n","2","html-keyboard-response","178","j","kichwa","false","",""
"2260.7000000476837","","","","","2","html-slider-response","179","","","","1",""
"2352","nose","gubat,kopa,sehemu,kidole","sehemu","j","2","html-keyboard-response","180","v","kopa","false","",""
"1892.5","","","","","2","html-slider-response","181","","","","2",""
"4208","sock","ndoora,kimysa,mamba,mtirka","mamba","j","2","html-keyboard-response","182","f","ndoora","false","",""
"1355.8999999761581","","","","","2","html-slider-response","183","","","","4",""
"3768","bank","silingan,kudhibi,tualya,ofisi","silingan","f","2","html-keyboard-response","184","n","ofisi","false","",""
"2372","","","","","2","html-slider-response","185","","","","3",""
"2025","donkey","elfu,bloke,lalake,rombus","elfu","f","2","html-keyboard-response","186","f","elfu","true","",""
"1307.6999999284744","","","","","2","html-slider-response","187","","","","4",""
"2896","poster","nchi,madungog,fedha,kasuko","madungog","v","2","html-keyboard-response","188","v","madungog","true","",""
"1556.1999999284744","","","","","2","html-slider-response","189","","","","4",""
"3479","puppet","napulo,mazishi,lamok,godoro","mazishi","v","2","html-keyboard-response","190","j","lamok","false","",""
"1309.3000000715256","","","","","2","html-slider-response","191","","","","2",""
"1840","hill","matumbo,kushoto,kukimba,sweta","matumbo","f","2","html-keyboard-response","192","n","sweta","false","",""
"1356.3999999761581","","","","","2","html-slider-response","193","","","","2",""
"4728","tooth","kijiko,uadui,kabalaka,pahiyum","kabalaka","j","2","html-keyboard-response","194","j","kabalaka","true","",""
"1324.1999999284744","","","","","2","html-slider-response","195","","","","2",""
"2792","woman","bandari,bituin,kovuli,pagtabon","pagtabon","n","2","html-keyboard-response","196","f","bandari","false","",""
"1252.5","","","","","2","html-slider-response","197","","","","4",""
"3409","wheel","punda,tawo,baadaye,bafuni","bafuni","n","2","html-keyboard-response","198","v","tawo","false","",""
"1402.8000000715256","","","","","2","html-slider-response","199","","","","4",""
"4136","mother","babaye,kahawa,mbuzi,jokofu","babaye","f","2","html-keyboard-response","200","f","babaye","true","",""
"998","","","","","2","html-slider-response","201","","","","4",""
"4215","bed","kalipay,haraka,mapintas,starehe","mapintas","j","2","html-keyboard-response","202","f","kalipay","false","",""
"1007.2999999523163","","","","","2","html-slider-response","203","","","","2",""
"2311","key","miaka,chombo,goma,ahos","chombo","v","2","html-keyboard-response","204","n","ahos","false","",""
"1212.7999999523163","","","","","2","html-slider-response","205","","","","2",""
"4199","page","wakala,ishiri,skina,wimbo","wimbo","n","2","html-keyboard-response","206","j","skina","false","",""
"1444","","","","","2","html-slider-response","207","","","","2",""
"3816","pants","pintal,haki,chuki,hari","haki","v","2","html-keyboard-response","208","n","hari","false","",""
"1476.7999999523163","","","","","2","html-slider-response","209","","","","4",""
"4688","sun","bendi,luha,basi,uongo","basi","j","2","html-keyboard-response","210","j","basi","true","",""
"1683.3000000715256","","","","","2","html-slider-response","211","","","","4",""
"3399","finger","simu,sufuria,lima,moyo","moyo","n","2","html-keyboard-response","212","f","simu","false","",""
"1292.5","","","","","2","html-slider-response","213","","","","1",""
"3240","shoe","uyoga,nyeusi,hatua,kama","uyoga","f","2","html-keyboard-response","214","f","uyoga","true","",""
"1084.8000000715256","","","","","2","html-slider-response","215","","","","2",""
"4863","giraffe","daraja,jumatu,mahitabo,hangyo","mahitabo","j","2","html-keyboard-response","216","v","jumatu","false","",""
"6660.700000047684","","","","","2","html-slider-response","217","","","","2",""
"4614","dog","lubi,washia,bahari,kalamu","bahari","j","2","html-keyboard-response","218","f","lubi","false","",""
"1288","","","","","2","html-slider-response","219","","","","2",""
"2239","box","adui,kuacha,rafiki,kitande","adui","f","2","html-keyboard-response","220","j","rafiki","false","",""
"1286.7000000476837","","","","","2","html-slider-response","221","","","","2",""
"2872","scissors","duga,tanuri,mtawa,suga","tanuri","v","2","html-keyboard-response","222","n","suga","false","",""
"1204.2000000476837","","","","","2","html-slider-response","223","","","","4",""
"3200","cat","neyemba,paghukom,baki,akili","paghukom","v","2","html-keyboard-response","224","n","akili","false","",""
"2149.3000000715256","","","","","2","html-slider-response","225","","","","3",""
"3231","basket","kumbuka,utepe,hasira,kumba","kumba","n","2","html-keyboard-response","226","n","kumba","true","",""
"1957.4000000953674","","","","","2","html-slider-response","227","","","","1",""
"3902","snake","jansa,karon,pagtukod,mvringo","pagtukod","j","2","html-keyboard-response","228","n","mvringo","false","",""
"1380.3999999761581","","","","","2","html-slider-response","229","","","","2",""
"2470","gift","pagtawag,baba,nyange,baso","pagtawag","f","2","html-keyboard-response","230","n","baso","false","",""
"1198.7000000476837","","","","","2","html-slider-response","231","","","","4",""
"3879","train","sayari,itik,dakika,mungu","sayari","f","2","html-keyboard-response","232","j","dakika","false","",""
"1604.2000000476837","","","","","2","html-slider-response","233","","","","2",""
"3854","pudding","abug,mpishi,iring,aibu","aibu","n","2","html-keyboard-response","234","f","abug","false","",""
"1510.7000000476837","","","","","2","html-slider-response","235","","","","2",""
"2920","tomato","chupi,chupa,mvua,takatak","mvua","j","2","html-keyboard-response","236","f","chupi","false","",""
"1315.8999999761581","","","","","2","html-slider-response","237","","","","2",""
"2991","stone","ulimwengu,mkasi,asili,wingi","wingi","n","2","html-keyboard-response","238","f","ulimwengu","false","",""
"1570.8999999761581","","","","","2","html-slider-response","239","","","","1",""
"2216","hammer","napakyas,mekno,kitovu,layag","napakyas","f","2","html-keyboard-response","240","n","layag","false","",""
"1323.8000000715256","","","","","2","html-slider-response","241","","","","2",""
"3455","knee","duka,mvuke,kubale,bili","duka","f","2","html-keyboard-response","242","v","mvuke","false","",""
"1492","","","","","2","html-slider-response","243","","","","4",""
"2375","ceiling","maua,kugita,kawaida,rayna","maua","f","2","html-keyboard-response","244","n","rayna","false","",""
"1508.9000000953674","","","","","2","html-slider-response","245","","","","2",""
"2759","spoon","betri,nzuri,pagsulod,ngazi","pagsulod","j","2","html-keyboard-response","246","f","betri","false","",""
"1348.5","","","","","2","html-slider-response","247","","","","2",""
"1920","marker","mapafu,salita,maji,atay","maji","j","2","html-keyboard-response","248","f","mapafu","false","",""
"1691.3999999761581","","","","","2","html-slider-response","249","","","","1",""
"2624","candle","gabi,farasi,geza,kupanda","geza","j","2","html-keyboard-response","250","v","farasi","false","",""
"1316.2999999523163","","","","","2","html-slider-response","251","","","","2",""
"2064","tissue","ugomvi,lamigas,kisiwa,katika","ugomvi","f","2","html-keyboard-response","252","n","katika","false","",""
"1357.2000000476837","","","","","2","html-slider-response","253","","","","4",""
"2048","bridge","daima,sahani,ngono,panya","sahani","v","2","html-keyboard-response","254","f","daima","false","",""
"1388.2000000476837","","","","","2","html-slider-response","255","","","","4",""
"2951","berry","kofia,abogado,nogozi,kinywa","kofia","f","2","html-keyboard-response","256","f","kofia","true","",""
"1359.7000000476837","","","","","2","html-slider-response","257","","","","4",""
"3912","triangle","kihozi,bentaha,liog,kasadpan","kasadpan","n","2","html-keyboard-response","258","n","kasadpan","true","",""
"1420.7999999523163","","","","","2","html-slider-response","259","","","","2",""
"5168","door","tena,surali,soko,nyota","surali","v","2","html-keyboard-response","260","f","tena","false","",""
"1402.6000000238419","","","","","2","html-slider-response","261","","","","2",""
"3057","fish","bala,baho,buli,imani","buli","j","2","html-keyboard-response","262","n","imani","false","",""
"1699.6000000238419","","","","","2","html-slider-response","263","","","","4",""
"3175","curtain","lisud,bulwawan,chubani,mchanga","mchanga","n","2","html-keyboard-response","264","n","mchanga","true","",""
"1111.0999999046326","","","","","2","html-slider-response","265","","","","2",""
"3008","flag","trekta,ndege,mkate,kawa","trekta","f","2","html-keyboard-response","266","v","ndege","false","",""
"956.2999999523163","","","","","2","html-slider-response","267","","","","2",""
"1872","boat","hamsi,pombe,agalon,kitanda","agalon","j","2","html-keyboard-response","268","f","hamsi","false","",""
"1509.5","","","","","2","html-slider-response","269","","","","2",""
"1975","rose","paghalad,singizi,mwanake,amani","paghalad","f","2","html-keyboard-response","270","n","amani","false","",""
"4308.100000023842","","","","","2","html-slider-response","271","","","","2",""
"5784","lamp","daub,bilaska,mbolea,afya","afya","n","2","html-keyboard-response","272","v","bilaska","false","",""
"2092.5","","","","","2","html-slider-response","273","","","","4",""
"2984","cigar","ndugu,kuta,mlango,adhabu","adhabu","n","2","html-keyboard-response","274","v","kuta","false","",""
"1276.7000000476837","","","","","2","html-slider-response","275","","","","2",""
"1951","list","alizeti,kuzama,kaso,wingu","wingu","n","2","html-keyboard-response","276","f","alizeti","false","",""
"2013.2000000476837","","","","","2","html-slider-response","277","","","","2",""
"2753","sheet","bililhon,juuya,watu,kamantis","bililhon","f","2","html-keyboard-response","278","f","bililhon","true","",""
"1195.7000000476837","","","","","2","html-slider-response","279","","","","2",""
"2928","picture","silya,chaki,asin,kubwa","kubwa","n","2","html-keyboard-response","280","v","chaki","false","",""
"1627.6999999284744","","","","","2","html-slider-response","281","","","","1",""
"2576","towel","pagpalit,tembo,funzi,pito","pagpalit","f","2","html-keyboard-response","282","v","tembo","false","",""
"1532.3999999761581","","","","","2","html-slider-response","283","","","","1",""
"3263","window","kweli,nanga,kujenga,umaga","kweli","f","2","html-keyboard-response","284","v","nanga","false","",""
"1772.2999999523163","","","","","2","html-slider-response","285","","","","1",""
"5602","box","kuacha,adui,rafiki,kitande","adui","v","3","html-keyboard-response","293","f","kuacha","false","","4"
"4109.899999976158","","","","","3","html-slider-response","294","","","","3",""
"4398","","","","","3","html-keyboard-response","295","","","","",""
"3942","pants","haki,pintal,chuki,hari","haki","f","3","html-keyboard-response","296","j","chuki","false","","4"
"2476.399999976158","","","","","3","html-slider-response","297","","","","2",""
"6559","","","","","3","html-keyboard-response","298","","","","",""
"3616","cup","dagat,shimoni,jeraha,matumai","matumai","n","3","html-keyboard-response","299","f","dagat","false","","4"
"1915.5","","","","","3","html-slider-response","300","","","","2",""
"3096","","","","","3","html-keyboard-response","301","","","","",""
"3422","triangle","kihozi,kasadpan,bentaha,liog","kasadpan","v","3","html-keyboard-response","302","n","liog","false","","4"
"2572.0999999046326","","","","","3","html-slider-response","303","","","","1",""
"3144","","","","","3","html-keyboard-response","304","","","","",""
"7156","curtain","lisud,bulwawan,mchanga,chubani","mchanga","j","3","html-keyboard-response","305","v","bulwawan","false","","4"
"2532.399999976158","","","","","3","html-slider-response","306","","","","2",""
"2920","","","","","3","html-keyboard-response","307","","","","",""
"3717","clock","kartasi,mbwa,abang,osha","mbwa","v","3","html-keyboard-response","308","f","kartasi","false","","4"
"1652.4000000953674","","","","","3","html-slider-response","309","","","","2",""
"3399","","","","","3","html-keyboard-response","310","","","","",""
"3601","mirror","rangi,kanding,furaha,sulagma","sulagma","n","3","html-keyboard-response","311","n","sulagma","true","","4"
"1675.8000000715256","","","","","3","html-slider-response","312","","","","4",""
"3888","","","","","3","html-keyboard-response","313","","","","",""
"2876","coffin","kioo,barua,tubag,hulma","kioo","f","3","html-keyboard-response","314","f","kioo","true","","1"
"1895.3000000715256","","","","","3","html-slider-response","315","","","","5",""
"1472","","","","","3","html-keyboard-response","316","","","","",""
"11277","magazine","gundi,kiti,mchawi,bahandi","kiti","v","3","html-keyboard-response","317","j","mchawi","false","","4"
"1475.6000000238419","","","","","3","html-slider-response","318","","","","2",""
"2232","","","","","3","html-keyboard-response","319","","","","",""
"3077","column","pundok,dila,pala,ufagio","ufagio","n","3","html-keyboard-response","320","n","ufagio","true","","1"
"1967.3999999761581","","","","","3","html-slider-response","321","","","","5",""
"1280","","","","","3","html-keyboard-response","322","","","","",""
"3798","number","shule,kengele,mundamo,choori","mundamo","j","3","html-keyboard-response","323","j","mundamo","true","","4"
"1347.6000000238419","","","","","3","html-slider-response","324","","","","2",""
"4136","","","","","3","html-keyboard-response","325","","","","",""
"4158","rose","singizi,mwanake,amani,paghalad","paghalad","n","3","html-keyboard-response","326","j","amani","false","","4"
"1740.6000000238419","","","","","3","html-slider-response","327","","","","2",""
"2480","","","","","3","html-keyboard-response","328","","","","",""
"2822","eel","ishara,msumari,kunywa,kabuang","msumari","v","3","html-keyboard-response","329","f","ishara","false","","4"
"1740.3999999761581","","","","","3","html-slider-response","330","","","","4",""
"3136","","","","","3","html-keyboard-response","331","","","","",""
"3388","gift","baba,nyange,baso,pagtawag","pagtawag","n","3","html-keyboard-response","332","j","baso","false","","4"
"1550.7000000476837","","","","","3","html-slider-response","333","","","","2",""
"2191","","","","","3","html-keyboard-response","334","","","","",""
"2256","apple","ukame,estante,kisu,edad","kisu","j","3","html-keyboard-response","335","j","kisu","true","","1"
"1981.2000000476837","","","","","3","html-slider-response","336","","","","5",""
"1320","","","","","3","html-keyboard-response","337","","","","",""
"2261","wheel","punda,bafuni,tawo,baadaye","bafuni","v","3","html-keyboard-response","338","v","bafuni","true","","1"
"2220","","","","","3","html-slider-response","339","","","","5",""
"1231","","","","","3","html-keyboard-response","340","","","","",""
"3239","knee","mvuke,duka,kubale,bili","duka","v","3","html-keyboard-response","341","f","mvuke","false","","4"
"1659.5999999046326","","","","","3","html-slider-response","342","","","","2",""
"2079","","","","","3","html-keyboard-response","343","","","","",""
"2462","basket","kumbuka,utepe,kumba,hasira","kumba","j","3","html-keyboard-response","344","j","kumba","true","","1"
"1756","","","","","3","html-slider-response","345","","","","5",""
"1359","","","","","3","html-keyboard-response","346","","","","",""
"3710","park","tambok,pwani,ihalas,bunifu","bunifu","n","3","html-keyboard-response","347","n","bunifu","true","","4"
"2108.399999976158","","","","","3","html-slider-response","348","","","","2",""
"2183","","","","","3","html-keyboard-response","349","","","","",""
"3981","finger","simu,sufuria,moyo,lima","moyo","j","3","html-keyboard-response","350","v","sufuria","false","","4"
"1940.7000000476837","","","","","3","html-slider-response","351","","","","2",""
"1831","","","","","3","html-keyboard-response","352","","","","",""
"5070","boat","hamsi,pombe,kitanda,agalon","agalon","n","3","html-keyboard-response","353","n","agalon","true","","4"
"1550.1000000238419","","","","","3","html-slider-response","354","","","","2",""
"3519","","","","","3","html-keyboard-response","355","","","","",""
"3936","hill","kushoto,kukimba,sweta,matumbo","matumbo","n","3","html-keyboard-response","356","n","matumbo","true","","4"
"1773.1999999284744","","","","","3","html-slider-response","357","","","","2",""
"2976","","","","","3","html-keyboard-response","358","","","","",""
"4052","train","itik,dakika,mungu,sayari","sayari","n","3","html-keyboard-response","359","f","itik","false","","4"
"1604.2000000476837","","","","","3","html-slider-response","360","","","","2",""
"1927","","","","","3","html-keyboard-response","361","","","","",""
"2853","wolf","lugha,kaburi,ndizi,mchuzi","lugha","f","3","html-keyboard-response","362","n","mchuzi","false","","4"
"1604.7999999523163","","","","","3","html-slider-response","363","","","","2",""
"2120","","","","","3","html-keyboard-response","364","","","","",""
"3013","snake","jansa,karon,mvringo,pagtukod","pagtukod","n","3","html-keyboard-response","365","v","karon","false","","4"
"1469","","","","","3","html-slider-response","366","","","","2",""
"2184","","","","","3","html-keyboard-response","367","","","","",""
"2806","tooth","kijiko,uadui,pahiyum,kabalaka","kabalaka","n","3","html-keyboard-response","368","n","kabalaka","true","","4"
"1420.0999999046326","","","","","3","html-slider-response","369","","","","2",""
"1919","","","","","3","html-keyboard-response","370","","","","",""
"4303","notebook","msitu,kila,mdudu,kemia","kemia","n","3","html-keyboard-response","371","j","mdudu","false","","4"
"1613.1000000238419","","","","","3","html-slider-response","372","","","","2",""
"2016","","","","","3","html-keyboard-response","373","","","","",""
"4142","flag","ndege,mkate,trekta,kawa","trekta","j","3","html-keyboard-response","374","f","ndege","false","","4"
"1455.5","","","","","3","html-slider-response","375","","","","2",""
"1495","","","","","3","html-keyboard-response","376","","","","",""
"2271","squirrel","mahugaw,hofu,ukweli,kichwa","hofu","v","3","html-keyboard-response","377","v","hofu","true","","4"
"1853","","","","","3","html-slider-response","378","","","","4",""
"1647","","","","","3","html-keyboard-response","379","","","","",""
"3782","door","surali,tena,soko,nyota","surali","f","3","html-keyboard-response","380","f","surali","true","","4"
"2343.2999999523163","","","","","3","html-slider-response","381","","","","2",""
"2118","","","","","3","html-keyboard-response","382","","","","",""
"3568","salmon","mzungu,seri,baharia,sensilyo","sensilyo","n","3","html-keyboard-response","383","n","sensilyo","true","","4"
"1524.6999999284744","","","","","3","html-slider-response","384","","","","4",""
"1681","","","","","3","html-keyboard-response","385","","","","",""
"3214","shoulder","kelele,mkuu,ndaniya,guruwe","mkuu","v","3","html-keyboard-response","386","f","kelele","false","","4"
"1636","","","","","3","html-slider-response","387","","","","2",""
"1048","","","","","3","html-keyboard-response","388","","","","",""
"2943","lamp","daub,bilaska,afya,mbolea","afya","j","3","html-keyboard-response","389","f","daub","false","","4"
"2092.1999999284744","","","","","3","html-slider-response","390","","","","2",""
"1616","","","","","3","html-keyboard-response","391","","","","",""
"2999","shelf","bungtod,kadaot,awit,pamahaw","pamahaw","n","3","html-keyboard-response","392","n","pamahaw","true","","1"
"1747.0999999046326","","","","","3","html-slider-response","393","","","","5",""
"1031","","","","","3","html-keyboard-response","394","","","","",""
"3169","human","bado,kikapu,tinapay,punguza","tinapay","j","3","html-keyboard-response","395","f","bado","false","","4"
"1659.5","","","","","3","html-slider-response","396","","","","2",""
"1608","","","","","3","html-keyboard-response","397","","","","",""
"4336","towel","tembo,funzi,pagpalit,pito","pagpalit","j","3","html-keyboard-response","398","f","tembo","false","","4"
"1499.6999999284744","","","","","3","html-slider-response","399","","","","2",""
"1192","","","","","3","html-keyboard-response","400","","","","",""
"4541","cat","neyemba,baki,akili,paghukom","paghukom","n","3","html-keyboard-response","401","v","baki","false","","4"
"1333.3999999761581","","","","","3","html-slider-response","402","","","","2",""
"1496","","","","","3","html-keyboard-response","403","","","","",""
"3086","spider","kamwe,bunyag,mkboa,atop","kamwe","f","3","html-keyboard-response","404","n","atop","false","","4"
"1692.3999999761581","","","","","3","html-slider-response","405","","","","2",""
"1337","","","","","3","html-keyboard-response","406","","","","",""
"2349","window","nanga,kweli,kujenga,umaga","kweli","v","3","html-keyboard-response","407","f","nanga","false","","4"
"1221.6999999284744","","","","","3","html-slider-response","408","","","","4",""
"1464","","","","","3","html-keyboard-response","409","","","","",""
"2358","woman","bandari,pagtabon,bituin,kovuli","pagtabon","v","3","html-keyboard-response","410","v","pagtabon","true","","1"
"2292.600000023842","","","","","3","html-slider-response","411","","","","5",""
"1039","","","","","3","html-keyboard-response","412","","","","",""
"3101","giraffe","mahitabo,daraja,jumatu,hangyo","mahitabo","f","3","html-keyboard-response","413","n","hangyo","false","","4"
"1534.8999999761581","","","","","3","html-slider-response","414","","","","4",""
"1272","","","","","3","html-keyboard-response","415","","","","",""
"2221","elephant","petye,pagduol,kito,suka","kito","j","3","html-keyboard-response","416","j","kito","true","","4"
"1476.3000000715256","","","","","3","html-slider-response","417","","","","5",""
"1039","","","","","3","html-keyboard-response","418","","","","",""
"2317","cave","ganti,kesho,maisha,nyundo","kesho","v","3","html-keyboard-response","419","v","kesho","true","","4"
"2412.7000000476837","","","","","3","html-slider-response","420","","","","2",""
"1399","","","","","3","html-keyboard-response","421","","","","",""
"2199","bread","kaili,dizeli,dari,bugas","dari","j","3","html-keyboard-response","422","j","dari","true","","4"
"1765.5","","","","","3","html-slider-response","423","","","","4",""
"1423","","","","","3","html-keyboard-response","424","","","","",""
"4990","stone","wingi,ulimwengu,mkasi,asili","wingi","f","3","html-keyboard-response","425","v","ulimwengu","false","","4"
"1611.6999999284744","","","","","3","html-slider-response","426","","","","2",""
"1176","","","","","3","html-keyboard-response","427","","","","",""
"2271","donkey","bloke,lalake,rombus,elfu","elfu","n","3","html-keyboard-response","428","n","elfu","true","","4"
"1395.7000000476837","","","","","3","html-slider-response","429","","","","4",""
"1224","","","","","3","html-keyboard-response","430","","","","",""
"3413","bridge","daima,sahani,ngono,panya","sahani","v","3","html-keyboard-response","431","j","ngono","false","","4"
"1812","","","","","3","html-slider-response","432","","","","2",""
"1128","","","","","3","html-keyboard-response","433","","","","",""
"3414","bonfire","mwezi,mfuko,goti,kusanya","goti","j","3","html-keyboard-response","434","f","mwezi","false","","4"
"1166","","","","","3","html-slider-response","435","","","","2",""
"1567","","","","","3","html-keyboard-response","436","","","","",""
"3865","book","mali,kuhesa,picha,mara","mali","f","3","html-keyboard-response","437","f","mali","true","","4"
"1459.5999999046326","","","","","3","html-slider-response","438","","","","2",""
"1192","","","","","3","html-keyboard-response","439","","","","",""
"2495","fish","bala,buli,baho,imani","buli","v","3","html-keyboard-response","440","v","buli","true","","4"
"1229.1000000238419","","","","","3","html-slider-response","441","","","","4",""
"1807","","","","","3","html-keyboard-response","442","","","","",""
"3663","spoon","betri,pagsulod,nzuri,ngazi","pagsulod","v","3","html-keyboard-response","443","v","pagsulod","true","","4"
"1435.6000000238419","","","","","3","html-slider-response","444","","","","2",""
"1303","","","","","3","html-keyboard-response","445","","","","",""
"3017","scissors","tanuri,duga,mtawa,suga","tanuri","f","3","html-keyboard-response","446","n","suga","false","","4"
"1699.7000000476837","","","","","3","html-slider-response","447","","","","2",""
"1375","","","","","3","html-keyboard-response","448","","","","",""
"2343","page","wakala,ishiri,skina,wimbo","wimbo","n","3","html-keyboard-response","449","j","skina","false","","4"
"1510.1000000238419","","","","","3","html-slider-response","450","","","","2",""
"1134","","","","","3","html-keyboard-response","451","","","","",""
"1543","nose","gubat,kopa,kidole,sehemu","sehemu","n","3","html-keyboard-response","452","n","sehemu","true","","1"
"1607.1000000238419","","","","","3","html-slider-response","453","","","","5",""
"623","","","","","3","html-keyboard-response","454","","","","",""
"2446","ceiling","kugita,kawaida,rayna,maua","maua","n","3","html-keyboard-response","455","f","kugita","false","","4"
"1414.1000000238419","","","","","3","html-slider-response","456","","","","2",""
"824","","","","","3","html-keyboard-response","457","","","","",""
"2102","bucket","kiatu,baga,ijayo,init","kiatu","f","3","html-keyboard-response","458","v","baga","false","","4"
"1134.6999999284744","","","","","3","html-slider-response","459","","","","4",""
"992","","","","","3","html-keyboard-response","460","","","","",""
"1413","berry","abogado,nogozi,kofia,kinywa","kofia","j","3","html-keyboard-response","461","j","kofia","true","","1"
"1621.3000000715256","","","","","3","html-slider-response","462","","","","5",""
"904","","","","","3","html-keyboard-response","463","","","","",""
"1972","mother","kahawa,mbuzi,babaye,jokofu","babaye","j","3","html-keyboard-response","464","j","babaye","true","","1"
"1662.8999999761581","","","","","3","html-slider-response","465","","","","5",""
"800","","","","","3","html-keyboard-response","466","","","","",""
"2725","mosquito","isda,martilyo,taras,gutom","martilyo","v","3","html-keyboard-response","467","v","martilyo","true","","4"
"1943.2000000476837","","","","","3","html-slider-response","468","","","","5",""
"1223","","","","","3","html-keyboard-response","469","","","","",""
"3262","perfume","bino,sungura,katuyoan,ndogo","katuyoan","j","3","html-keyboard-response","470","v","sungura","false","","4"
"1718.5","","","","","3","html-slider-response","471","","","","2",""
"1031","","","","","3","html-keyboard-response","472","","","","",""
"4894","sheet","bililhon,juuya,watu,kamantis","bililhon","f","3","html-keyboard-response","473","f","bililhon","true","","4"
"1724.8000000715256","","","","","3","html-slider-response","474","","","","2",""
"1519","","","","","3","html-keyboard-response","475","","","","",""
"1263","puppet","napulo,lamok,mazishi,godoro","mazishi","j","3","html-keyboard-response","476","j","mazishi","true","","1"
"1094.6000000238419","","","","","3","html-slider-response","477","","","","5",""
"951","","","","","3","html-keyboard-response","478","","","","",""
"2599","poster","nchi,fedha,kasuko,madungog","madungog","n","3","html-keyboard-response","479","n","madungog","true","","4"
"1365.6000000238419","","","","","3","html-slider-response","480","","","","2",""
"1015","","","","","3","html-keyboard-response","481","","","","",""
"2183","music","mraba,mageho,tumbo,baiski","baiski","n","3","html-keyboard-response","482","v","mageho","false","","4"
"1364.1000000238419","","","","","3","html-slider-response","483","","","","4",""
"831","","","","","3","html-keyboard-response","484","","","","",""
"2062","key","miaka,chombo,goma,ahos","chombo","v","3","html-keyboard-response","485","n","ahos","false","","4"
"1197.8000000715256","","","","","3","html-slider-response","486","","","","2",""
"912","","","","","3","html-keyboard-response","487","","","","",""
"1671","sock","ndoora,mamba,kimysa,mtirka","mamba","v","3","html-keyboard-response","488","f","ndoora","false","","4"
"1385.3000000715256","","","","","3","html-slider-response","489","","","","2",""
"1248","","","","","3","html-keyboard-response","490","","","","",""
"2270","marker","mapafu,salita,atay,maji","maji","n","3","html-keyboard-response","491","n","maji","true","","4"
"1334.3000000715256","","","","","3","html-slider-response","492","","","","2",""
"1040","","","","","3","html-keyboard-response","493","","","","",""
"1878","office","hazini,leso,yatima,kuna","leso","v","3","html-keyboard-response","494","v","leso","true","","4"
"1268.6000000238419","","","","","3","html-slider-response","495","","","","5",""
"777","","","","","3","html-keyboard-response","496","","","","",""
"3661","shoe","nyeusi,hatua,uyoga,kama","uyoga","j","3","html-keyboard-response","497","j","uyoga","true","","4"
"1534.1999999284744","","","","","3","html-slider-response","498","","","","2",""
"3535","","","","","3","html-keyboard-response","499","","","","",""
"3224","cop","bustani,jikoni,mechezo,bakus","mechezo","j","3","html-keyboard-response","500","n","bakus","false","","4"
"1645","","","","","3","html-slider-response","501","","","","2",""
"1248","","","","","3","html-keyboard-response","502","","","","",""
"1853","bank","kudhibi,tualya,silingan,ofisi","silingan","j","3","html-keyboard-response","503","n","ofisi","false","","4"
"1263.2000000476837","","","","","3","html-slider-response","504","","","","2",""
"1208","","","","","3","html-keyboard-response","505","","","","",""
"1438","letter","filimbi,chuma,kifua,uhuru","kifua","j","3","html-keyboard-response","506","j","kifua","true","","1"
"3021.899999976158","","","","","3","html-slider-response","507","","","","5",""
"800","","","","","3","html-keyboard-response","508","","","","",""
"1663","dog","lubi,washia,kalamu,bahari","bahari","n","3","html-keyboard-response","509","n","bahari","true","","1"
"1266.3999999761581","","","","","3","html-slider-response","510","","","","5",""
"760","","","","","3","html-keyboard-response","511","","","","",""
"2599","shop","nopya,kerida,samaki,ndezu","samaki","j","3","html-keyboard-response","512","j","samaki","true","","4"
"1453.8999999761581","","","","","3","html-slider-response","513","","","","2",""
"1328","","","","","3","html-keyboard-response","514","","","","",""
"3326","flower","tamasha,lobo,bega,usiku","bega","j","3","html-keyboard-response","515","j","bega","true","","4"
"1212","","","","","3","html-slider-response","516","","","","5",""
"848","","","","","3","html-keyboard-response","517","","","","",""
"2094","cigar","ndugu,kuta,adhabu,mlango","adhabu","j","3","html-keyboard-response","518","j","adhabu","true","","1"
"1764.3000000715256","","","","","3","html-slider-response","519","","","","5",""
"744","","","","","3","html-keyboard-response","520","","","","",""
"2568","hammer","mekno,kitovu,napakyas,layag","napakyas","j","3","html-keyboard-response","521","n","layag","false","","4"
"2001.5","","","","","3","html-slider-response","522","","","","2",""
"1231","","","","","3","html-keyboard-response","523","","","","",""
"2792","fork","baboy,paghago,mgonjwa,gorisi","mgonjwa","j","3","html-keyboard-response","524","n","gorisi","false","","4"
"1277","","","","","3","html-slider-response","525","","","","2",""
"1297","","","","","3","html-keyboard-response","526","","","","",""
"2228","sun","bendi,luha,basi,uongo","basi","j","3","html-keyboard-response","527","j","basi","true","","1"
"1550.3999999761581","","","","","3","html-slider-response","528","","","","5",""
"1079","","","","","3","html-keyboard-response","529","","","","",""
"3087","ladder","mashua,mwanga,pangalan,kamba","pangalan","j","3","html-keyboard-response","530","j","pangalan","true","","4"
"1509.5","","","","","3","html-slider-response","531","","","","2",""
"1175","","","","","3","html-keyboard-response","532","","","","",""
"2429","banana","kasamok,hagdan,twai,kazi","kazi","n","3","html-keyboard-response","533","n","kazi","true","","1"
"1541","","","","","3","html-slider-response","534","","","","5",""
"559","","","","","3","html-keyboard-response","535","","","","",""
"2288","pudding","abug,mpishi,aibu,iring","aibu","j","3","html-keyboard-response","536","n","iring","false","","4"
"1716.3999999761581","","","","","3","html-slider-response","537","","","","2",""
"704","","","","","3","html-keyboard-response","538","","","","",""
"3118","body","nyundu,tindashan,jibini,kununa","tindashan","v","3","html-keyboard-response","539","v","tindashan","true","","4"
"1595.7000000476837","","","","","3","html-slider-response","540","","","","2",""
"2407","","","","","3","html-keyboard-response","541","","","","",""
"2328","bed","kalipay,mapintas,haraka,starehe","mapintas","v","3","html-keyboard-response","542","j","haraka","false","","4"
"1604","","","","","3","html-slider-response","543","","","","2",""
"2720","","","","","3","html-keyboard-response","544","","","","",""
"21407","tissue","ugomvi,lamigas,kisiwa,katika","ugomvi","f","3","html-keyboard-response","545","v","lamigas","false","","4"
"1722.6000000238419","","","","","3","html-slider-response","546","","","","2",""
"1623","","","","","3","html-keyboard-response","547","","","","",""
"1990","candle","geza,gabi,farasi,kupanda","geza","f","3","html-keyboard-response","548","v","gabi","false","","4"
"1422","","","","","3","html-slider-response","549","","","","2",""
"1238","","","","","3","html-keyboard-response","550","","","","",""
"1872","tomato","chupi,chupa,mvua,takatak","mvua","j","3","html-keyboard-response","551","j","mvua","true","","1"
"1787.6000000238419","","","","","3","html-slider-response","552","","","","5",""
"2230","","","","","3","html-keyboard-response","553","","","","",""
"3864","list","alizeti,wingu,kuzama,kaso","wingu","v","3","html-keyboard-response","554","n","kaso","false","","4"
"1500.6000000238419","","","","","3","html-slider-response","555","","","","2",""
"880","","","","","3","html-keyboard-response","556","","","","",""
"2302","olive","bata,jiwe,siagi,welder","jiwe","v","3","html-keyboard-response","557","v","jiwe","true","","4"
"1421.6000000238419","","","","","3","html-slider-response","558","","","","5",""
"960","","","","","3","html-keyboard-response","559","","","","",""
"2038","picture","kubwa,silya,chaki,asin","kubwa","f","3","html-keyboard-response","560","f","kubwa","true","","1"
"1300.3999999761581","","","","","3","html-slider-response","561","","","","5",""
"559","","","","","3","html-keyboard-response","562","","","","",""
"3673","page","wakala,ishiri,skina,wimbo","wimbo","n","4","html-keyboard-response","888","n","wimbo","true","",""
"2226.2999999523163","","","","","4","html-slider-response","889","","","","4",""
"4063","sheet","juuya,watu,bililhon,kamantis","bililhon","j","4","html-keyboard-response","890","j","bililhon","true","",""
"1131.6000000238419","","","","","4","html-slider-response","891","","","","4",""
"3152","ladder","mashua,mwanga,pangalan,kamba","pangalan","j","4","html-keyboard-response","892","j","pangalan","true","",""
"1539.8999999761581","","","","","4","html-slider-response","893","","","","4",""
"4503","door","surali,tena,soko,nyota","surali","f","4","html-keyboard-response","894","v","tena","false","",""
"1445.2999999523163","","","","","4","html-slider-response","895","","","","4",""
"3840","spider","bunyag,kamwe,mkboa,atop","kamwe","v","4","html-keyboard-response","896","v","kamwe","true","",""
"1532","","","","","4","html-slider-response","897","","","","4",""
"2976","picture","silya,chaki,asin,kubwa","kubwa","n","4","html-keyboard-response","898","n","kubwa","true","",""
"1300","","","","","4","html-slider-response","899","","","","4",""
"3288","boat","agalon,hamsi,pombe,kitanda","agalon","f","4","html-keyboard-response","900","f","agalon","true","",""
"1308.5","","","","","4","html-slider-response","901","","","","5",""
"1927","donkey","bloke,lalake,rombus,elfu","elfu","n","4","html-keyboard-response","902","n","elfu","true","",""
"1180.5","","","","","4","html-slider-response","903","","","","5",""
"4311","book","kuhesa,picha,mali,mara","mali","j","4","html-keyboard-response","904","f","kuhesa","false","",""
"2165.7000000476837","","","","","4","html-slider-response","905","","","","3",""
"2120","cup","dagat,shimoni,jeraha,matumai","matumai","n","4","html-keyboard-response","906","n","matumai","true","",""
"1189.1000000238419","","","","","4","html-slider-response","907","","","","4",""
"2711","sun","bendi,luha,basi,uongo","basi","j","4","html-keyboard-response","908","j","basi","true","",""
"1326.0999999046326","","","","","4","html-slider-response","909","","","","5",""
"2942","pudding","aibu,abug,mpishi,iring","aibu","f","4","html-keyboard-response","910","j","mpishi","false","",""
"1143","","","","","4","html-slider-response","911","","","","2",""
"3383","human","bado,kikapu,tinapay,punguza","tinapay","j","4","html-keyboard-response","912","j","tinapay","true","",""
"1851.2000000476837","","","","","4","html-slider-response","913","","","","5",""
"1879","squirrel","mahugaw,ukweli,hofu,kichwa","hofu","j","4","html-keyboard-response","914","j","hofu","true","",""
"1324.6000000238419","","","","","4","html-slider-response","915","","","","5",""
"2478","park","tambok,bunifu,pwani,ihalas","bunifu","v","4","html-keyboard-response","916","v","bunifu","true","",""
"1254.7999999523163","","","","","4","html-slider-response","917","","","","5",""
"3464","poster","madungog,nchi,fedha,kasuko","madungog","f","4","html-keyboard-response","918","n","kasuko","false","",""
"1116.7999999523163","","","","","4","html-slider-response","919","","","","2",""
"2720","wolf","lugha,kaburi,ndizi,mchuzi","lugha","f","4","html-keyboard-response","920","f","lugha","true","",""
"1115.8999999761581","","","","","4","html-slider-response","921","","","","4",""
"3383","cat","paghukom,neyemba,baki,akili","paghukom","f","4","html-keyboard-response","922","f","paghukom","true","",""
"1054","","","","","4","html-slider-response","923","","","","4",""
"4544","fish","bala,baho,buli,imani","buli","j","4","html-keyboard-response","924","j","buli","true","",""
"1387.3999999761581","","","","","4","html-slider-response","925","","","","2",""
"1984","tooth","kijiko,uadui,kabalaka,pahiyum","kabalaka","j","4","html-keyboard-response","926","j","kabalaka","true","",""
"1227.5","","","","","4","html-slider-response","927","","","","4",""
"2425","cave","ganti,kesho,maisha,nyundo","kesho","v","4","html-keyboard-response","928","v","kesho","true","",""
"1097.6000000238419","","","","","4","html-slider-response","929","","","","4",""
"2472","lamp","daub,afya,bilaska,mbolea","afya","v","4","html-keyboard-response","930","v","afya","true","",""
"1067.8999999761581","","","","","4","html-slider-response","931","","","","4",""
"2095","banana","kasamok,hagdan,twai,kazi","kazi","n","4","html-keyboard-response","932","n","kazi","true","",""
"1158.6000000238419","","","","","4","html-slider-response","933","","","","4",""
"1607","bonfire","mwezi,mfuko,kusanya,goti","goti","n","4","html-keyboard-response","934","n","goti","true","",""
"964.7999999523163","","","","","4","html-slider-response","935","","","","4",""
"2648","cop","bustani,jikoni,mechezo,bakus","mechezo","j","4","html-keyboard-response","936","j","mechezo","true","",""
"1139.1000000238419","","","","","4","html-slider-response","937","","","","4",""
"2542","marker","mapafu,maji,salita,atay","maji","v","4","html-keyboard-response","938","v","maji","true","",""
"1422.4000000953674","","","","","4","html-slider-response","939","","","","4",""
"3615","window","nanga,kujenga,kweli,umaga","kweli","j","4","html-keyboard-response","940","j","kweli","true","",""
"1134.0999999046326","","","","","4","html-slider-response","941","","","","2",""
"3472","body","nyundu,jibini,kununa,tindashan","tindashan","n","4","html-keyboard-response","942","n","tindashan","true","",""
"1371.6000000238419","","","","","4","html-slider-response","943","","","","2",""
"2480","apple","kisu,ukame,estante,edad","kisu","f","4","html-keyboard-response","944","f","kisu","true","",""
"1958.7999999523163","","","","","4","html-slider-response","945","","","","4",""
"2223","salmon","sensilyo,mzungu,seri,baharia","sensilyo","f","4","html-keyboard-response","946","f","sensilyo","true","",""
"1181.5999999046326","","","","","4","html-slider-response","947","","","","4",""
"4344","bed","kalipay,haraka,mapintas,starehe","mapintas","j","4","html-keyboard-response","948","j","mapintas","true","",""
"1271.1999999284744","","","","","4","html-slider-response","949","","","","2",""
"3848","berry","kofia,abogado,nogozi,kinywa","kofia","f","4","html-keyboard-response","950","f","kofia","true","",""
"1349.9000000953674","","","","","4","html-slider-response","951","","","","2",""
"2216","mirror","rangi,kanding,sulagma,furaha","sulagma","j","4","html-keyboard-response","952","j","sulagma","true","",""
"1076.1000000238419","","","","","4","html-slider-response","953","","","","4",""
"2264","flag","ndege,mkate,kawa,trekta","trekta","n","4","html-keyboard-response","954","n","trekta","true","",""
"1230.2999999523163","","","","","4","html-slider-response","955","","","","4",""
"3192","shoulder","kelele,ndaniya,mkuu,guruwe","mkuu","j","4","html-keyboard-response","956","j","mkuu","true","",""
"1351.0999999046326","","","","","4","html-slider-response","957","","","","4",""
"3392","tissue","lamigas,ugomvi,kisiwa,katika","ugomvi","v","4","html-keyboard-response","958","v","ugomvi","true","",""
"1140.3999999761581","","","","","4","html-slider-response","959","","","","4",""
"4552","notebook","kemia,msitu,kila,mdudu","kemia","f","4","html-keyboard-response","960","v","msitu","false","",""
"1555.1000000238419","","","","","4","html-slider-response","961","","","","2",""
"2951","snake","jansa,karon,mvringo,pagtukod","pagtukod","n","4","html-keyboard-response","962","n","pagtukod","true","",""
"1094.3000000715256","","","","","4","html-slider-response","963","","","","4",""
"1761","finger","moyo,simu,sufuria,lima","moyo","f","4","html-keyboard-response","964","f","moyo","true","",""
"1251.0999999046326","","","","","4","html-slider-response","965","","","","4",""
"4718","basket","kumbuka,utepe,kumba,hasira","kumba","j","4","html-keyboard-response","966","v","utepe","false","",""
"1204.5","","","","","4","html-slider-response","967","","","","2",""
"3535","curtain","lisud,mchanga,bulwawan,chubani","mchanga","v","4","html-keyboard-response","968","v","mchanga","true","",""
"1364.2999999523163","","","","","4","html-slider-response","969","","","","2",""
"3655","perfume","bino,sungura,ndogo,katuyoan","katuyoan","n","4","html-keyboard-response","970","n","katuyoan","true","",""
"1717","","","","","4","html-slider-response","971","","","","2",""
"2255","key","miaka,chombo,goma,ahos","chombo","v","4","html-keyboard-response","972","n","ahos","false","",""
"1118.7000000476837","","","","","4","html-slider-response","973","","","","2",""
"1919","olive","bata,siagi,welder,jiwe","jiwe","n","4","html-keyboard-response","974","n","jiwe","true","",""
"1462.7000000476837","","","","","4","html-slider-response","975","","","","4",""
"2135","rose","singizi,paghalad,mwanake,amani","paghalad","v","4","html-keyboard-response","976","v","paghalad","true","",""
"1078.3999999761581","","","","","4","html-slider-response","977","","","","4",""
"4047","bridge","sahani,daima,ngono,panya","sahani","f","4","html-keyboard-response","978","f","sahani","true","",""
"1020.3999999761581","","","","","4","html-slider-response","979","","","","2",""
"5879","hill","kushoto,kukimba,matumbo,sweta","matumbo","j","4","html-keyboard-response","980","j","matumbo","true","",""
"1118.2000000476837","","","","","4","html-slider-response","981","","","","4",""
"2743","letter","kifua,filimbi,chuma,uhuru","kifua","f","4","html-keyboard-response","982","f","kifua","true","",""
"1196.2000000476837","","","","","4","html-slider-response","983","","","","2",""
"3432","sock","ndoora,kimysa,mamba,mtirka","mamba","j","4","html-keyboard-response","984","j","mamba","true","",""
"1274.7999999523163","","","","","4","html-slider-response","985","","","","4",""
"4623","fork","baboy,paghago,mgonjwa,gorisi","mgonjwa","j","4","html-keyboard-response","986","n","gorisi","false","",""
"1675.2000000476837","","","","","4","html-slider-response","987","","","","2",""
"1983","box","adui,kuacha,rafiki,kitande","adui","f","4","html-keyboard-response","988","f","adui","true","",""
"1149.8000000715256","","","","","4","html-slider-response","989","","","","4",""
"2311","gift","baba,nyange,pagtawag,baso","pagtawag","j","4","html-keyboard-response","990","j","pagtawag","true","",""
"1404.1000000238419","","","","","4","html-slider-response","991","","","","2",""
"4823","bucket","baga,ijayo,init,kiatu","kiatu","n","4","html-keyboard-response","992","v","ijayo","false","",""
"1082.5","","","","","4","html-slider-response","993","","","","2",""
"3414","shop","nopya,kerida,ndezu,samaki","samaki","n","4","html-keyboard-response","994","n","samaki","true","",""
"1398.5","","","","","4","html-slider-response","995","","","","2",""
"2191","puppet","napulo,lamok,mazishi,godoro","mazishi","j","4","html-keyboard-response","996","v","lamok","false","",""
"1412.2999999523163","","","","","4","html-slider-response","997","","","","2",""
"3727","nose","gubat,sehemu,kopa,kidole","sehemu","v","4","html-keyboard-response","998","n","kidole","false","",""
"1219.7000000476837","","","","","4","html-slider-response","999","","","","2",""
"3479","music","baiski,mraba,mageho,tumbo","baiski","f","4","html-keyboard-response","1000","f","baiski","true","",""
"1332.3000000715256","","","","","4","html-slider-response","1001","","","","4",""
"2816","dog","lubi,washia,kalamu,bahari","bahari","n","4","html-keyboard-response","1002","n","bahari","true","",""
"1259.3999999761581","","","","","4","html-slider-response","1003","","","","4",""
"2521","eel","ishara,kunywa,msumari,kabuang","msumari","j","4","html-keyboard-response","1004","j","msumari","true","",""
"1116.0999999046326","","","","","4","html-slider-response","1005","","","","4",""
"2024","number","mundamo,shule,kengele,choori","mundamo","f","4","html-keyboard-response","1006","f","mundamo","true","",""
"1214.2000000476837","","","","","4","html-slider-response","1007","","","","5",""
"3184","tomato","chupi,chupa,takatak,mvua","mvua","n","4","html-keyboard-response","1008","f","chupi","false","",""
"1522.7999999523163","","","","","4","html-slider-response","1009","","","","4",""
"1719","coffin","barua,tubag,hulma,kioo","kioo","n","4","html-keyboard-response","1010","n","kioo","true","",""
"1247.3000000715256","","","","","4","html-slider-response","1011","","","","5",""
"7200","knee","duka,mvuke,kubale,bili","duka","f","4","html-keyboard-response","1012","n","bili","false","",""
"1804.5","","","","","4","html-slider-response","1013","","","","2",""
"2158","woman","bandari,pagtabon,bituin,kovuli","pagtabon","v","4","html-keyboard-response","1014","v","pagtabon","true","",""
"1623.2000000476837","","","","","4","html-slider-response","1015","","","","4",""
"2000","stone","ulimwengu,wingi,mkasi,asili","wingi","v","4","html-keyboard-response","1016","v","wingi","true","",""
"1244.8999999761581","","","","","4","html-slider-response","1017","","","","4",""
"2312","bread","kaili,dizeli,dari,bugas","dari","j","4","html-keyboard-response","1018","j","dari","true","",""
"1140","","","","","4","html-slider-response","1019","","","","4",""
"3248","triangle","kihozi,bentaha,liog,kasadpan","kasadpan","n","4","html-keyboard-response","1020","n","kasadpan","true","",""
"1228.2000000476837","","","","","4","html-slider-response","1021","","","","4",""
"4631","scissors","duga,mtawa,tanuri,suga","tanuri","j","4","html-keyboard-response","1022","j","tanuri","true","",""
"1627.7000000476837","","","","","4","html-slider-response","1023","","","","2",""
"3095","giraffe","mahitabo,daraja,jumatu,hangyo","mahitabo","f","4","html-keyboard-response","1024","f","mahitabo","true","",""
"1902.7999999523163","","","","","4","html-slider-response","1025","","","","2",""
"3313","flower","tamasha,lobo,usiku,bega","bega","n","4","html-keyboard-response","1026","n","bega","true","",""
"1316.0999999046326","","","","","4","html-slider-response","1027","","","","4",""
"5087","candle","geza,gabi,farasi,kupanda","geza","f","4","html-keyboard-response","1028","f","geza","true","",""
"1564.3999999761581","","","","","4","html-slider-response","1029","","","","4",""
"2352","mother","kahawa,mbuzi,babaye,jokofu","babaye","j","4","html-keyboard-response","1030","j","babaye","true","",""
"1244.6999999284744","","","","","4","html-slider-response","1031","","","","4",""
"2912","towel","tembo,funzi,pito,pagpalit","pagpalit","n","4","html-keyboard-response","1032","n","pagpalit","true","",""
"1230.7999999523163","","","","","4","html-slider-response","1033","","","","4",""
"2391","elephant","petye,kito,pagduol,suka","kito","v","4","html-keyboard-response","1034","v","kito","true","",""
"1741.7999999523163","","","","","4","html-slider-response","1035","","","","4",""
"4097","shelf","bungtod,kadaot,pamahaw,awit","pamahaw","j","4","html-keyboard-response","1036","j","pamahaw","true","",""
"1179.1000000238419","","","","","4","html-slider-response","1037","","","","2",""
"1864","mosquito","isda,martilyo,taras,gutom","martilyo","v","4","html-keyboard-response","1038","v","martilyo","true","",""
"1453.1999999284744","","","","","4","html-slider-response","1039","","","","4",""
"2727","column","pundok,ufagio,dila,pala","ufagio","v","4","html-keyboard-response","1040","v","ufagio","true","",""
"1190.6999999284744","","","","","4","html-slider-response","1041","","","","4",""
"3016","pants","pintal,chuki,haki,hari","haki","j","4","html-keyboard-response","1042","v","chuki","false","",""
"1356.3999999761581","","","","","4","html-slider-response","1043","","","","4",""
"4503","list","wingu,alizeti,kuzama,kaso","wingu","f","4","html-keyboard-response","1044","n","kaso","false","",""
"1516.1000000238419","","","","","4","html-slider-response","1045","","","","2",""
"3735","bank","kudhibi,tualya,silingan,ofisi","silingan","j","4","html-keyboard-response","1046","j","silingan","true","",""
"1180.2999999523163","","","","","4","html-slider-response","1047","","","","2",""
"3664","clock","kartasi,abang,mbwa,osha","mbwa","j","4","html-keyboard-response","1048","j","mbwa","true","",""
"1306.7000000476837","","","","","4","html-slider-response","1049","","","","2",""
"3151","ceiling","kugita,kawaida,maua,rayna","maua","j","4","html-keyboard-response","1050","n","rayna","false","",""
"1396","","","","","4","html-slider-response","1051","","","","2",""
"4527","train","itik,dakika,mungu,sayari","sayari","n","4","html-keyboard-response","1052","n","sayari","true","",""
"1388","","","","","4","html-slider-response","1053","","","","2",""
"2024","magazine","gundi,mchawi,kiti,bahandi","kiti","j","4","html-keyboard-response","1054","j","kiti","true","",""
"1082.3999999761581","","","","","4","html-slider-response","1055","","","","4",""
"1655","office","hazini,leso,yatima,kuna","leso","v","4","html-keyboard-response","1056","v","leso","true","",""
"1077.2999999523163","","","","","4","html-slider-response","1057","","","","4",""
"4551","wheel","punda,tawo,baadaye,bafuni","bafuni","n","4","html-keyboard-response","1058","f","punda","false","",""
"1836.3000000715256","","","","","4","html-slider-response","1059","","","","4",""
"4663","spoon","betri,pagsulod,nzuri,ngazi","pagsulod","v","4","html-keyboard-response","1060","n","ngazi","false","",""
"1508.2999999523163","","","","","4","html-slider-response","1061","","","","2",""
"2887","hammer","mekno,kitovu,layag,napakyas","napakyas","n","4","html-keyboard-response","1062","n","napakyas","true","",""
"1478.2999999523163","","","","","4","html-slider-response","1063","","","","4",""
"3447","cigar","ndugu,kuta,mlango,adhabu","adhabu","n","4","html-keyboard-response","1064","n","adhabu","true","",""
"1454.6999999284744","","","","","4","html-slider-response","1065","","","","4",""
"4135","shoe","nyeusi,hatua,uyoga,kama","uyoga","j","4","html-keyboard-response","1066","v","hatua","false","",""
"1150.8000000715256","","","","","4","html-slider-response","1067","","","","2",""
"2859","list","wingu,alizeti,kuzama,kaso","wingu","f","5","html-keyboard-response","1069","n","kaso","false","",""
"2420.600000023842","","","","","5","html-slider-response","1070","","","","2",""
"3095","number","shule,kengele,mundamo,choori","mundamo","j","5","html-keyboard-response","1071","j","mundamo","true","",""
"1494.8000000715256","","","","","5","html-slider-response","1072","","","","4",""
"2960","apple","kisu,ukame,estante,edad","kisu","f","5","html-keyboard-response","1073","f","kisu","true","",""
"1196.3999999761581","","","","","5","html-slider-response","1074","","","","4",""
"3687","knee","mvuke,kubale,duka,bili","duka","j","5","html-keyboard-response","1075","n","bili","false","",""
"2020.3999999761581","","","","","5","html-slider-response","1076","","","","2",""
"2519","tooth","kijiko,kabalaka,uadui,pahiyum","kabalaka","v","5","html-keyboard-response","1077","v","kabalaka","true","",""
"1219.7999999523163","","","","","5","html-slider-response","1078","","","","5",""
"3584","berry","abogado,kofia,nogozi,kinywa","kofia","v","5","html-keyboard-response","1079","v","kofia","true","",""
"989.7000000476837","","","","","5","html-slider-response","1080","","","","2",""
"5544","bridge","daima,ngono,panya,sahani","sahani","n","5","html-keyboard-response","1081","n","sahani","true","",""
"1204.1000000238419","","","","","5","html-slider-response","1082","","","","2",""
"2616","perfume","katuyoan,bino,sungura,ndogo","katuyoan","f","5","html-keyboard-response","1083","f","katuyoan","true","",""
"1149.8999999761581","","","","","5","html-slider-response","1084","","","","2",""
"2376","ladder","pangalan,mashua,mwanga,kamba","pangalan","f","5","html-keyboard-response","1085","f","pangalan","true","",""
"1053.3999999761581","","","","","5","html-slider-response","1086","","","","4",""
"1673","pants","pintal,chuki,hari,haki","haki","n","5","html-keyboard-response","1087","v","chuki","false","",""
"1203","","","","","5","html-slider-response","1088","","","","5",""
"1832","salmon","mzungu,seri,sensilyo,baharia","sensilyo","j","5","html-keyboard-response","1089","j","sensilyo","true","",""
"1365.1000000238419","","","","","5","html-slider-response","1090","","","","5",""
"1585","coffin","barua,tubag,kioo,hulma","kioo","j","5","html-keyboard-response","1091","j","kioo","true","",""
"1332.6000000238419","","","","","5","html-slider-response","1092","","","","5",""
"2327","park","tambok,pwani,bunifu,ihalas","bunifu","j","5","html-keyboard-response","1093","j","bunifu","true","",""
"1155.5","","","","","5","html-slider-response","1094","","","","5",""
"3168","giraffe","mahitabo,daraja,jumatu,hangyo","mahitabo","f","5","html-keyboard-response","1095","f","mahitabo","true","",""
"1212","","","","","5","html-slider-response","1096","","","","4",""
"1839","mirror","sulagma,rangi,kanding,furaha","sulagma","f","5","html-keyboard-response","1097","f","sulagma","true","",""
"1334.3000000715256","","","","","5","html-slider-response","1098","","","","5",""
"1807","ceiling","kugita,maua,kawaida,rayna","maua","v","5","html-keyboard-response","1099","n","rayna","false","",""
"1350.5999999046326","","","","","5","html-slider-response","1100","","","","2",""
"2712","marker","mapafu,maji,salita,atay","maji","v","5","html-keyboard-response","1101","v","maji","true","",""
"1012.2000000476837","","","","","5","html-slider-response","1102","","","","4",""
"2319","sock","ndoora,kimysa,mamba,mtirka","mamba","j","5","html-keyboard-response","1103","j","mamba","true","",""
"1676.2999999523163","","","","","5","html-slider-response","1104","","","","5",""
"1553","cop","bustani,mechezo,jikoni,bakus","mechezo","v","5","html-keyboard-response","1105","v","mechezo","true","",""
"1460.7999999523163","","","","","5","html-slider-response","1106","","","","5",""
"2960","gift","baba,nyange,pagtawag,baso","pagtawag","j","5","html-keyboard-response","1107","j","pagtawag","true","",""
"1195.1000000238419","","","","","5","html-slider-response","1108","","","","2",""
"3863","notebook","kemia,msitu,kila,mdudu","kemia","f","5","html-keyboard-response","1109","j","kila","false","",""
"1043.6000000238419","","","","","5","html-slider-response","1110","","","","2",""
"2879","bank","silingan,kudhibi,tualya,ofisi","silingan","f","5","html-keyboard-response","1111","f","silingan","true","",""
"1268.1000000238419","","","","","5","html-slider-response","1112","","","","4",""
"3216","letter","filimbi,kifua,chuma,uhuru","kifua","v","5","html-keyboard-response","1113","v","kifua","true","",""
"1035.5","","","","","5","html-slider-response","1114","","","","2",""
"1968","candle","geza,gabi,farasi,kupanda","geza","f","5","html-keyboard-response","1115","f","geza","true","",""
"1582.6000000238419","","","","","5","html-slider-response","1116","","","","4",""
"1936","bread","dari,kaili,dizeli,bugas","dari","f","5","html-keyboard-response","1117","f","dari","true","",""
"1309.1000000238419","","","","","5","html-slider-response","1118","","","","5",""
"3304","snake","jansa,pagtukod,karon,mvringo","pagtukod","v","5","html-keyboard-response","1119","v","pagtukod","true","",""
"1132.1999999284744","","","","","5","html-slider-response","1120","","","","4",""
"1656","rose","singizi,mwanake,paghalad,amani","paghalad","j","5","html-keyboard-response","1121","j","paghalad","true","",""
"1390.3000000715256","","","","","5","html-slider-response","1122","","","","5",""
"2480","hill","kushoto,kukimba,matumbo,sweta","matumbo","j","5","html-keyboard-response","1123","j","matumbo","true","",""
"1574","","","","","5","html-slider-response","1124","","","","4",""
"3543","train","sayari,itik,dakika,mungu","sayari","f","5","html-keyboard-response","1125","f","sayari","true","",""
"1804.6000000238419","","","","","5","html-slider-response","1126","","","","2",""
"4504","shop","nopya,kerida,ndezu,samaki","samaki","n","5","html-keyboard-response","1127","v","kerida","false","",""
"1427.6000000238419","","","","","5","html-slider-response","1128","","","","2",""
"3775","nose","sehemu,gubat,kopa,kidole","sehemu","f","5","html-keyboard-response","1129","n","kidole","false","",""
"1180.5","","","","","5","html-slider-response","1130","","","","2",""
"1968","boat","hamsi,agalon,pombe,kitanda","agalon","v","5","html-keyboard-response","1131","v","agalon","true","",""
"1401.7000000476837","","","","","5","html-slider-response","1132","","","","4",""
"2991","body","nyundu,jibini,kununa,tindashan","tindashan","n","5","html-keyboard-response","1133","n","tindashan","true","",""
"1108.1000000238419","","","","","5","html-slider-response","1134","","","","2",""
"3583","bed","mapintas,kalipay,haraka,starehe","mapintas","f","5","html-keyboard-response","1135","v","kalipay","false","",""
"1396.6000000238419","","","","","5","html-slider-response","1136","","","","2",""
"1688","squirrel","mahugaw,ukweli,kichwa,hofu","hofu","n","5","html-keyboard-response","1137","n","hofu","true","",""
"1300.6000000238419","","","","","5","html-slider-response","1138","","","","4",""
"3439","window","nanga,kujenga,kweli,umaga","kweli","j","5","html-keyboard-response","1139","v","kujenga","false","",""
"1190.2999999523163","","","","","5","html-slider-response","1140","","","","2",""
"2127","bonfire","mwezi,mfuko,goti,kusanya","goti","j","5","html-keyboard-response","1141","j","goti","true","",""
"1070.3999999761581","","","","","5","html-slider-response","1142","","","","5",""
"2096","fish","buli,bala,baho,imani","buli","f","5","html-keyboard-response","1143","f","buli","true","",""
"1164.6000000238419","","","","","5","html-slider-response","1144","","","","2",""
"2392","cat","paghukom,neyemba,baki,akili","paghukom","f","5","html-keyboard-response","1145","f","paghukom","true","",""
"1100","","","","","5","html-slider-response","1146","","","","4",""
"4423","spider","kamwe,bunyag,mkboa,atop","kamwe","f","5","html-keyboard-response","1147","f","kamwe","true","",""
"1190.1000000238419","","","","","5","html-slider-response","1148","","","","2",""
"2696","eel","ishara,kunywa,msumari,kabuang","msumari","j","5","html-keyboard-response","1149","j","msumari","true","",""
"2084.2000000476837","","","","","5","html-slider-response","1150","","","","4",""
"1896","woman","pagtabon,bandari,bituin,kovuli","pagtabon","f","5","html-keyboard-response","1151","f","pagtabon","true","",""
"1523.2999999523163","","","","","5","html-slider-response","1152","","","","5",""
"1416","magazine","gundi,kiti,mchawi,bahandi","kiti","v","5","html-keyboard-response","1153","v","kiti","true","",""
"1268.2999999523163","","","","","5","html-slider-response","1154","","","","5",""
"3488","pudding","aibu,abug,mpishi,iring","aibu","f","5","html-keyboard-response","1155","f","aibu","true","",""
"1164.1999999284744","","","","","5","html-slider-response","1156","","","","2",""
"1665","lamp","daub,bilaska,afya,mbolea","afya","j","5","html-keyboard-response","1157","j","afya","true","",""
"1283.2999999523163","","","","","5","html-slider-response","1158","","","","4",""
"3087","cave","ganti,maisha,nyundo,kesho","kesho","n","5","html-keyboard-response","1159","n","kesho","true","",""
"1308.1000000238419","","","","","5","html-slider-response","1160","","","","4",""
"1920","shoulder","kelele,mkuu,ndaniya,guruwe","mkuu","v","5","html-keyboard-response","1161","v","mkuu","true","",""
"1331.5","","","","","5","html-slider-response","1162","","","","4",""
"1575","stone","ulimwengu,wingi,mkasi,asili","wingi","v","5","html-keyboard-response","1163","v","wingi","true","",""
"1180.8999999761581","","","","","5","html-slider-response","1164","","","","4",""
"1934","column","pundok,dila,ufagio,pala","ufagio","j","5","html-keyboard-response","1165","j","ufagio","true","",""
"1093.2999999523163","","","","","5","html-slider-response","1166","","","","4",""
"5080","page","wakala,ishiri,skina,wimbo","wimbo","n","5","html-keyboard-response","1167","n","wimbo","true","",""
"1691.1000000238419","","","","","5","html-slider-response","1168","","","","2",""
"3111","shoe","nyeusi,uyoga,hatua,kama","uyoga","v","5","html-keyboard-response","1169","j","hatua","false","",""
"1148.0999999046326","","","","","5","html-slider-response","1170","","","","2",""
"3311","clock","mbwa,kartasi,abang,osha","mbwa","f","5","html-keyboard-response","1171","j","abang","false","",""
"1330.8999999761581","","","","","5","html-slider-response","1172","","","","2",""
"1967","towel","tembo,funzi,pito,pagpalit","pagpalit","n","5","html-keyboard-response","1173","n","pagpalit","true","",""
"1565.2999999523163","","","","","5","html-slider-response","1174","","","","4",""
"2183","tomato","mvua,chupi,chupa,takatak","mvua","f","5","html-keyboard-response","1175","v","chupi","false","",""
"1220.8000000715256","","","","","5","html-slider-response","1176","","","","4",""
"5272","bucket","baga,ijayo,init,kiatu","kiatu","n","5","html-keyboard-response","1177","v","ijayo","false","",""
"1396.2999999523163","","","","","5","html-slider-response","1178","","","","2",""
"1695","finger","simu,sufuria,lima,moyo","moyo","n","5","html-keyboard-response","1179","n","moyo","true","",""
"1023.0999999046326","","","","","5","html-slider-response","1180","","","","4",""
"1655","mother","kahawa,mbuzi,babaye,jokofu","babaye","j","5","html-keyboard-response","1181","j","babaye","true","",""
"1149.2999999523163","","","","","5","html-slider-response","1182","","","","4",""
"2735","human","tinapay,bado,kikapu,punguza","tinapay","f","5","html-keyboard-response","1183","f","tinapay","true","",""
"1331.7999999523163","","","","","5","html-slider-response","1184","","","","4",""
"2209","sun","bendi,luha,uongo,basi","basi","n","5","html-keyboard-response","1185","n","basi","true","",""
"1290.3999999761581","","","","","5","html-slider-response","1186","","","","4",""
"2743","fork","baboy,mgonjwa,paghago,gorisi","mgonjwa","v","5","html-keyboard-response","1187","v","mgonjwa","true","",""
"1142.3000000715256","","","","","5","html-slider-response","1188","","","","2",""
"2208","donkey","bloke,elfu,lalake,rombus","elfu","v","5","html-keyboard-response","1189","v","elfu","true","",""
"1058.6999999284744","","","","","5","html-slider-response","1190","","","","4",""
"1807","wolf","kaburi,ndizi,lugha,mchuzi","lugha","j","5","html-keyboard-response","1191","j","lugha","true","",""
"1375.0999999046326","","","","","5","html-slider-response","1192","","","","4",""
"3001","cigar","adhabu,ndugu,kuta,mlango","adhabu","f","5","html-keyboard-response","1193","f","adhabu","true","",""
"1090.8999999761581","","","","","5","html-slider-response","1194","","","","4",""
"1552","olive","bata,siagi,jiwe,welder","jiwe","j","5","html-keyboard-response","1195","j","jiwe","true","",""
"1124.9000000953674","","","","","5","html-slider-response","1196","","","","4",""
"2223","key","chombo,miaka,goma,ahos","chombo","f","5","html-keyboard-response","1197","n","ahos","false","",""
"1644.6000000238419","","","","","5","html-slider-response","1198","","","","2",""
"5281","door","tena,surali,soko,nyota","surali","v","5","html-keyboard-response","1199","f","tena","false","",""
"1643.1999999284744","","","","","5","html-slider-response","1200","","","","2",""
"2311","wheel","punda,bafuni,tawo,baadaye","bafuni","v","5","html-keyboard-response","1201","f","punda","false","",""
"1220.8999999761581","","","","","5","html-slider-response","1202","","","","4",""
"1688","basket","kumbuka,utepe,kumba,hasira","kumba","j","5","html-keyboard-response","1203","v","utepe","false","",""
"1498.3999999761581","","","","","5","html-slider-response","1204","","","","4",""
"1935","elephant","petye,kito,pagduol,suka","kito","v","5","html-keyboard-response","1205","v","kito","true","",""
"1302.6000000238419","","","","","5","html-slider-response","1206","","","","5",""
"1495","office","hazini,yatima,kuna,leso","leso","n","5","html-keyboard-response","1207","n","leso","true","",""
"1119","","","","","5","html-slider-response","1208","","","","5",""
"1743","music","mraba,baiski,mageho,tumbo","baiski","v","5","html-keyboard-response","1209","v","baiski","true","",""
"1118.3999999761581","","","","","5","html-slider-response","1210","","","","5",""
"1783","tissue","lamigas,kisiwa,katika,ugomvi","ugomvi","n","5","html-keyboard-response","1211","n","ugomvi","true","",""
"1046.7999999523163","","","","","5","html-slider-response","1212","","","","4",""
"2648","curtain","lisud,bulwawan,mchanga,chubani","mchanga","j","5","html-keyboard-response","1213","f","lisud","false","",""
"1219.4000000953674","","","","","5","html-slider-response","1214","","","","2",""
"1488","flag","ndege,mkate,kawa,trekta","trekta","n","5","html-keyboard-response","1215","n","trekta","true","",""
"972.3000000715256","","","","","5","html-slider-response","1216","","","","4",""
"1864","dog","lubi,washia,bahari,kalamu","bahari","j","5","html-keyboard-response","1217","j","bahari","true","",""
"1020.5999999046326","","","","","5","html-slider-response","1218","","","","4",""
"1687","cup","dagat,shimoni,matumai,jeraha","matumai","j","5","html-keyboard-response","1219","j","matumai","true","",""
"1307.8000000715256","","","","","5","html-slider-response","1220","","","","4",""
"1672","sheet","bililhon,juuya,watu,kamantis","bililhon","f","5","html-keyboard-response","1221","f","bililhon","true","",""
"1070","","","","","5","html-slider-response","1222","","","","4",""
"2871","spoon","betri,pagsulod,nzuri,ngazi","pagsulod","v","5","html-keyboard-response","1223","v","pagsulod","true","",""
"998.6000000238419","","","","","5","html-slider-response","1224","","","","2",""
"2215","flower","tamasha,lobo,bega,usiku","bega","j","5","html-keyboard-response","1225","j","bega","true","",""
"1029.6000000238419","","","","","5","html-slider-response","1226","","","","4",""
"1856","picture","kubwa,silya,chaki,asin","kubwa","f","5","html-keyboard-response","1227","f","kubwa","true","",""
"1004.3000000715256","","","","","5","html-slider-response","1228","","","","4",""
"1647","puppet","napulo,lamok,godoro,mazishi","mazishi","n","5","html-keyboard-response","1229","v","lamok","false","",""
"1110.5","","","","","5","html-slider-response","1230","","","","2",""
"1624","banana","kasamok,hagdan,twai,kazi","kazi","n","5","html-keyboard-response","1231","n","kazi","true","",""
"1013.8000000715256","","","","","5","html-slider-response","1232","","","","4",""
"3793","book","kuhesa,picha,mara,mali","mali","n","5","html-keyboard-response","1233","n","mali","true","",""
"1395.1999999284744","","","","","5","html-slider-response","1234","","","","2",""
"2200","triangle","kasadpan,kihozi,bentaha,liog","kasadpan","f","5","html-keyboard-response","1235","f","kasadpan","true","",""
"1467.1000000238419","","","","","5","html-slider-response","1236","","","","4",""
"3209","poster","nchi,fedha,madungog,kasuko","madungog","j","5","html-keyboard-response","1237","n","kasuko","false","",""
"933.1000000238419","","","","","5","html-slider-response","1238","","","","2",""
"1416","box","kuacha,rafiki,kitande,adui","adui","n","5","html-keyboard-response","1239","n","adui","true","",""
"1155.3999999761581","","","","","5","html-slider-response","1240","","","","4",""
"1504","mosquito","isda,martilyo,taras,gutom","martilyo","v","5","html-keyboard-response","1241","v","martilyo","true","",""
"1509.7000000476837","","","","","5","html-slider-response","1242","","","","4",""
"2305","shelf","pamahaw,bungtod,kadaot,awit","pamahaw","f","5","html-keyboard-response","1243","v","bungtod","false","",""
"1139.7000000476837","","","","","5","html-slider-response","1244","","","","2",""
"2624","scissors","duga,mtawa,suga,tanuri","tanuri","n","5","html-keyboard-response","1245","n","tanuri","true","",""
"1172.3999999761581","","","","","5","html-slider-response","1246","","","","2",""
"3928","hammer","mekno,kitovu,layag,napakyas","napakyas","n","5","html-keyboard-response","1247","n","napakyas","true","",""
"1188.8999999761581","","","","","5","html-slider-response","1248","","","","4",""
