"rt","en_word","options","swa_word","correct_answer","phase","trial_type","trial_index","input_answer","input_word","accuracy","certainty","amt_choices"
"4730","bonfire","mwezi,goti,mfuko,kusanya","goti","v","2","html-keyboard-response","106","v","goti","true","",""
"2103","","","","","2","html-slider-response","107","","","","1",""
"4678","flower","tamasha,lobo,bega,usiku","bega","j","2","html-keyboard-response","108","j","bega","true","",""
"2300.800000011921","","","","","2","html-slider-response","109","","","","2",""
"3065","column","pundok,dila,ufagio,pala","ufagio","j","2","html-keyboard-response","110","f","pundok","false","",""
"2064.800000011921","","","","","2","html-slider-response","111","","","","2",""
"3956","music","mraba,baiski,mageho,tumbo","baiski","v","2","html-keyboard-response","112","v","baiski","true","",""
"1981.300000011921","","","","","2","html-slider-response","113","","","","2",""
"4376","spider","bunyag,mkboa,atop,kamwe","kamwe","n","2","html-keyboard-response","114","n","kamwe","true","",""
"1924.2999999970198","","","","","2","html-slider-response","115","","","","4",""
"3189","fork","baboy,paghago,mgonjwa,gorisi","mgonjwa","j","2","html-keyboard-response","116","j","mgonjwa","true","",""
"4613.20000000298","","","","","2","html-slider-response","117","","","","2",""
"1927","mosquito","isda,taras,gutom,martilyo","martilyo","n","2","html-keyboard-response","118","n","martilyo","true","",""
"2928.2999999970198","","","","","2","html-slider-response","119","","","","5",""
"3260","banana","kasamok,kazi,hagdan,twai","kazi","v","2","html-keyboard-response","120","f","kasamok","false","",""
"1985.1000000089407","","","","","2","html-slider-response","121","","","","4",""
"4572","cup","matumai,dagat,shimoni,jeraha","matumai","f","2","html-keyboard-response","122","f","matumai","true","",""
"1772.199999988079","","","","","2","html-slider-response","123","","","","2",""
"5145","shop","nopya,kerida,samaki,ndezu","samaki","j","2","html-keyboard-response","124","n","ndezu","false","",""
"2681","","","","","2","html-slider-response","125","","","","2",""
"3324","elephant","petye,pagduol,suka,kito","kito","n","2","html-keyboard-response","126","n","kito","true","",""
"2152.6000000089407","","","","","2","html-slider-response","127","","","","4",""
"5621","bucket","baga,ijayo,init,kiatu","kiatu","n","2","html-keyboard-response","128","f","baga","false","",""
"4539.199999988079","","","","","2","html-slider-response","129","","","","3",""
"3418","book","kuhesa,picha,mali,mara","mali","j","2","html-keyboard-response","130","j","mali","true","",""
"4565.0999999940395","","","","","2","html-slider-response","131","","","","3",""
"3448","mirror","rangi,kanding,furaha,sulagma","sulagma","n","2","html-keyboard-response","132","n","sulagma","true","",""
"2169.2999999970198","","","","","2","html-slider-response","133","","","","2",""
"3628","office","hazini,yatima,leso,kuna","leso","j","2","html-keyboard-response","134","j","leso","true","",""
"2543.2999999970198","","","","","2","html-slider-response","135","","","","3",""
"3060","body","nyundu,jibini,tindashan,kununa","tindashan","j","2","html-keyboard-response","136","f","nyundu","false","",""
"1765.1000000089407","","","","","2","html-slider-response","137","","","","2",""
"2457","perfume","bino,sungura,katuyoan,ndogo","katuyoan","j","2","html-keyboard-response","138","v","sungura","false","",""
"3167.0999999940395","","","","","2","html-slider-response","139","","","","3",""
"5031","olive","bata,jiwe,siagi,welder","jiwe","v","2","html-keyboard-response","140","v","jiwe","true","",""
"2051","","","","","2","html-slider-response","141","","","","3",""
"2659","magazine","gundi,mchawi,bahandi,kiti","kiti","n","2","html-keyboard-response","142","j","bahandi","false","",""
"2110.4000000059605","","","","","2","html-slider-response","143","","","","2",""
"4638","bread","kaili,dizeli,bugas,dari","dari","n","2","html-keyboard-response","144","n","dari","true","",""
"3257","","","","","2","html-slider-response","145","","","","5",""
"4293","cave","ganti,kesho,maisha,nyundo","kesho","v","2","html-keyboard-response","146","v","kesho","true","",""
"1800.7000000029802","","","","","2","html-slider-response","147","","","","4",""
"2564","ladder","mashua,mwanga,pangalan,kamba","pangalan","j","2","html-keyboard-response","148","v","mwanga","false","",""
"4252.70000000298","","","","","2","html-slider-response","149","","","","4",""
"5674","human","bado,tinapay,kikapu,punguza","tinapay","v","2","html-keyboard-response","150","n","punguza","false","",""
"1486.5","","","","","2","html-slider-response","151","","","","2",""
"4006","clock","kartasi,abang,mbwa,osha","mbwa","j","2","html-keyboard-response","152","f","kartasi","false","",""
"2059.2000000029802","","","","","2","html-slider-response","153","","","","2",""
"3170","shelf","bungtod,pamahaw,kadaot,awit","pamahaw","v","2","html-keyboard-response","154","v","pamahaw","true","",""
"1724.7999999970198","","","","","2","html-slider-response","155","","","","1",""
"2462","salmon","mzungu,sensilyo,seri,baharia","sensilyo","v","2","html-keyboard-response","156","v","sensilyo","true","",""
"1614.7000000029802","","","","","2","html-slider-response","157","","","","5",""
"2054","coffin","kioo,barua,tubag,hulma","kioo","f","2","html-keyboard-response","158","f","kioo","true","",""
"1575.2000000029802","","","","","2","html-slider-response","159","","","","5",""
"3142","notebook","msitu,kemia,kila,mdudu","kemia","v","2","html-keyboard-response","160","v","kemia","true","",""
"1610.5","","","","","2","html-slider-response","161","","","","2",""
"3851","shoulder","mkuu,kelele,ndaniya,guruwe","mkuu","f","2","html-keyboard-response","162","n","guruwe","false","",""
"2163","","","","","2","html-slider-response","163","","","","4",""
"2683","park","bunifu,tambok,pwani,ihalas","bunifu","f","2","html-keyboard-response","164","v","tambok","false","",""
"2588.8999999910593","","","","","2","html-slider-response","165","","","","2",""
"3808","number","shule,kengele,mundamo,choori","mundamo","j","2","html-keyboard-response","166","f","shule","false","",""
"1147.2000000029802","","","","","2","html-slider-response","167","","","","2",""
"3259","apple","kisu,ukame,estante,edad","kisu","f","2","html-keyboard-response","168","n","edad","false","",""
"1704.9000000059605","","","","","2","html-slider-response","169","","","","2",""
"3364","letter","filimbi,kifua,chuma,uhuru","kifua","v","2","html-keyboard-response","170","j","chuma","false","",""
"1549.2999999970198","","","","","2","html-slider-response","171","","","","2",""
"4009","eel","msumari,ishara,kunywa,kabuang","msumari","f","2","html-keyboard-response","172","f","msumari","true","",""
"3456.2999999970198","","","","","2","html-slider-response","173","","","","3",""
"2677","cop","mechezo,bustani,jikoni,bakus","mechezo","f","2","html-keyboard-response","174","n","bakus","false","",""
"2614.8999999910593","","","","","2","html-slider-response","175","","","","3",""
"3399","wolf","kaburi,lugha,ndizi,mchuzi","lugha","v","2","html-keyboard-response","176","f","kaburi","false","",""
"1328.6000000089407","","","","","2","html-slider-response","177","","","","4",""
"2357","squirrel","mahugaw,ukweli,kichwa,hofu","hofu","n","2","html-keyboard-response","178","f","mahugaw","false","",""
"2125","","","","","2","html-slider-response","179","","","","3",""
"4102","nose","gubat,kopa,kidole,sehemu","sehemu","n","2","html-keyboard-response","180","v","kopa","false","",""
"2016.9000000059605","","","","","2","html-slider-response","181","","","","3",""
"2085","sock","mamba,ndoora,kimysa,mtirka","mamba","f","2","html-keyboard-response","182","f","mamba","true","",""
"1337.2999999970198","","","","","2","html-slider-response","183","","","","5",""
"2252","bank","kudhibi,silingan,tualya,ofisi","silingan","v","2","html-keyboard-response","184","n","ofisi","false","",""
"1506.9000000059605","","","","","2","html-slider-response","185","","","","2",""
"2067","donkey","bloke,elfu,lalake,rombus","elfu","v","2","html-keyboard-response","186","v","elfu","true","",""
"1354.2000000029802","","","","","2","html-slider-response","187","","","","5",""
"2875","poster","nchi,fedha,kasuko,madungog","madungog","n","2","html-keyboard-response","188","j","kasuko","false","",""
"1909.199999988079","","","","","2","html-slider-response","189","","","","2",""
"3625","puppet","napulo,lamok,mazishi,godoro","mazishi","j","2","html-keyboard-response","190","v","lamok","false","",""
"1706.699999988079","","","","","2","html-slider-response","191","","","","2",""
"1818","hill","kushoto,kukimba,sweta,matumbo","matumbo","n","2","html-keyboard-response","192","n","matumbo","true","",""
"1695.5","","","","","2","html-slider-response","193","","","","5",""
"5318","tooth","kabalaka,kijiko,uadui,pahiyum","kabalaka","f","2","html-keyboard-response","194","f","kabalaka","true","",""
"2615.0999999940395","","","","","2","html-slider-response","195","","","","3",""
"3918","woman","bandari,bituin,pagtabon,kovuli","pagtabon","j","2","html-keyboard-response","196","j","pagtabon","true","",""
"2209.2999999970198","","","","","2","html-slider-response","197","","","","3",""
"3676","wheel","punda,bafuni,tawo,baadaye","bafuni","v","2","html-keyboard-response","198","n","baadaye","false","",""
"1662.3999999910593","","","","","2","html-slider-response","199","","","","2",""
"2391","mother","kahawa,mbuzi,jokofu,babaye","babaye","n","2","html-keyboard-response","200","n","babaye","true","",""
"1351.5","","","","","2","html-slider-response","201","","","","5",""
"2367","bed","kalipay,mapintas,haraka,starehe","mapintas","v","2","html-keyboard-response","202","j","haraka","false","",""
"1527","","","","","2","html-slider-response","203","","","","2",""
"2503","key","miaka,goma,chombo,ahos","chombo","j","2","html-keyboard-response","204","v","goma","false","",""
"3424.8999999910593","","","","","2","html-slider-response","205","","","","2",""
"2914","page","wakala,ishiri,wimbo,skina","wimbo","j","2","html-keyboard-response","206","f","wakala","false","",""
"1957.0999999940395","","","","","2","html-slider-response","207","","","","2",""
"2896","pants","pintal,chuki,hari,haki","haki","n","2","html-keyboard-response","208","n","haki","true","",""
"1921.5","","","","","2","html-slider-response","209","","","","2",""
"2139","sun","bendi,luha,basi,uongo","basi","j","2","html-keyboard-response","210","f","bendi","false","",""
"1251.0999999940395","","","","","2","html-slider-response","211","","","","2",""
"3555","finger","simu,moyo,sufuria,lima","moyo","v","2","html-keyboard-response","212","n","lima","false","",""
"1737.0999999940395","","","","","2","html-slider-response","213","","","","2",""
"4181","shoe","nyeusi,uyoga,hatua,kama","uyoga","v","2","html-keyboard-response","214","n","kama","false","",""
"1986.7000000029802","","","","","2","html-slider-response","215","","","","3",""
"4643","giraffe","daraja,jumatu,hangyo,mahitabo","mahitabo","n","2","html-keyboard-response","216","n","mahitabo","true","",""
"1818.5","","","","","2","html-slider-response","217","","","","3",""
"3554","dog","lubi,bahari,washia,kalamu","bahari","v","2","html-keyboard-response","218","n","kalamu","false","",""
"2062.7000000029802","","","","","2","html-slider-response","219","","","","3",""
"4016","box","adui,kuacha,rafiki,kitande","adui","f","2","html-keyboard-response","220","f","adui","true","",""
"1124.2999999970198","","","","","2","html-slider-response","221","","","","2",""
"2609","scissors","duga,mtawa,suga,tanuri","tanuri","n","2","html-keyboard-response","222","n","tanuri","true","",""
"1483.2999999970198","","","","","2","html-slider-response","223","","","","2",""
"3747","cat","neyemba,baki,paghukom,akili","paghukom","j","2","html-keyboard-response","224","j","paghukom","true","",""
"1408.9000000059605","","","","","2","html-slider-response","225","","","","4",""
"5189","basket","kumbuka,utepe,hasira,kumba","kumba","n","2","html-keyboard-response","226","n","kumba","true","",""
"1531.2999999970198","","","","","2","html-slider-response","227","","","","2",""
"4952","snake","pagtukod,jansa,karon,mvringo","pagtukod","f","2","html-keyboard-response","228","f","pagtukod","true","",""
"5546.70000000298","","","","","2","html-slider-response","229","","","","3",""
"3434","gift","baba,pagtawag,nyange,baso","pagtawag","v","2","html-keyboard-response","230","v","pagtawag","true","",""
"1497.300000011921","","","","","2","html-slider-response","231","","","","2",""
"2420","train","itik,sayari,dakika,mungu","sayari","v","2","html-keyboard-response","232","f","itik","false","",""
"2761.0999999940395","","","","","2","html-slider-response","233","","","","2",""
"4668","pudding","abug,aibu,mpishi,iring","aibu","v","2","html-keyboard-response","234","v","aibu","true","",""
"1374.8999999910593","","","","","2","html-slider-response","235","","","","1",""
"3975","tomato","chupi,chupa,mvua,takatak","mvua","j","2","html-keyboard-response","236","n","takatak","false","",""
"1477","","","","","2","html-slider-response","237","","","","2",""
"4081","stone","wingi,ulimwengu,mkasi,asili","wingi","f","2","html-keyboard-response","238","f","wingi","true","",""
"1173.199999988079","","","","","2","html-slider-response","239","","","","1",""
"2087","hammer","mekno,napakyas,kitovu,layag","napakyas","v","2","html-keyboard-response","240","v","napakyas","true","",""
"1591.0999999940395","","","","","2","html-slider-response","241","","","","1",""
"4750","knee","duka,mvuke,kubale,bili","duka","f","2","html-keyboard-response","242","f","duka","true","",""
"1590.8999999910593","","","","","2","html-slider-response","243","","","","2",""
"3678","ceiling","kugita,maua,kawaida,rayna","maua","v","2","html-keyboard-response","244","v","maua","true","",""
"2390.9000000059605","","","","","2","html-slider-response","245","","","","2",""
"3383","spoon","betri,pagsulod,nzuri,ngazi","pagsulod","v","2","html-keyboard-response","246","n","ngazi","false","",""
"1441","","","","","2","html-slider-response","247","","","","2",""
"2380","marker","mapafu,salita,maji,atay","maji","j","2","html-keyboard-response","248","v","salita","false","",""
"1745.0999999940395","","","","","2","html-slider-response","249","","","","2",""
"2564","candle","gabi,farasi,kupanda,geza","geza","n","2","html-keyboard-response","250","n","geza","true","",""
"1341.5","","","","","2","html-slider-response","251","","","","2",""
"5400","tissue","lamigas,kisiwa,ugomvi,katika","ugomvi","j","2","html-keyboard-response","252","j","ugomvi","true","",""
"2084.2999999970198","","","","","2","html-slider-response","253","","","","1",""
"3601","bridge","daima,sahani,ngono,panya","sahani","v","2","html-keyboard-response","254","n","panya","false","",""
"1583.4000000059605","","","","","2","html-slider-response","255","","","","1",""
"6207","berry","abogado,nogozi,kofia,kinywa","kofia","j","2","html-keyboard-response","256","j","kofia","true","",""
"2438.1000000089407","","","","","2","html-slider-response","257","","","","3",""
"5222","triangle","kasadpan,kihozi,bentaha,liog","kasadpan","f","2","html-keyboard-response","258","v","kihozi","false","",""
"1194.7999999970198","","","","","2","html-slider-response","259","","","","2",""
"3562","door","tena,soko,nyota,surali","surali","n","2","html-keyboard-response","260","f","tena","false","",""
"2222.7000000029802","","","","","2","html-slider-response","261","","","","1",""
"3694","fish","bala,baho,buli,imani","buli","j","2","html-keyboard-response","262","j","buli","true","",""
"1918.9000000059605","","","","","2","html-slider-response","263","","","","2",""
"2240","curtain","mchanga,lisud,bulwawan,chubani","mchanga","f","2","html-keyboard-response","264","f","mchanga","true","",""
"1724.2000000029802","","","","","2","html-slider-response","265","","","","2",""
"2057","flag","ndege,mkate,trekta,kawa","trekta","j","2","html-keyboard-response","266","j","trekta","true","",""
"2059.2000000029802","","","","","2","html-slider-response","267","","","","2",""
"2362","boat","hamsi,pombe,kitanda,agalon","agalon","n","2","html-keyboard-response","268","n","agalon","true","",""
"1449.4000000059605","","","","","2","html-slider-response","269","","","","2",""
"3652","rose","paghalad,singizi,mwanake,amani","paghalad","f","2","html-keyboard-response","270","f","paghalad","true","",""
"1344.3999999910593","","","","","2","html-slider-response","271","","","","4",""
"3946","lamp","daub,bilaska,afya,mbolea","afya","j","2","html-keyboard-response","272","j","afya","true","",""
"1970.800000011921","","","","","2","html-slider-response","273","","","","3",""
"2914","cigar","ndugu,kuta,adhabu,mlango","adhabu","j","2","html-keyboard-response","274","n","mlango","false","",""
"1222.7000000029802","","","","","2","html-slider-response","275","","","","2",""
"2231","list","alizeti,kuzama,kaso,wingu","wingu","n","2","html-keyboard-response","276","j","kaso","false","",""
"2054.8999999910593","","","","","2","html-slider-response","277","","","","2",""
"2767","sheet","bililhon,juuya,watu,kamantis","bililhon","f","2","html-keyboard-response","278","v","juuya","false","",""
"1421.2999999970198","","","","","2","html-slider-response","279","","","","1",""
"2433","picture","silya,chaki,asin,kubwa","kubwa","n","2","html-keyboard-response","280","n","kubwa","true","",""
"1750.7000000029802","","","","","2","html-slider-response","281","","","","1",""
"2838","towel","pagpalit,tembo,funzi,pito","pagpalit","f","2","html-keyboard-response","282","j","funzi","false","",""
"1470.8999999910593","","","","","2","html-slider-response","283","","","","1",""
"3110","window","nanga,kujenga,umaga,kweli","kweli","n","2","html-keyboard-response","284","n","kweli","true","",""
"1417.5","","","","","2","html-slider-response","285","","","","2",""
"5299","box","kuacha,rafiki,kitande,adui","adui","n","3","html-keyboard-response","293","j","kitande","false","","4"
"2397.0999999940395","","","","","3","html-slider-response","294","","","","1",""
"3248","","","","","3","html-keyboard-response","295","","","","",""
"3998","pants","haki,pintal,chuki,hari","haki","f","3","html-keyboard-response","296","n","hari","false","","4"
"1834.9000000059605","","","","","3","html-slider-response","297","","","","1",""
"4122","","","","","3","html-keyboard-response","298","","","","",""
"2647","cup","dagat,shimoni,jeraha,matumai","matumai","n","3","html-keyboard-response","299","f","dagat","false","","4"
"1666.5","","","","","3","html-slider-response","300","","","","1",""
"2242","","","","","3","html-keyboard-response","301","","","","",""
"2647","triangle","kihozi,bentaha,liog,kasadpan","kasadpan","n","3","html-keyboard-response","302","j","liog","false","","4"
"2215","","","","","3","html-slider-response","303","","","","1",""
"2438","","","","","3","html-keyboard-response","304","","","","",""
"2806","curtain","lisud,bulwawan,mchanga,chubani","mchanga","j","3","html-keyboard-response","305","j","mchanga","true","","4"
"1972.7999999970198","","","","","3","html-slider-response","306","","","","1",""
"1545","","","","","3","html-keyboard-response","307","","","","",""
"3991","clock","kartasi,abang,osha,mbwa","mbwa","n","3","html-keyboard-response","308","j","osha","false","","4"
"1948.1000000089407","","","","","3","html-slider-response","309","","","","1",""
"1937","","","","","3","html-keyboard-response","310","","","","",""
"4142","mirror","rangi,kanding,furaha,sulagma","sulagma","n","3","html-keyboard-response","311","v","kanding","false","","4"
"1620.7999999970198","","","","","3","html-slider-response","312","","","","1",""
"777","","","","","3","html-keyboard-response","313","","","","",""
"2294","coffin","barua,tubag,kioo,hulma","kioo","j","3","html-keyboard-response","314","j","kioo","true","","1"
"2163","","","","","3","html-slider-response","315","","","","5",""
"842","","","","","3","html-keyboard-response","316","","","","",""
"6216","magazine","gundi,kiti,mchawi,bahandi","kiti","v","3","html-keyboard-response","317","v","kiti","true","","4"
"1954.4000000059605","","","","","3","html-slider-response","318","","","","1",""
"914","","","","","3","html-keyboard-response","319","","","","",""
"3239","column","ufagio,pundok,dila,pala","ufagio","f","3","html-keyboard-response","320","f","ufagio","true","","1"
"2033.2000000029802","","","","","3","html-slider-response","321","","","","5",""
"949","","","","","3","html-keyboard-response","322","","","","",""
"3359","number","shule,kengele,mundamo,choori","mundamo","j","3","html-keyboard-response","323","n","choori","false","","4"
"1956.699999988079","","","","","3","html-slider-response","324","","","","2",""
"1809","","","","","3","html-keyboard-response","325","","","","",""
"2959","rose","singizi,mwanake,amani,paghalad","paghalad","n","3","html-keyboard-response","326","n","paghalad","true","","4"
"2451.2999999970198","","","","","3","html-slider-response","327","","","","2",""
"1971","","","","","3","html-keyboard-response","328","","","","",""
"2886","eel","ishara,msumari,kunywa,kabuang","msumari","v","3","html-keyboard-response","329","v","msumari","true","","4"
"1639.5","","","","","3","html-slider-response","330","","","","4",""
"1062","","","","","3","html-keyboard-response","331","","","","",""
"4079","gift","baba,pagtawag,nyange,baso","pagtawag","v","3","html-keyboard-response","332","v","pagtawag","true","","4"
"1309","","","","","3","html-slider-response","333","","","","2",""
"864","","","","","3","html-keyboard-response","334","","","","",""
"2295","apple","ukame,estante,kisu,edad","kisu","j","3","html-keyboard-response","335","j","kisu","true","","1"
"1813.2999999970198","","","","","3","html-slider-response","336","","","","5",""
"735","","","","","3","html-keyboard-response","337","","","","",""
"3183","wheel","punda,tawo,bafuni,baadaye","bafuni","j","3","html-keyboard-response","338","j","bafuni","true","","1"
"1713.2999999970198","","","","","3","html-slider-response","339","","","","5",""
"876","","","","","3","html-keyboard-response","340","","","","",""
"2839","knee","mvuke,duka,kubale,bili","duka","v","3","html-keyboard-response","341","j","kubale","false","","4"
"1453","","","","","3","html-slider-response","342","","","","2",""
"1353","","","","","3","html-keyboard-response","343","","","","",""
"2599","basket","kumba,kumbuka,utepe,hasira","kumba","f","3","html-keyboard-response","344","f","kumba","true","","1"
"1933.2000000029802","","","","","3","html-slider-response","345","","","","5",""
"776","","","","","3","html-keyboard-response","346","","","","",""
"1775","park","tambok,pwani,bunifu,ihalas","bunifu","j","3","html-keyboard-response","347","f","tambok","false","","4"
"1663.5","","","","","3","html-slider-response","348","","","","2",""
"2886","","","","","3","html-keyboard-response","349","","","","",""
"2990","finger","simu,sufuria,lima,moyo","moyo","n","3","html-keyboard-response","350","j","lima","false","","4"
"1476.0999999940395","","","","","3","html-slider-response","351","","","","2",""
"1745","","","","","3","html-keyboard-response","352","","","","",""
"2535","boat","hamsi,agalon,pombe,kitanda","agalon","v","3","html-keyboard-response","353","j","pombe","false","","4"
"1880.9000000059605","","","","","3","html-slider-response","354","","","","2",""
"929","","","","","3","html-keyboard-response","355","","","","",""
"2127","hill","kushoto,kukimba,sweta,matumbo","matumbo","n","3","html-keyboard-response","356","n","matumbo","true","","4"
"1386.5","","","","","3","html-slider-response","357","","","","5",""
"962","","","","","3","html-keyboard-response","358","","","","",""
"4439","train","itik,sayari,dakika,mungu","sayari","v","3","html-keyboard-response","359","v","sayari","true","","4"
"1738.0999999940395","","","","","3","html-slider-response","360","","","","2",""
"1947","","","","","3","html-keyboard-response","361","","","","",""
"2558","wolf","lugha,kaburi,ndizi,mchuzi","lugha","f","3","html-keyboard-response","362","j","ndizi","false","","4"
"1811","","","","","3","html-slider-response","363","","","","2",""
"1690","","","","","3","html-keyboard-response","364","","","","",""
"4392","snake","jansa,karon,pagtukod,mvringo","pagtukod","j","3","html-keyboard-response","365","j","pagtukod","true","","4"
"1790.5999999940395","","","","","3","html-slider-response","366","","","","2",""
"2519","","","","","3","html-keyboard-response","367","","","","",""
"2663","tooth","kijiko,kabalaka,uadui,pahiyum","kabalaka","v","3","html-keyboard-response","368","f","kijiko","false","","4"
"1523.2999999970198","","","","","3","html-slider-response","369","","","","2",""
"762","","","","","3","html-keyboard-response","370","","","","",""
"3719","notebook","msitu,kemia,kila,mdudu","kemia","v","3","html-keyboard-response","371","n","mdudu","false","","4"
"1254.5999999940395","","","","","3","html-slider-response","372","","","","2",""
"1231","","","","","3","html-keyboard-response","373","","","","",""
"2879","flag","ndege,trekta,mkate,kawa","trekta","v","3","html-keyboard-response","374","v","trekta","true","","4"
"1337.0999999940395","","","","","3","html-slider-response","375","","","","2",""
"957","","","","","3","html-keyboard-response","376","","","","",""
"2647","squirrel","mahugaw,ukweli,kichwa,hofu","hofu","n","3","html-keyboard-response","377","j","kichwa","false","","4"
"1257.5999999940395","","","","","3","html-slider-response","378","","","","2",""
"1483","","","","","3","html-keyboard-response","379","","","","",""
"3854","door","tena,soko,nyota,surali","surali","n","3","html-keyboard-response","380","f","tena","false","","4"
"1417.4000000059605","","","","","3","html-slider-response","381","","","","2",""
"948","","","","","3","html-keyboard-response","382","","","","",""
"2136","salmon","mzungu,seri,baharia,sensilyo","sensilyo","n","3","html-keyboard-response","383","n","sensilyo","true","","4"
"1798.7999999970198","","","","","3","html-slider-response","384","","","","5",""
"1318","","","","","3","html-keyboard-response","385","","","","",""
"3734","shoulder","kelele,mkuu,ndaniya,guruwe","mkuu","v","3","html-keyboard-response","386","n","guruwe","false","","4"
"1599.2999999970198","","","","","3","html-slider-response","387","","","","2",""
"1142","","","","","3","html-keyboard-response","388","","","","",""
"3327","lamp","daub,bilaska,afya,mbolea","afya","j","3","html-keyboard-response","389","j","afya","true","","4"
"1746.7999999970198","","","","","3","html-slider-response","390","","","","2",""
"2434","","","","","3","html-keyboard-response","391","","","","",""
"1743","shelf","bungtod,kadaot,pamahaw,awit","pamahaw","j","3","html-keyboard-response","392","j","pamahaw","true","","1"
"1741.2000000029802","","","","","3","html-slider-response","393","","","","5",""
"824","","","","","3","html-keyboard-response","394","","","","",""
"6063","human","bado,kikapu,punguza,tinapay","tinapay","n","3","html-keyboard-response","395","n","tinapay","true","","4"
"1295.300000011921","","","","","3","html-slider-response","396","","","","2",""
"1229","","","","","3","html-keyboard-response","397","","","","",""
"3751","towel","pagpalit,tembo,funzi,pito","pagpalit","f","3","html-keyboard-response","398","j","funzi","false","","4"
"1336.7999999970198","","","","","3","html-slider-response","399","","","","2",""
"669","","","","","3","html-keyboard-response","400","","","","",""
"2271","cat","neyemba,paghukom,baki,akili","paghukom","v","3","html-keyboard-response","401","v","paghukom","true","","4"
"1250.7999999970198","","","","","3","html-slider-response","402","","","","4",""
"1090","","","","","3","html-keyboard-response","403","","","","",""
"2806","spider","kamwe,bunyag,mkboa,atop","kamwe","f","3","html-keyboard-response","404","f","kamwe","true","","4"
"1277.0999999940395","","","","","3","html-slider-response","405","","","","5",""
"608","","","","","3","html-keyboard-response","406","","","","",""
"2638","window","nanga,kweli,kujenga,umaga","kweli","v","3","html-keyboard-response","407","v","kweli","true","","4"
"1121.199999988079","","","","","3","html-slider-response","408","","","","2",""
"748","","","","","3","html-keyboard-response","409","","","","",""
"2431","woman","bandari,bituin,pagtabon,kovuli","pagtabon","j","3","html-keyboard-response","410","j","pagtabon","true","","1"
"1941.2000000029802","","","","","3","html-slider-response","411","","","","5",""
"840","","","","","3","html-keyboard-response","412","","","","",""
"3135","giraffe","daraja,jumatu,mahitabo,hangyo","mahitabo","j","3","html-keyboard-response","413","f","daraja","false","","4"
"1331.2000000029802","","","","","3","html-slider-response","414","","","","2",""
"1306","","","","","3","html-keyboard-response","415","","","","",""
"1863","elephant","kito,petye,pagduol,suka","kito","f","3","html-keyboard-response","416","f","kito","true","","4"
"2119.300000011921","","","","","3","html-slider-response","417","","","","5",""
"742","","","","","3","html-keyboard-response","418","","","","",""
"1791","cave","kesho,ganti,maisha,nyundo","kesho","f","3","html-keyboard-response","419","f","kesho","true","","4"
"1213.2999999970198","","","","","3","html-slider-response","420","","","","5",""
"449","","","","","3","html-keyboard-response","421","","","","",""
"2623","bread","kaili,dizeli,dari,bugas","dari","j","3","html-keyboard-response","422","j","dari","true","","4"
"1502.6000000089407","","","","","3","html-slider-response","423","","","","5",""
"463","","","","","3","html-keyboard-response","424","","","","",""
"3087","stone","ulimwengu,mkasi,wingi,asili","wingi","j","3","html-keyboard-response","425","v","mkasi","false","","4"
"1412.6000000089407","","","","","3","html-slider-response","426","","","","2",""
"1169","","","","","3","html-keyboard-response","427","","","","",""
"1967","donkey","bloke,elfu,lalake,rombus","elfu","v","3","html-keyboard-response","428","v","elfu","true","","4"
"1603.5","","","","","3","html-slider-response","429","","","","5",""
"523","","","","","3","html-keyboard-response","430","","","","",""
"3359","bridge","daima,ngono,panya,sahani","sahani","n","3","html-keyboard-response","431","v","ngono","false","","4"
"1572.7999999970198","","","","","3","html-slider-response","432","","","","2",""
"488","","","","","3","html-keyboard-response","433","","","","",""
"7527","bonfire","goti,mwezi,mfuko,kusanya","goti","f","3","html-keyboard-response","434","f","goti","true","","4"
"1240.7999999970198","","","","","3","html-slider-response","435","","","","2",""
"868","","","","","3","html-keyboard-response","436","","","","",""
"2047","book","mali,kuhesa,picha,mara","mali","f","3","html-keyboard-response","437","f","mali","true","","4"
"1133.2000000029802","","","","","3","html-slider-response","438","","","","4",""
"584","","","","","3","html-keyboard-response","439","","","","",""
"2983","fish","bala,baho,imani,buli","buli","n","3","html-keyboard-response","440","v","baho","false","","4"
"1567.300000011921","","","","","3","html-slider-response","441","","","","4",""
"830","","","","","3","html-keyboard-response","442","","","","",""
"3511","spoon","betri,nzuri,ngazi,pagsulod","pagsulod","n","3","html-keyboard-response","443","n","pagsulod","true","","4"
"3017.1000000089407","","","","","3","html-slider-response","444","","","","3",""
"588","","","","","3","html-keyboard-response","445","","","","",""
"3559","scissors","duga,tanuri,mtawa,suga","tanuri","v","3","html-keyboard-response","446","v","tanuri","true","","4"
"1286.7999999970198","","","","","3","html-slider-response","447","","","","2",""
"622","","","","","3","html-keyboard-response","448","","","","",""
"3223","page","wakala,wimbo,ishiri,skina","wimbo","v","3","html-keyboard-response","449","v","wimbo","true","","4"
"3049","","","","","3","html-slider-response","450","","","","2",""
"1044","","","","","3","html-keyboard-response","451","","","","",""
"2519","nose","gubat,kopa,kidole,sehemu","sehemu","n","3","html-keyboard-response","452","n","sehemu","true","","1"
"1718.5","","","","","3","html-slider-response","453","","","","5",""
"718","","","","","3","html-keyboard-response","454","","","","",""
"5190","ceiling","maua,kugita,kawaida,rayna","maua","f","3","html-keyboard-response","455","j","kawaida","false","","4"
"1779.0999999940395","","","","","3","html-slider-response","456","","","","2",""
"530","","","","","3","html-keyboard-response","457","","","","",""
"4424","bucket","baga,ijayo,kiatu,init","kiatu","j","3","html-keyboard-response","458","j","kiatu","true","","4"
"1348.800000011921","","","","","3","html-slider-response","459","","","","2",""
"632","","","","","3","html-keyboard-response","460","","","","",""
"2215","berry","kofia,abogado,nogozi,kinywa","kofia","f","3","html-keyboard-response","461","f","kofia","true","","1"
"1653","","","","","3","html-slider-response","462","","","","4",""
"721","","","","","3","html-keyboard-response","463","","","","",""
"2151","mother","babaye,kahawa,mbuzi,jokofu","babaye","f","3","html-keyboard-response","464","f","babaye","true","","1"
"1325.3999999910593","","","","","3","html-slider-response","465","","","","5",""
"489","","","","","3","html-keyboard-response","466","","","","",""
"2903","mosquito","isda,martilyo,taras,gutom","martilyo","v","3","html-keyboard-response","467","v","martilyo","true","","4"
"2198.7999999970198","","","","","3","html-slider-response","468","","","","5",""
"551","","","","","3","html-keyboard-response","469","","","","",""
"3975","perfume","bino,sungura,ndogo,katuyoan","katuyoan","n","3","html-keyboard-response","470","v","sungura","false","","4"
"1555.2000000029802","","","","","3","html-slider-response","471","","","","4",""
"1114","","","","","3","html-keyboard-response","472","","","","",""
"4447","sheet","bililhon,juuya,watu,kamantis","bililhon","f","3","html-keyboard-response","473","j","watu","false","","4"
"1357.0999999940395","","","","","3","html-slider-response","474","","","","2",""
"496","","","","","3","html-keyboard-response","475","","","","",""
"2575","puppet","napulo,lamok,godoro,mazishi","mazishi","n","3","html-keyboard-response","476","n","mazishi","true","","1"
"1692.7000000029802","","","","","3","html-slider-response","477","","","","5",""
"448","","","","","3","html-keyboard-response","478","","","","",""
"2767","poster","nchi,fedha,kasuko,madungog","madungog","n","3","html-keyboard-response","479","n","madungog","true","","4"
"1196.7999999970198","","","","","3","html-slider-response","480","","","","2",""
"1305","","","","","3","html-keyboard-response","481","","","","",""
"4047","music","baiski,mraba,mageho,tumbo","baiski","f","3","html-keyboard-response","482","f","baiski","true","","4"
"3406.2999999970198","","","","","3","html-slider-response","483","","","","3",""
"831","","","","","3","html-keyboard-response","484","","","","",""
"3398","key","chombo,miaka,goma,ahos","chombo","f","3","html-keyboard-response","485","f","chombo","true","","4"
"1124.6000000089407","","","","","3","html-slider-response","486","","","","2",""
"768","","","","","3","html-keyboard-response","487","","","","",""
"2815","sock","ndoora,kimysa,mamba,mtirka","mamba","j","3","html-keyboard-response","488","j","mamba","true","","4"
"1464.5999999940395","","","","","3","html-slider-response","489","","","","5",""
"1172","","","","","3","html-keyboard-response","490","","","","",""
"3734","marker","maji,mapafu,salita,atay","maji","f","3","html-keyboard-response","491","v","mapafu","false","","4"
"1828.7999999970198","","","","","3","html-slider-response","492","","","","2",""
"904","","","","","3","html-keyboard-response","493","","","","",""
"2272","office","hazini,yatima,leso,kuna","leso","j","3","html-keyboard-response","494","j","leso","true","","4"
"1502.7000000029802","","","","","3","html-slider-response","495","","","","2",""
"1063","","","","","3","html-keyboard-response","496","","","","",""
"4567","shoe","nyeusi,hatua,kama,uyoga","uyoga","n","3","html-keyboard-response","497","n","uyoga","true","","4"
"1544.8999999910593","","","","","3","html-slider-response","498","","","","4",""
"589","","","","","3","html-keyboard-response","499","","","","",""
"2023","cop","bustani,jikoni,bakus,mechezo","mechezo","n","3","html-keyboard-response","500","f","bustani","false","","4"
"1260.5999999940395","","","","","3","html-slider-response","501","","","","2",""
"625","","","","","3","html-keyboard-response","502","","","","",""
"3907","bank","kudhibi,silingan,tualya,ofisi","silingan","v","3","html-keyboard-response","503","n","ofisi","false","","4"
"1219.0999999940395","","","","","3","html-slider-response","504","","","","4",""
"723","","","","","3","html-keyboard-response","505","","","","",""
"2519","letter","kifua,filimbi,chuma,uhuru","kifua","f","3","html-keyboard-response","506","f","kifua","true","","1"
"1724.7999999970198","","","","","3","html-slider-response","507","","","","5",""
"561","","","","","3","html-keyboard-response","508","","","","",""
"3278","dog","lubi,bahari,washia,kalamu","bahari","v","3","html-keyboard-response","509","v","bahari","true","","1"
"1275.2999999970198","","","","","3","html-slider-response","510","","","","5",""
"778","","","","","3","html-keyboard-response","511","","","","",""
"4671","shop","nopya,kerida,ndezu,samaki","samaki","n","3","html-keyboard-response","512","v","kerida","false","","4"
"1200.5999999940395","","","","","3","html-slider-response","513","","","","2",""
"540","","","","","3","html-keyboard-response","514","","","","",""
"3030","flower","tamasha,lobo,bega,usiku","bega","j","3","html-keyboard-response","515","f","tamasha","false","","4"
"1451.2000000029802","","","","","3","html-slider-response","516","","","","4",""
"578","","","","","3","html-keyboard-response","517","","","","",""
"2031","cigar","ndugu,kuta,adhabu,mlango","adhabu","j","3","html-keyboard-response","518","j","adhabu","true","","1"
"1473.2999999970198","","","","","3","html-slider-response","519","","","","5",""
"860","","","","","3","html-keyboard-response","520","","","","",""
"3351","hammer","mekno,napakyas,kitovu,layag","napakyas","v","3","html-keyboard-response","521","v","napakyas","true","","4"
"1189.2000000029802","","","","","3","html-slider-response","522","","","","2",""
"920","","","","","3","html-keyboard-response","523","","","","",""
"5183","fork","baboy,paghago,gorisi,mgonjwa","mgonjwa","n","3","html-keyboard-response","524","f","baboy","false","","4"
"1732.199999988079","","","","","3","html-slider-response","525","","","","4",""
"1793","","","","","3","html-keyboard-response","526","","","","",""
"2263","sun","bendi,basi,luha,uongo","basi","v","3","html-keyboard-response","527","v","basi","true","","1"
"1336.8999999910593","","","","","3","html-slider-response","528","","","","5",""
"733","","","","","3","html-keyboard-response","529","","","","",""
"2887","ladder","mashua,pangalan,mwanga,kamba","pangalan","v","3","html-keyboard-response","530","n","kamba","false","","4"
"1086.7000000029802","","","","","3","html-slider-response","531","","","","2",""
"735","","","","","3","html-keyboard-response","532","","","","",""
"2518","banana","kasamok,hagdan,twai,kazi","kazi","n","3","html-keyboard-response","533","n","kazi","true","","1"
"1477.0999999940395","","","","","3","html-slider-response","534","","","","5",""
"616","","","","","3","html-keyboard-response","535","","","","",""
"2214","pudding","abug,aibu,mpishi,iring","aibu","v","3","html-keyboard-response","536","j","mpishi","false","","4"
"1173.199999988079","","","","","3","html-slider-response","537","","","","2",""
"545","","","","","3","html-keyboard-response","538","","","","",""
"4474","body","tindashan,nyundu,jibini,kununa","tindashan","f","3","html-keyboard-response","539","f","tindashan","true","","4"
"2197.2000000029802","","","","","3","html-slider-response","540","","","","3",""
"632","","","","","3","html-keyboard-response","541","","","","",""
"8192","bed","kalipay,mapintas,haraka,starehe","mapintas","v","3","html-keyboard-response","542","j","haraka","false","","4"
"1350.300000011921","","","","","3","html-slider-response","543","","","","2",""
"526","","","","","3","html-keyboard-response","544","","","","",""
"2735","tissue","lamigas,kisiwa,katika,ugomvi","ugomvi","n","3","html-keyboard-response","545","j","katika","false","","4"
"1452.8999999910593","","","","","3","html-slider-response","546","","","","4",""
"753","","","","","3","html-keyboard-response","547","","","","",""
"2383","candle","geza,gabi,farasi,kupanda","geza","f","3","html-keyboard-response","548","f","geza","true","","4"
"1223.2999999970198","","","","","3","html-slider-response","549","","","","2",""
"711","","","","","3","html-keyboard-response","550","","","","",""
"1759","tomato","chupi,mvua,chupa,takatak","mvua","v","3","html-keyboard-response","551","v","mvua","true","","1"
"3271.2000000029802","","","","","3","html-slider-response","552","","","","5",""
"487","","","","","3","html-keyboard-response","553","","","","",""
"2694","list","alizeti,wingu,kuzama,kaso","wingu","v","3","html-keyboard-response","554","j","kuzama","false","","4"
"1207.4000000059605","","","","","3","html-slider-response","555","","","","2",""
"790","","","","","3","html-keyboard-response","556","","","","",""
"3734","olive","jiwe,bata,siagi,welder","jiwe","f","3","html-keyboard-response","557","f","jiwe","true","","4"
"1415","","","","","3","html-slider-response","558","","","","4",""
"830","","","","","3","html-keyboard-response","559","","","","",""
"1775","picture","silya,chaki,asin,kubwa","kubwa","n","3","html-keyboard-response","560","n","kubwa","true","","1"
"1455.4000000059605","","","","","3","html-slider-response","561","","","","5",""
"2118","","","","","3","html-keyboard-response","562","","","","",""
"7049","page","wakala,ishiri,skina,wimbo","wimbo","n","4","html-keyboard-response","888","f","wakala","false","",""
"1686.7999999970198","","","","","4","html-slider-response","889","","","","2",""
"4806","sheet","juuya,watu,kamantis,bililhon","bililhon","n","4","html-keyboard-response","890","v","watu","false","",""
"1676.9000000059605","","","","","4","html-slider-response","891","","","","2",""
"2024","ladder","pangalan,mashua,mwanga,kamba","pangalan","f","4","html-keyboard-response","892","f","pangalan","true","",""
"1357.199999988079","","","","","4","html-slider-response","893","","","","5",""
"2825","door","tena,soko,surali,nyota","surali","j","4","html-keyboard-response","894","n","nyota","false","",""
"1454.300000011921","","","","","4","html-slider-response","895","","","","1",""
"2735","spider","bunyag,mkboa,atop,kamwe","kamwe","n","4","html-keyboard-response","896","n","kamwe","true","",""
"1857.0999999940395","","","","","4","html-slider-response","897","","","","5",""
"4772","picture","silya,chaki,kubwa,asin","kubwa","j","4","html-keyboard-response","898","f","silya","false","",""
"1526.699999988079","","","","","4","html-slider-response","899","","","","2",""
"3398","boat","agalon,hamsi,pombe,kitanda","agalon","f","4","html-keyboard-response","900","f","agalon","true","",""
"1718.9000000059605","","","","","4","html-slider-response","901","","","","4",""
"2391","donkey","bloke,lalake,elfu,rombus","elfu","j","4","html-keyboard-response","902","j","elfu","true","",""
"1285.0999999940395","","","","","4","html-slider-response","903","","","","5",""
"6608","book","kuhesa,picha,mara,mali","mali","n","4","html-keyboard-response","904","n","mali","true","",""
"1083.2999999970198","","","","","4","html-slider-response","905","","","","5",""
"5443","cup","dagat,shimoni,matumai,jeraha","matumai","j","4","html-keyboard-response","906","j","matumai","true","",""
"1382.7999999970198","","","","","4","html-slider-response","907","","","","2",""
"3154","sun","bendi,luha,basi,uongo","basi","j","4","html-keyboard-response","908","j","basi","true","",""
"2336.7999999970198","","","","","4","html-slider-response","909","","","","4",""
"4037","pudding","abug,mpishi,iring,aibu","aibu","n","4","html-keyboard-response","910","n","aibu","true","",""
"2100.7000000029802","","","","","4","html-slider-response","911","","","","2",""
"2256","human","bado,kikapu,punguza,tinapay","tinapay","n","4","html-keyboard-response","912","n","tinapay","true","",""
"1354.5999999940395","","","","","4","html-slider-response","913","","","","5",""
"2179","squirrel","mahugaw,ukweli,hofu,kichwa","hofu","j","4","html-keyboard-response","914","j","hofu","true","",""
"955.5","","","","","4","html-slider-response","915","","","","4",""
"2124","park","tambok,pwani,ihalas,bunifu","bunifu","n","4","html-keyboard-response","916","n","bunifu","true","",""
"1660.4000000059605","","","","","4","html-slider-response","917","","","","4",""
"2581","poster","nchi,fedha,madungog,kasuko","madungog","j","4","html-keyboard-response","918","j","madungog","true","",""
"1131.1000000089407","","","","","4","html-slider-response","919","","","","2",""
"3146","wolf","kaburi,ndizi,mchuzi,lugha","lugha","n","4","html-keyboard-response","920","n","lugha","true","",""
"1092.7999999970198","","","","","4","html-slider-response","921","","","","5",""
"1953","cat","neyemba,baki,akili,paghukom","paghukom","n","4","html-keyboard-response","922","n","paghukom","true","",""
"1248.4000000059605","","","","","4","html-slider-response","923","","","","5",""
"3772","fish","bala,baho,imani,buli","buli","n","4","html-keyboard-response","924","v","baho","false","",""
"2565.1000000089407","","","","","4","html-slider-response","925","","","","3",""
"2672","tooth","kijiko,uadui,kabalaka,pahiyum","kabalaka","j","4","html-keyboard-response","926","j","kabalaka","true","",""
"1780.5999999940395","","","","","4","html-slider-response","927","","","","4",""
"3680","cave","ganti,maisha,nyundo,kesho","kesho","n","4","html-keyboard-response","928","n","kesho","true","",""
"1182.7999999970198","","","","","4","html-slider-response","929","","","","5",""
"3134","lamp","daub,bilaska,mbolea,afya","afya","n","4","html-keyboard-response","930","n","afya","true","",""
"1125","","","","","4","html-slider-response","931","","","","4",""
"4617","banana","kazi,kasamok,hagdan,twai","kazi","f","4","html-keyboard-response","932","f","kazi","true","",""
"2397.0999999940395","","","","","4","html-slider-response","933","","","","4",""
"3728","bonfire","mwezi,goti,mfuko,kusanya","goti","v","4","html-keyboard-response","934","j","mfuko","false","",""
"1364.2999999970198","","","","","4","html-slider-response","935","","","","2",""
"3352","cop","bustani,jikoni,mechezo,bakus","mechezo","j","4","html-keyboard-response","936","j","mechezo","true","",""
"1193.2000000029802","","","","","4","html-slider-response","937","","","","5",""
"5037","marker","mapafu,salita,maji,atay","maji","j","4","html-keyboard-response","938","j","maji","true","",""
"1590.199999988079","","","","","4","html-slider-response","939","","","","4",""
"3438","window","nanga,kweli,kujenga,umaga","kweli","v","4","html-keyboard-response","940","j","kujenga","false","",""
"1392.800000011921","","","","","4","html-slider-response","941","","","","2",""
"2124","body","nyundu,jibini,kununa,tindashan","tindashan","n","4","html-keyboard-response","942","n","tindashan","true","",""
"1101","","","","","4","html-slider-response","943","","","","5",""
"4304","apple","ukame,kisu,estante,edad","kisu","v","4","html-keyboard-response","944","n","edad","false","",""
"1293.9000000059605","","","","","4","html-slider-response","945","","","","2",""
"2063","salmon","mzungu,sensilyo,seri,baharia","sensilyo","v","4","html-keyboard-response","946","v","sensilyo","true","",""
"1218.9000000059605","","","","","4","html-slider-response","947","","","","5",""
"3939","bed","kalipay,mapintas,haraka,starehe","mapintas","v","4","html-keyboard-response","948","v","mapintas","true","",""
"1971","","","","","4","html-slider-response","949","","","","2",""
"1882","berry","abogado,nogozi,kofia,kinywa","kofia","j","4","html-keyboard-response","950","j","kofia","true","",""
"1407.2000000029802","","","","","4","html-slider-response","951","","","","5",""
"5542","mirror","rangi,kanding,furaha,sulagma","sulagma","n","4","html-keyboard-response","952","n","sulagma","true","",""
"1041.4000000059605","","","","","4","html-slider-response","953","","","","2",""
"2109","flag","trekta,ndege,mkate,kawa","trekta","f","4","html-keyboard-response","954","f","trekta","true","",""
"1118.7000000029802","","","","","4","html-slider-response","955","","","","5",""
"4750","shoulder","kelele,mkuu,ndaniya,guruwe","mkuu","v","4","html-keyboard-response","956","v","mkuu","true","",""
"1188.8999999910593","","","","","4","html-slider-response","957","","","","4",""
"3817","tissue","lamigas,ugomvi,kisiwa,katika","ugomvi","v","4","html-keyboard-response","958","f","lamigas","false","",""
"2110.0999999940395","","","","","4","html-slider-response","959","","","","2",""
"2846","notebook","msitu,kila,mdudu,kemia","kemia","n","4","html-keyboard-response","960","n","kemia","true","",""
"2577.2000000029802","","","","","4","html-slider-response","961","","","","3",""
"5205","snake","jansa,pagtukod,karon,mvringo","pagtukod","v","4","html-keyboard-response","962","v","pagtukod","true","",""
"1332.300000011921","","","","","4","html-slider-response","963","","","","2",""
"2968","finger","moyo,simu,sufuria,lima","moyo","f","4","html-keyboard-response","964","f","moyo","true","",""
"1537.2000000029802","","","","","4","html-slider-response","965","","","","4",""
"2732","basket","kumba,kumbuka,utepe,hasira","kumba","f","4","html-keyboard-response","966","f","kumba","true","",""
"1476.5999999940395","","","","","4","html-slider-response","967","","","","4",""
"2337","curtain","mchanga,lisud,bulwawan,chubani","mchanga","f","4","html-keyboard-response","968","j","bulwawan","false","",""
"1494.699999988079","","","","","4","html-slider-response","969","","","","2",""
"5182","perfume","bino,sungura,katuyoan,ndogo","katuyoan","j","4","html-keyboard-response","970","j","katuyoan","true","",""
"1310.9000000059605","","","","","4","html-slider-response","971","","","","4",""
"3095","key","chombo,miaka,goma,ahos","chombo","f","4","html-keyboard-response","972","v","miaka","false","",""
"1160.0999999940395","","","","","4","html-slider-response","973","","","","2",""
"3333","olive","bata,jiwe,siagi,welder","jiwe","v","4","html-keyboard-response","974","v","jiwe","true","",""
"970.7999999970198","","","","","4","html-slider-response","975","","","","4",""
"2538","rose","singizi,mwanake,amani,paghalad","paghalad","n","4","html-keyboard-response","976","n","paghalad","true","",""
"1018.5","","","","","4","html-slider-response","977","","","","4",""
"5363","bridge","daima,ngono,sahani,panya","sahani","j","4","html-keyboard-response","978","j","sahani","true","",""
"1298.4000000059605","","","","","4","html-slider-response","979","","","","5",""
"6658","hill","kushoto,kukimba,sweta,matumbo","matumbo","n","4","html-keyboard-response","980","n","matumbo","true","",""
"1415.1000000089407","","","","","4","html-slider-response","981","","","","5",""
"4885","letter","filimbi,chuma,uhuru,kifua","kifua","n","4","html-keyboard-response","982","v","chuma","false","",""
"1070.7000000029802","","","","","4","html-slider-response","983","","","","2",""
"1751","sock","ndoora,kimysa,mamba,mtirka","mamba","j","4","html-keyboard-response","984","j","mamba","true","",""
"1327.2000000029802","","","","","4","html-slider-response","985","","","","5",""
"2999","fork","baboy,paghago,mgonjwa,gorisi","mgonjwa","j","4","html-keyboard-response","986","f","baboy","false","",""
"1319.2000000029802","","","","","4","html-slider-response","987","","","","4",""
"3527","box","kuacha,adui,rafiki,kitande","adui","v","4","html-keyboard-response","988","n","kitande","false","",""
"1032.7000000029802","","","","","4","html-slider-response","989","","","","2",""
"5604","gift","baba,nyange,pagtawag,baso","pagtawag","j","4","html-keyboard-response","990","n","baso","false","",""
"1614.7999999970198","","","","","4","html-slider-response","991","","","","2",""
"2887","bucket","baga,ijayo,kiatu,init","kiatu","j","4","html-keyboard-response","992","j","kiatu","true","",""
"1242","","","","","4","html-slider-response","993","","","","4",""
"4962","shop","nopya,kerida,ndezu,samaki","samaki","n","4","html-keyboard-response","994","v","kerida","false","",""
"1034.7000000029802","","","","","4","html-slider-response","995","","","","2",""
"4154","puppet","mazishi,napulo,lamok,godoro","mazishi","f","4","html-keyboard-response","996","f","mazishi","true","",""
"1106.5999999940395","","","","","4","html-slider-response","997","","","","4",""
"4698","nose","gubat,sehemu,kopa,kidole","sehemu","v","4","html-keyboard-response","998","f","gubat","false","",""
"1150.9000000059605","","","","","4","html-slider-response","999","","","","2",""
"4055","music","baiski,mraba,mageho,tumbo","baiski","f","4","html-keyboard-response","1000","n","tumbo","false","",""
"1182.4000000059605","","","","","4","html-slider-response","1001","","","","2",""
"5087","dog","lubi,bahari,washia,kalamu","bahari","v","4","html-keyboard-response","1002","v","bahari","true","",""
"1171","","","","","4","html-slider-response","1003","","","","2",""
"1779","eel","msumari,ishara,kunywa,kabuang","msumari","f","4","html-keyboard-response","1004","f","msumari","true","",""
"1162.7000000029802","","","","","4","html-slider-response","1005","","","","4",""
"2649","number","shule,kengele,choori,mundamo","mundamo","n","4","html-keyboard-response","1006","n","mundamo","true","",""
"1130.7999999970198","","","","","4","html-slider-response","1007","","","","4",""
"2298","tomato","mvua,chupi,chupa,takatak","mvua","f","4","html-keyboard-response","1008","j","chupa","false","",""
"1126.7000000029802","","","","","4","html-slider-response","1009","","","","2",""
"1566","coffin","barua,kioo,tubag,hulma","kioo","v","4","html-keyboard-response","1010","v","kioo","true","",""
"1139","","","","","4","html-slider-response","1011","","","","5",""
"4067","knee","duka,mvuke,kubale,bili","duka","f","4","html-keyboard-response","1012","v","mvuke","false","",""
"1596.2999999970198","","","","","4","html-slider-response","1013","","","","3",""
"8112","woman","bandari,bituin,kovuli,pagtabon","pagtabon","n","4","html-keyboard-response","1014","n","pagtabon","true","",""
"1329","","","","","4","html-slider-response","1015","","","","2",""
"2444","stone","wingi,ulimwengu,mkasi,asili","wingi","f","4","html-keyboard-response","1016","f","wingi","true","",""
"981.0999999940395","","","","","4","html-slider-response","1017","","","","2",""
"1809","bread","kaili,dizeli,bugas,dari","dari","n","4","html-keyboard-response","1018","n","dari","true","",""
"1183.2000000029802","","","","","4","html-slider-response","1019","","","","5",""
"3398","triangle","kihozi,bentaha,kasadpan,liog","kasadpan","j","4","html-keyboard-response","1020","j","kasadpan","true","",""
"1168.7000000029802","","","","","4","html-slider-response","1021","","","","5",""
"1844","scissors","duga,mtawa,suga,tanuri","tanuri","n","4","html-keyboard-response","1022","v","mtawa","false","",""
"1327.2000000029802","","","","","4","html-slider-response","1023","","","","2",""
"3007","giraffe","daraja,jumatu,mahitabo,hangyo","mahitabo","j","4","html-keyboard-response","1024","f","daraja","false","",""
"1273.199999988079","","","","","4","html-slider-response","1025","","","","4",""
"3340","flower","tamasha,bega,lobo,usiku","bega","v","4","html-keyboard-response","1026","f","tamasha","false","",""
"1156.2000000029802","","","","","4","html-slider-response","1027","","","","4",""
"4112","candle","gabi,farasi,geza,kupanda","geza","j","4","html-keyboard-response","1028","n","kupanda","false","",""
"1098.7000000029802","","","","","4","html-slider-response","1029","","","","2",""
"2578","mother","babaye,kahawa,mbuzi,jokofu","babaye","f","4","html-keyboard-response","1030","f","babaye","true","",""
"1071.2000000029802","","","","","4","html-slider-response","1031","","","","5",""
"3415","towel","tembo,funzi,pagpalit,pito","pagpalit","j","4","html-keyboard-response","1032","v","funzi","false","",""
"1720.300000011921","","","","","4","html-slider-response","1033","","","","2",""
"1898","elephant","kito,petye,pagduol,suka","kito","f","4","html-keyboard-response","1034","f","kito","true","",""
"1430.8999999910593","","","","","4","html-slider-response","1035","","","","5",""
"1663","shelf","pamahaw,bungtod,kadaot,awit","pamahaw","f","4","html-keyboard-response","1036","f","pamahaw","true","",""
"1010.7000000029802","","","","","4","html-slider-response","1037","","","","2",""
"1731","mosquito","martilyo,isda,taras,gutom","martilyo","f","4","html-keyboard-response","1038","f","martilyo","true","",""
"1628.5999999940395","","","","","4","html-slider-response","1039","","","","5",""
"2528","column","pundok,dila,ufagio,pala","ufagio","j","4","html-keyboard-response","1040","f","pundok","false","",""
"1207","","","","","4","html-slider-response","1041","","","","2",""
"4463","pants","pintal,chuki,hari,haki","haki","n","4","html-keyboard-response","1042","n","haki","true","",""
"2808.9000000059605","","","","","4","html-slider-response","1043","","","","3",""
"2028","list","alizeti,wingu,kuzama,kaso","wingu","v","4","html-keyboard-response","1044","v","wingu","true","",""
"1249.2000000029802","","","","","4","html-slider-response","1045","","","","4",""
"6629","bank","silingan,kudhibi,tualya,ofisi","silingan","f","4","html-keyboard-response","1046","f","silingan","true","",""
"2555.9000000059605","","","","","4","html-slider-response","1047","","","","4",""
"3720","clock","kartasi,abang,osha,mbwa","mbwa","n","4","html-keyboard-response","1048","n","mbwa","true","",""
"1243","","","","","4","html-slider-response","1049","","","","4",""
"3651","ceiling","kugita,kawaida,rayna,maua","maua","n","4","html-keyboard-response","1050","j","rayna","false","",""
"1222.5","","","","","4","html-slider-response","1051","","","","2",""
"2822","train","itik,dakika,sayari,mungu","sayari","j","4","html-keyboard-response","1052","j","sayari","true","",""
"1254.8999999910593","","","","","4","html-slider-response","1053","","","","5",""
"2070","magazine","gundi,mchawi,bahandi,kiti","kiti","n","4","html-keyboard-response","1054","v","mchawi","false","",""
"1580.9000000059605","","","","","4","html-slider-response","1055","","","","2",""
"2016","office","leso,hazini,yatima,kuna","leso","f","4","html-keyboard-response","1056","f","leso","true","",""
"1284.3999999910593","","","","","4","html-slider-response","1057","","","","4",""
"4121","wheel","punda,bafuni,tawo,baadaye","bafuni","v","4","html-keyboard-response","1058","f","punda","false","",""
"1203","","","","","4","html-slider-response","1059","","","","2",""
"2504","spoon","betri,pagsulod,nzuri,ngazi","pagsulod","v","4","html-keyboard-response","1060","v","pagsulod","true","",""
"1642.9000000059605","","","","","4","html-slider-response","1061","","","","4",""
"5435","hammer","mekno,napakyas,kitovu,layag","napakyas","v","4","html-keyboard-response","1062","f","mekno","false","",""
"2118.699999988079","","","","","4","html-slider-response","1063","","","","2",""
"3303","cigar","ndugu,kuta,mlango,adhabu","adhabu","n","4","html-keyboard-response","1064","f","ndugu","false","",""
"1959","","","","","4","html-slider-response","1065","","","","4",""
"5614","shoe","uyoga,nyeusi,hatua,kama","uyoga","f","4","html-keyboard-response","1066","j","hatua","false","",""
"1034.7000000029802","","","","","4","html-slider-response","1067","","","","2",""
"6732","list","wingu,alizeti,kuzama,kaso","wingu","f","5","html-keyboard-response","1069","f","wingu","true","",""
"3241.0999999940395","","","","","5","html-slider-response","1070","","","","4",""
"2266","number","shule,kengele,mundamo,choori","mundamo","j","5","html-keyboard-response","1071","j","mundamo","true","",""
"1125","","","","","5","html-slider-response","1072","","","","4",""
"2463","apple","ukame,estante,edad,kisu","kisu","n","5","html-keyboard-response","1073","j","edad","false","",""
"1486.9000000059605","","","","","5","html-slider-response","1074","","","","4",""
"5680","knee","duka,mvuke,kubale,bili","duka","f","5","html-keyboard-response","1075","j","kubale","false","",""
"1873.9000000059605","","","","","5","html-slider-response","1076","","","","2",""
"2555","tooth","kijiko,uadui,pahiyum,kabalaka","kabalaka","n","5","html-keyboard-response","1077","j","pahiyum","false","",""
"1207.4000000059605","","","","","5","html-slider-response","1078","","","","2",""
"2246","berry","abogado,kofia,nogozi,kinywa","kofia","v","5","html-keyboard-response","1079","v","kofia","true","",""
"1315.4000000059605","","","","","5","html-slider-response","1080","","","","5",""
"2546","bridge","sahani,daima,ngono,panya","sahani","f","5","html-keyboard-response","1081","f","sahani","true","",""
"1254.5999999940395","","","","","5","html-slider-response","1082","","","","5",""
"1533","perfume","bino,katuyoan,sungura,ndogo","katuyoan","v","5","html-keyboard-response","1083","v","katuyoan","true","",""
"1811","","","","","5","html-slider-response","1084","","","","3",""
"1962","ladder","mashua,mwanga,pangalan,kamba","pangalan","j","5","html-keyboard-response","1085","j","pangalan","true","",""
"1555.2000000029802","","","","","5","html-slider-response","1086","","","","5",""
"2739","pants","haki,pintal,chuki,hari","haki","f","5","html-keyboard-response","1087","f","haki","true","",""
"1758.9000000059605","","","","","5","html-slider-response","1088","","","","4",""
"2543","salmon","mzungu,sensilyo,seri,baharia","sensilyo","v","5","html-keyboard-response","1089","v","sensilyo","true","",""
"1271.2999999970198","","","","","5","html-slider-response","1090","","","","5",""
"1622","coffin","barua,tubag,hulma,kioo","kioo","n","5","html-keyboard-response","1091","n","kioo","true","",""
"1925","","","","","5","html-slider-response","1092","","","","5",""
"1641","park","tambok,pwani,ihalas,bunifu","bunifu","n","5","html-keyboard-response","1093","n","bunifu","true","",""
"1226.7000000029802","","","","","5","html-slider-response","1094","","","","5",""
"3194","giraffe","daraja,mahitabo,jumatu,hangyo","mahitabo","v","5","html-keyboard-response","1095","v","mahitabo","true","",""
"1246.9000000059605","","","","","5","html-slider-response","1096","","","","4",""
"4206","mirror","sulagma,rangi,kanding,furaha","sulagma","f","5","html-keyboard-response","1097","f","sulagma","true","",""
"1038.800000011921","","","","","5","html-slider-response","1098","","","","2",""
"2974","ceiling","maua,kugita,kawaida,rayna","maua","f","5","html-keyboard-response","1099","j","kawaida","false","",""
"1816.7999999970198","","","","","5","html-slider-response","1100","","","","2",""
"3596","marker","mapafu,maji,salita,atay","maji","v","5","html-keyboard-response","1101","v","maji","true","",""
"1684.8999999910593","","","","","5","html-slider-response","1102","","","","3",""
"2768","sock","mamba,ndoora,kimysa,mtirka","mamba","f","5","html-keyboard-response","1103","f","mamba","true","",""
"1551.1000000089407","","","","","5","html-slider-response","1104","","","","5",""
"1702","cop","bustani,jikoni,mechezo,bakus","mechezo","j","5","html-keyboard-response","1105","j","mechezo","true","",""
"1079.0999999940395","","","","","5","html-slider-response","1106","","","","5",""
"3174","gift","baba,pagtawag,nyange,baso","pagtawag","v","5","html-keyboard-response","1107","n","baso","false","",""
"1180.6000000089407","","","","","5","html-slider-response","1108","","","","2",""
"2448","notebook","msitu,kemia,kila,mdudu","kemia","v","5","html-keyboard-response","1109","v","kemia","true","",""
"3268.6000000089407","","","","","5","html-slider-response","1110","","","","4",""
"2352","bank","kudhibi,tualya,ofisi,silingan","silingan","n","5","html-keyboard-response","1111","j","ofisi","false","",""
"1529.0999999940395","","","","","5","html-slider-response","1112","","","","3",""
"2565","letter","kifua,filimbi,chuma,uhuru","kifua","f","5","html-keyboard-response","1113","f","kifua","true","",""
"1477.0999999940395","","","","","5","html-slider-response","1114","","","","2",""
"1952","candle","geza,gabi,farasi,kupanda","geza","f","5","html-keyboard-response","1115","n","kupanda","false","",""
"1051","","","","","5","html-slider-response","1116","","","","2",""
"1475","bread","kaili,dizeli,bugas,dari","dari","n","5","html-keyboard-response","1117","n","dari","true","",""
"1538.8999999910593","","","","","5","html-slider-response","1118","","","","5",""
"6314","snake","jansa,karon,mvringo,pagtukod","pagtukod","n","5","html-keyboard-response","1119","n","pagtukod","true","",""
"1138.7999999970198","","","","","5","html-slider-response","1120","","","","2",""
"1634","rose","singizi,paghalad,mwanake,amani","paghalad","v","5","html-keyboard-response","1121","v","paghalad","true","",""
"1275.1000000089407","","","","","5","html-slider-response","1122","","","","4",""
"3586","hill","kushoto,kukimba,matumbo,sweta","matumbo","j","5","html-keyboard-response","1123","j","matumbo","true","",""
"1276.2999999970198","","","","","5","html-slider-response","1124","","","","5",""
"1992","train","itik,sayari,dakika,mungu","sayari","v","5","html-keyboard-response","1125","v","sayari","true","",""
"1353","","","","","5","html-slider-response","1126","","","","5",""
"2957","shop","samaki,nopya,kerida,ndezu","samaki","f","5","html-keyboard-response","1127","j","kerida","false","",""
"1060.2000000029802","","","","","5","html-slider-response","1128","","","","2",""
"2240","nose","gubat,sehemu,kopa,kidole","sehemu","v","5","html-keyboard-response","1129","f","gubat","false","",""
"961.4000000059605","","","","","5","html-slider-response","1130","","","","4",""
"2284","boat","hamsi,pombe,agalon,kitanda","agalon","j","5","html-keyboard-response","1131","j","agalon","true","",""
"959.4000000059605","","","","","5","html-slider-response","1132","","","","2",""
"2990","body","nyundu,jibini,kununa,tindashan","tindashan","n","5","html-keyboard-response","1133","n","tindashan","true","",""
"1634.4000000059605","","","","","5","html-slider-response","1134","","","","4",""
"2195","bed","mapintas,kalipay,haraka,starehe","mapintas","f","5","html-keyboard-response","1135","j","haraka","false","",""
"1214.8999999910593","","","","","5","html-slider-response","1136","","","","2",""
"2158","squirrel","hofu,mahugaw,ukweli,kichwa","hofu","f","5","html-keyboard-response","1137","f","hofu","true","",""
"1076.8999999910593","","","","","5","html-slider-response","1138","","","","4",""
"2129","window","nanga,kujenga,kweli,umaga","kweli","j","5","html-keyboard-response","1139","j","kweli","true","",""
"1888.5999999940395","","","","","5","html-slider-response","1140","","","","3",""
"3068","bonfire","goti,mwezi,mfuko,kusanya","goti","f","5","html-keyboard-response","1141","f","goti","true","",""
"2717.699999988079","","","","","5","html-slider-response","1142","","","","3",""
"3400","fish","bala,baho,buli,imani","buli","j","5","html-keyboard-response","1143","v","baho","false","",""
"1150.7000000029802","","","","","5","html-slider-response","1144","","","","4",""
"2438","cat","neyemba,baki,paghukom,akili","paghukom","j","5","html-keyboard-response","1145","j","paghukom","true","",""
"1219","","","","","5","html-slider-response","1146","","","","4",""
"1851","spider","bunyag,mkboa,atop,kamwe","kamwe","n","5","html-keyboard-response","1147","n","kamwe","true","",""
"1032.7999999970198","","","","","5","html-slider-response","1148","","","","5",""
"1621","eel","msumari,ishara,kunywa,kabuang","msumari","f","5","html-keyboard-response","1149","f","msumari","true","",""
"875","","","","","5","html-slider-response","1150","","","","5",""
"6098","woman","bandari,bituin,pagtabon,kovuli","pagtabon","j","5","html-keyboard-response","1151","j","pagtabon","true","",""
"1801","","","","","5","html-slider-response","1152","","","","3",""
"2325","magazine","kiti,gundi,mchawi,bahandi","kiti","f","5","html-keyboard-response","1153","j","mchawi","false","",""
"1701","","","","","5","html-slider-response","1154","","","","3",""
"5304","pudding","abug,aibu,mpishi,iring","aibu","v","5","html-keyboard-response","1155","v","aibu","true","",""
"1412.7999999970198","","","","","5","html-slider-response","1156","","","","2",""
"1801","lamp","afya,daub,bilaska,mbolea","afya","f","5","html-keyboard-response","1157","f","afya","true","",""
"884.6999999880791","","","","","5","html-slider-response","1158","","","","4",""
"1800","cave","ganti,maisha,kesho,nyundo","kesho","j","5","html-keyboard-response","1159","j","kesho","true","",""
"1102.5","","","","","5","html-slider-response","1160","","","","5",""
"1870","shoulder","kelele,mkuu,ndaniya,guruwe","mkuu","v","5","html-keyboard-response","1161","v","mkuu","true","",""
"1333.0999999940395","","","","","5","html-slider-response","1162","","","","4",""
"2600","stone","ulimwengu,mkasi,wingi,asili","wingi","j","5","html-keyboard-response","1163","j","wingi","true","",""
"2273","","","","","5","html-slider-response","1164","","","","3",""
"2740","column","pundok,dila,ufagio,pala","ufagio","j","5","html-keyboard-response","1165","f","pundok","false","",""
"1023.2999999970198","","","","","5","html-slider-response","1166","","","","4",""
"3054","page","wakala,ishiri,skina,wimbo","wimbo","n","5","html-keyboard-response","1167","n","wimbo","true","",""
"1909.0999999940395","","","","","5","html-slider-response","1168","","","","2",""
"2976","shoe","uyoga,nyeusi,hatua,kama","uyoga","f","5","html-keyboard-response","1169","j","hatua","false","",""
"1064.8999999910593","","","","","5","html-slider-response","1170","","","","2",""
"2059","clock","kartasi,mbwa,abang,osha","mbwa","v","5","html-keyboard-response","1171","f","kartasi","false","",""
"1050.9000000059605","","","","","5","html-slider-response","1172","","","","2",""
"2211","towel","tembo,funzi,pito,pagpalit","pagpalit","n","5","html-keyboard-response","1173","n","pagpalit","true","",""
"1311","","","","","5","html-slider-response","1174","","","","2",""
"5590","tomato","chupi,mvua,chupa,takatak","mvua","v","5","html-keyboard-response","1175","v","mvua","true","",""
"1291.0999999940395","","","","","5","html-slider-response","1176","","","","4",""
"2707","bucket","baga,ijayo,kiatu,init","kiatu","j","5","html-keyboard-response","1177","j","kiatu","true","",""
"1488.2000000029802","","","","","5","html-slider-response","1178","","","","5",""
"1572","finger","simu,sufuria,lima,moyo","moyo","n","5","html-keyboard-response","1179","n","moyo","true","",""
"1123.1000000089407","","","","","5","html-slider-response","1180","","","","5",""
"2290","mother","kahawa,mbuzi,jokofu,babaye","babaye","n","5","html-keyboard-response","1181","n","babaye","true","",""
"1689.2000000029802","","","","","5","html-slider-response","1182","","","","5",""
"2109","human","tinapay,bado,kikapu,punguza","tinapay","f","5","html-keyboard-response","1183","f","tinapay","true","",""
"1018.5999999940395","","","","","5","html-slider-response","1184","","","","5",""
"1514","sun","basi,bendi,luha,uongo","basi","f","5","html-keyboard-response","1185","f","basi","true","",""
"1254.9000000059605","","","","","5","html-slider-response","1186","","","","5",""
"1662","fork","baboy,paghago,gorisi,mgonjwa","mgonjwa","n","5","html-keyboard-response","1187","f","baboy","false","",""
"1429.0999999940395","","","","","5","html-slider-response","1188","","","","5",""
"1424","donkey","bloke,elfu,lalake,rombus","elfu","v","5","html-keyboard-response","1189","v","elfu","true","",""
"1354.2999999970198","","","","","5","html-slider-response","1190","","","","5",""
"2091","wolf","kaburi,lugha,ndizi,mchuzi","lugha","v","5","html-keyboard-response","1191","v","lugha","true","",""
"1162.5999999940395","","","","","5","html-slider-response","1192","","","","5",""
"4699","cigar","adhabu,ndugu,kuta,mlango","adhabu","f","5","html-keyboard-response","1193","f","adhabu","true","",""
"2428.5999999940395","","","","","5","html-slider-response","1194","","","","4",""
"1680","olive","bata,siagi,welder,jiwe","jiwe","n","5","html-keyboard-response","1195","n","jiwe","true","",""
"1071.2999999970198","","","","","5","html-slider-response","1196","","","","5",""
"2462","key","miaka,goma,ahos,chombo","chombo","n","5","html-keyboard-response","1197","f","miaka","false","",""
"2195","","","","","5","html-slider-response","1198","","","","3",""
"3226","door","tena,soko,nyota,surali","surali","n","5","html-keyboard-response","1199","j","nyota","false","",""
"1073.0999999940395","","","","","5","html-slider-response","1200","","","","2",""
"1773","wheel","punda,tawo,baadaye,bafuni","bafuni","n","5","html-keyboard-response","1201","f","punda","false","",""
"1234.800000011921","","","","","5","html-slider-response","1202","","","","2",""
"5169","basket","kumbuka,utepe,kumba,hasira","kumba","j","5","html-keyboard-response","1203","f","kumbuka","false","",""
"1444.7999999970198","","","","","5","html-slider-response","1204","","","","2",""
"1656","elephant","petye,pagduol,kito,suka","kito","j","5","html-keyboard-response","1205","j","kito","true","",""
"1029.2999999970198","","","","","5","html-slider-response","1206","","","","5",""
"2783","office","hazini,yatima,kuna,leso","leso","n","5","html-keyboard-response","1207","n","leso","true","",""
"896.9000000059605","","","","","5","html-slider-response","1208","","","","4",""
"5012","music","mraba,mageho,baiski,tumbo","baiski","j","5","html-keyboard-response","1209","n","tumbo","false","",""
"1131.199999988079","","","","","5","html-slider-response","1210","","","","2",""
"2659","tissue","ugomvi,lamigas,kisiwa,katika","ugomvi","f","5","html-keyboard-response","1211","v","lamigas","false","",""
"1226.199999988079","","","","","5","html-slider-response","1212","","","","2",""
"1938","curtain","lisud,mchanga,bulwawan,chubani","mchanga","v","5","html-keyboard-response","1213","v","mchanga","true","",""
"1156.5999999940395","","","","","5","html-slider-response","1214","","","","2",""
"2904","flag","ndege,mkate,kawa,trekta","trekta","n","5","html-keyboard-response","1215","n","trekta","true","",""
"1315","","","","","5","html-slider-response","1216","","","","4",""
"4378","dog","bahari,lubi,washia,kalamu","bahari","f","5","html-keyboard-response","1217","n","kalamu","false","",""
"1389.9000000059605","","","","","5","html-slider-response","1218","","","","2",""
"2839","cup","dagat,shimoni,jeraha,matumai","matumai","n","5","html-keyboard-response","1219","f","dagat","false","",""
"1973.2999999970198","","","","","5","html-slider-response","1220","","","","2",""
"2121","sheet","juuya,bililhon,watu,kamantis","bililhon","v","5","html-keyboard-response","1221","n","kamantis","false","",""
"1865.4000000059605","","","","","5","html-slider-response","1222","","","","2",""
"3892","spoon","betri,pagsulod,nzuri,ngazi","pagsulod","v","5","html-keyboard-response","1223","v","pagsulod","true","",""
"1104.5999999940395","","","","","5","html-slider-response","1224","","","","2",""
"2596","flower","tamasha,lobo,usiku,bega","bega","n","5","html-keyboard-response","1225","f","tamasha","false","",""
"1871.5","","","","","5","html-slider-response","1226","","","","4",""
"2399","picture","silya,chaki,kubwa,asin","kubwa","j","5","html-keyboard-response","1227","j","kubwa","true","",""
"1444","","","","","5","html-slider-response","1228","","","","2",""
"5654","puppet","napulo,lamok,godoro,mazishi","mazishi","n","5","html-keyboard-response","1229","n","mazishi","true","",""
"1714.800000011921","","","","","5","html-slider-response","1230","","","","4",""
"6163","banana","kasamok,hagdan,kazi,twai","kazi","j","5","html-keyboard-response","1231","j","kazi","true","",""
"1613.7999999970198","","","","","5","html-slider-response","1232","","","","3",""
"2494","book","kuhesa,mali,picha,mara","mali","v","5","html-keyboard-response","1233","v","mali","true","",""
"1512.7999999970198","","","","","5","html-slider-response","1234","","","","4",""
"1765","triangle","kasadpan,kihozi,bentaha,liog","kasadpan","f","5","html-keyboard-response","1235","f","kasadpan","true","",""
"1284.2999999970198","","","","","5","html-slider-response","1236","","","","5",""
"3065","poster","nchi,madungog,fedha,kasuko","madungog","v","5","html-keyboard-response","1237","n","kasuko","false","",""
"1218.2999999970198","","","","","5","html-slider-response","1238","","","","2",""
"2651","box","kuacha,rafiki,adui,kitande","adui","j","5","html-keyboard-response","1239","n","kitande","false","",""
"2221","","","","","5","html-slider-response","1240","","","","2",""
"2016","mosquito","martilyo,isda,taras,gutom","martilyo","f","5","html-keyboard-response","1241","f","martilyo","true","",""
"1427.2999999970198","","","","","5","html-slider-response","1242","","","","5",""
"3515","shelf","bungtod,kadaot,pamahaw,awit","pamahaw","j","5","html-keyboard-response","1243","n","awit","false","",""
"1138.4000000059605","","","","","5","html-slider-response","1244","","","","2",""
"2153","scissors","tanuri,duga,mtawa,suga","tanuri","f","5","html-keyboard-response","1245","f","tanuri","true","",""
"964.8999999910593","","","","","5","html-slider-response","1246","","","","2",""
"4296","hammer","napakyas,mekno,kitovu,layag","napakyas","f","5","html-keyboard-response","1247","n","layag","false","",""
"6230.5","","","","","5","html-slider-response","1248","","","","2",""
