"rt","en_word","options","swa_word","correct_answer","phase","trial_type","trial_index","input_answer","input_word","accuracy","certainty","amt_choices"
"4759","bonfire","mwezi,goti,mfuko,kusanya","goti","v","2","html-keyboard-response","106","v","goti","true","",""
"2063.699999988079","","","","","2","html-slider-response","107","","","","5",""
"5764","flower","tamasha,bega,lobo,usiku","bega","v","2","html-keyboard-response","108","v","bega","true","",""
"3266.6000000089407","","","","","2","html-slider-response","109","","","","2",""
"3930","column","pundok,ufagio,dila,pala","ufagio","v","2","html-keyboard-response","110","j","dila","false","",""
"5506","","","","","2","html-slider-response","111","","","","3",""
"6856","music","mraba,baiski,mageho,tumbo","baiski","v","2","html-keyboard-response","112","f","mraba","false","",""
"1939.8999999910593","","","","","2","html-slider-response","113","","","","1",""
"3840","spider","bunyag,mkboa,kamwe,atop","kamwe","j","2","html-keyboard-response","114","j","kamwe","true","",""
"2075.1000000089407","","","","","2","html-slider-response","115","","","","2",""
"6102","fork","baboy,paghago,mgonjwa,gorisi","mgonjwa","j","2","html-keyboard-response","116","j","mgonjwa","true","",""
"2278.300000011921","","","","","2","html-slider-response","117","","","","4",""
"4817","mosquito","isda,martilyo,taras,gutom","martilyo","v","2","html-keyboard-response","118","v","martilyo","true","",""
"2041","","","","","2","html-slider-response","119","","","","2",""
"6608","banana","kasamok,hagdan,kazi,twai","kazi","j","2","html-keyboard-response","120","j","kazi","true","",""
"2153.2000000029802","","","","","2","html-slider-response","121","","","","5",""
"5761","cup","matumai,dagat,shimoni,jeraha","matumai","f","2","html-keyboard-response","122","f","matumai","true","",""
"1851.4000000059605","","","","","2","html-slider-response","123","","","","1",""
"2536","shop","nopya,kerida,ndezu,samaki","samaki","n","2","html-keyboard-response","124","n","samaki","true","",""
"1939.4000000059605","","","","","2","html-slider-response","125","","","","1",""
"6428","elephant","petye,kito,pagduol,suka","kito","v","2","html-keyboard-response","126","v","kito","true","",""
"1918.1000000089407","","","","","2","html-slider-response","127","","","","3",""
"4898","bucket","baga,kiatu,ijayo,init","kiatu","v","2","html-keyboard-response","128","v","kiatu","true","",""
"2075.1000000089407","","","","","2","html-slider-response","129","","","","5",""
"5607","book","mali,kuhesa,picha,mara","mali","f","2","html-keyboard-response","130","n","mara","false","",""
"1872.1000000089407","","","","","2","html-slider-response","131","","","","1",""
"36128","mirror","sulagma,rangi,kanding,furaha","sulagma","f","2","html-keyboard-response","132","f","sulagma","true","",""
"1805.1000000089407","","","","","2","html-slider-response","133","","","","2",""
"2221","office","hazini,yatima,leso,kuna","leso","j","2","html-keyboard-response","134","j","leso","true","",""
"2569.2999999970198","","","","","2","html-slider-response","135","","","","5",""
"4089","body","tindashan,nyundu,jibini,kununa","tindashan","f","2","html-keyboard-response","136","f","tindashan","true","",""
"1490.0999999940395","","","","","2","html-slider-response","137","","","","5",""
"13020","perfume","katuyoan,bino,sungura,ndogo","katuyoan","f","2","html-keyboard-response","138","j","sungura","false","",""
"2873.7999999970198","","","","","2","html-slider-response","139","","","","3",""
"2412","olive","jiwe,bata,siagi,welder","jiwe","f","2","html-keyboard-response","140","f","jiwe","true","",""
"1759.5","","","","","2","html-slider-response","141","","","","5",""
"2018","magazine","gundi,mchawi,kiti,bahandi","kiti","j","2","html-keyboard-response","142","j","kiti","true","",""
"1703.4000000059605","","","","","2","html-slider-response","143","","","","5",""
"1792","bread","kaili,dizeli,dari,bugas","dari","j","2","html-keyboard-response","144","j","dari","true","",""
"1580.3999999910593","","","","","2","html-slider-response","145","","","","5",""
"5506","cave","ganti,maisha,kesho,nyundo","kesho","j","2","html-keyboard-response","146","f","ganti","false","",""
"4470.29999999702","","","","","2","html-slider-response","147","","","","4",""
"2378","ladder","mashua,mwanga,kamba,pangalan","pangalan","n","2","html-keyboard-response","148","n","pangalan","true","",""
"1388.1000000089407","","","","","2","html-slider-response","149","","","","5",""
"5303","human","bado,kikapu,punguza,tinapay","tinapay","n","2","html-keyboard-response","150","n","tinapay","true","",""
"1423","","","","","2","html-slider-response","151","","","","4",""
"3773","clock","kartasi,mbwa,abang,osha","mbwa","v","2","html-keyboard-response","152","j","abang","false","",""
"2232.2999999970198","","","","","2","html-slider-response","153","","","","1",""
"6822","shelf","bungtod,kadaot,pamahaw,awit","pamahaw","j","2","html-keyboard-response","154","n","awit","false","",""
"1523.5","","","","","2","html-slider-response","155","","","","1",""
"3457","salmon","mzungu,seri,sensilyo,baharia","sensilyo","j","2","html-keyboard-response","156","j","sensilyo","true","",""
"1816.2000000029802","","","","","2","html-slider-response","157","","","","4",""
"3706","coffin","barua,tubag,hulma,kioo","kioo","n","2","html-keyboard-response","158","j","hulma","false","",""
"1613.199999988079","","","","","2","html-slider-response","159","","","","2",""
"20647","notebook","kemia,msitu,kila,mdudu","kemia","f","2","html-keyboard-response","160","n","mdudu","false","",""
"1626.5","","","","","2","html-slider-response","161","","","","1",""
"3986","shoulder","kelele,ndaniya,guruwe,mkuu","mkuu","n","2","html-keyboard-response","162","j","guruwe","false","",""
"1569.2999999970198","","","","","2","html-slider-response","163","","","","1",""
"5551","park","tambok,bunifu,pwani,ihalas","bunifu","v","2","html-keyboard-response","164","v","bunifu","true","",""
"1377.199999988079","","","","","2","html-slider-response","165","","","","4",""
"1996","number","mundamo,shule,kengele,choori","mundamo","f","2","html-keyboard-response","166","f","mundamo","true","",""
"1456.2999999970198","","","","","2","html-slider-response","167","","","","5",""
"6147","apple","ukame,estante,kisu,edad","kisu","j","2","html-keyboard-response","168","f","ukame","false","",""
"1489.4000000059605","","","","","2","html-slider-response","169","","","","2",""
"5483","letter","filimbi,kifua,chuma,uhuru","kifua","v","2","html-keyboard-response","170","v","kifua","true","",""
"3020.300000011921","","","","","2","html-slider-response","171","","","","3",""
"3109","eel","ishara,kunywa,msumari,kabuang","msumari","j","2","html-keyboard-response","172","f","ishara","false","",""
"1894.7999999970198","","","","","2","html-slider-response","173","","","","1",""
"3806","cop","bustani,jikoni,bakus,mechezo","mechezo","n","2","html-keyboard-response","174","f","bustani","false","",""
"1366.7000000029802","","","","","2","html-slider-response","175","","","","2",""
"5527","wolf","lugha,kaburi,ndizi,mchuzi","lugha","f","2","html-keyboard-response","176","f","lugha","true","",""
"16059","","","","","2","html-slider-response","177","","","","3",""
"4706","squirrel","mahugaw,ukweli,hofu,kichwa","hofu","j","2","html-keyboard-response","178","n","kichwa","false","",""
"1737.3999999910593","","","","","2","html-slider-response","179","","","","1",""
"6124","nose","gubat,kopa,sehemu,kidole","sehemu","j","2","html-keyboard-response","180","j","sehemu","true","",""
"2063.6000000089407","","","","","2","html-slider-response","181","","","","4",""
"4099","sock","ndoora,kimysa,mtirka,mamba","mamba","n","2","html-keyboard-response","182","n","mamba","true","",""
"1590.7999999970198","","","","","2","html-slider-response","183","","","","5",""
"4505","bank","kudhibi,silingan,tualya,ofisi","silingan","v","2","html-keyboard-response","184","n","ofisi","false","",""
"1501.2000000029802","","","","","2","html-slider-response","185","","","","1",""
"2040","donkey","bloke,elfu,lalake,rombus","elfu","v","2","html-keyboard-response","186","v","elfu","true","",""
"1399.6000000089407","","","","","2","html-slider-response","187","","","","5",""
"6271","poster","nchi,fedha,kasuko,madungog","madungog","n","2","html-keyboard-response","188","n","madungog","true","",""
"1500","","","","","2","html-slider-response","189","","","","4",""
"5146","puppet","napulo,lamok,mazishi,godoro","mazishi","j","2","html-keyboard-response","190","j","mazishi","true","",""
"2716.5","","","","","2","html-slider-response","191","","","","3",""
"3087","hill","matumbo,kushoto,kukimba,sweta","matumbo","f","2","html-keyboard-response","192","f","matumbo","true","",""
"2243.5","","","","","2","html-slider-response","193","","","","1",""
"6620","tooth","kijiko,kabalaka,uadui,pahiyum","kabalaka","v","2","html-keyboard-response","194","v","kabalaka","true","",""
"1568.7000000029802","","","","","2","html-slider-response","195","","","","4",""
"2828","woman","bandari,bituin,kovuli,pagtabon","pagtabon","n","2","html-keyboard-response","196","n","pagtabon","true","",""
"1546.2000000029802","","","","","2","html-slider-response","197","","","","5",""
"7225","wheel","punda,tawo,baadaye,bafuni","bafuni","n","2","html-keyboard-response","198","n","bafuni","true","",""
"1546.9000000059605","","","","","2","html-slider-response","199","","","","4",""
"1377","mother","babaye,kahawa,mbuzi,jokofu","babaye","f","2","html-keyboard-response","200","f","babaye","true","",""
"1444.5999999940395","","","","","2","html-slider-response","201","","","","5",""
"3222","bed","kalipay,haraka,starehe,mapintas","mapintas","n","2","html-keyboard-response","202","f","kalipay","false","",""
"1703.9000000059605","","","","","2","html-slider-response","203","","","","3",""
"4874","key","miaka,goma,ahos,chombo","chombo","n","2","html-keyboard-response","204","v","goma","false","",""
"1558.2999999970198","","","","","2","html-slider-response","205","","","","2",""
"4504","page","wakala,ishiri,skina,wimbo","wimbo","n","2","html-keyboard-response","206","n","wimbo","true","",""
"1546.2000000029802","","","","","2","html-slider-response","207","","","","2",""
"5326","pants","haki,pintal,chuki,hari","haki","f","2","html-keyboard-response","208","f","haki","true","",""
"1399.7999999970198","","","","","2","html-slider-response","209","","","","1",""
"3761","sun","bendi,basi,luha,uongo","basi","v","2","html-keyboard-response","210","v","basi","true","",""
"1602.0999999940395","","","","","2","html-slider-response","211","","","","2",""
"10791","finger","simu,sufuria,lima,moyo","moyo","n","2","html-keyboard-response","212","v","sufuria","false","",""
"1266.5","","","","","2","html-slider-response","213","","","","2",""
"3627","shoe","nyeusi,hatua,uyoga,kama","uyoga","j","2","html-keyboard-response","214","n","kama","false","",""
"31301.39999999106","","","","","2","html-slider-response","215","","","","2",""
"4706","giraffe","mahitabo,daraja,jumatu,hangyo","mahitabo","f","2","html-keyboard-response","216","j","jumatu","false","",""
"1579.7000000029802","","","","","2","html-slider-response","217","","","","2",""
"5674","dog","lubi,washia,kalamu,bahari","bahari","n","2","html-keyboard-response","218","f","lubi","false","",""
"2547.2000000029802","","","","","2","html-slider-response","219","","","","1",""
"2592","box","adui,kuacha,rafiki,kitande","adui","f","2","html-keyboard-response","220","j","rafiki","false","",""
"1928.1000000089407","","","","","2","html-slider-response","221","","","","1",""
"2255","scissors","tanuri,duga,mtawa,suga","tanuri","f","2","html-keyboard-response","222","f","tanuri","true","",""
"1219.8999999910593","","","","","2","html-slider-response","223","","","","4",""
"6866","cat","paghukom,neyemba,baki,akili","paghukom","f","2","html-keyboard-response","224","v","neyemba","false","",""
"2166.1000000089407","","","","","2","html-slider-response","225","","","","1",""
"4031","basket","kumbuka,utepe,kumba,hasira","kumba","j","2","html-keyboard-response","226","j","kumba","true","",""
"1399.7000000029802","","","","","2","html-slider-response","227","","","","2",""
"3188","snake","pagtukod,jansa,karon,mvringo","pagtukod","f","2","html-keyboard-response","228","v","jansa","false","",""
"1478.2999999970198","","","","","2","html-slider-response","229","","","","1",""
"1950","gift","pagtawag,baba,nyange,baso","pagtawag","f","2","html-keyboard-response","230","f","pagtawag","true","",""
"1615.0999999940395","","","","","2","html-slider-response","231","","","","5",""
"4528","train","itik,dakika,mungu,sayari","sayari","n","2","html-keyboard-response","232","n","sayari","true","",""
"1950.699999988079","","","","","2","html-slider-response","233","","","","5",""
"3109","pudding","aibu,abug,mpishi,iring","aibu","f","2","html-keyboard-response","234","f","aibu","true","",""
"2007.5","","","","","2","html-slider-response","235","","","","1",""
"4570","tomato","chupi,chupa,takatak,mvua","mvua","n","2","html-keyboard-response","236","n","mvua","true","",""
"1997.7999999970198","","","","","2","html-slider-response","237","","","","5",""
"3953","stone","ulimwengu,mkasi,asili,wingi","wingi","n","2","html-keyboard-response","238","n","wingi","true","",""
"1872.5","","","","","2","html-slider-response","239","","","","5",""
"3919","hammer","mekno,kitovu,napakyas,layag","napakyas","j","2","html-keyboard-response","240","j","napakyas","true","",""
"1883.7999999970198","","","","","2","html-slider-response","241","","","","5",""
"1962","knee","mvuke,kubale,bili,duka","duka","n","2","html-keyboard-response","242","n","duka","true","",""
"14179.29999999702","","","","","2","html-slider-response","243","","","","5",""
"3908","ceiling","kugita,kawaida,rayna,maua","maua","n","2","html-keyboard-response","244","n","maua","true","",""
"1579.2999999970198","","","","","2","html-slider-response","245","","","","5",""
"4267","spoon","betri,pagsulod,nzuri,ngazi","pagsulod","v","2","html-keyboard-response","246","v","pagsulod","true","",""
"1366.5","","","","","2","html-slider-response","247","","","","4",""
"4167","marker","mapafu,salita,maji,atay","maji","j","2","html-keyboard-response","248","j","maji","true","",""
"1299.5","","","","","2","html-slider-response","249","","","","5",""
"5528","candle","gabi,geza,farasi,kupanda","geza","v","2","html-keyboard-response","250","v","geza","true","",""
"1467","","","","","2","html-slider-response","251","","","","4",""
"6057","tissue","ugomvi,lamigas,kisiwa,katika","ugomvi","f","2","html-keyboard-response","252","v","lamigas","false","",""
"1286.7000000029802","","","","","2","html-slider-response","253","","","","1",""
"2715","bridge","daima,sahani,ngono,panya","sahani","v","2","html-keyboard-response","254","f","daima","false","",""
"1219.1000000089407","","","","","2","html-slider-response","255","","","","1",""
"6383","berry","abogado,nogozi,kofia,kinywa","kofia","j","2","html-keyboard-response","256","j","kofia","true","",""
"1827.199999988079","","","","","2","html-slider-response","257","","","","3",""
"3424","triangle","kihozi,bentaha,liog,kasadpan","kasadpan","n","2","html-keyboard-response","258","f","kihozi","false","",""
"1366.2999999970198","","","","","2","html-slider-response","259","","","","1",""
"3717","door","tena,soko,surali,nyota","surali","j","2","html-keyboard-response","260","f","tena","false","",""
"1107.3999999910593","","","","","2","html-slider-response","261","","","","1",""
"2311","fish","buli,bala,baho,imani","buli","f","2","html-keyboard-response","262","f","buli","true","",""
"1849.5","","","","","2","html-slider-response","263","","","","5",""
"4955","curtain","lisud,bulwawan,chubani,mchanga","mchanga","n","2","html-keyboard-response","264","j","chubani","false","",""
"1535","","","","","2","html-slider-response","265","","","","2",""
"3817","flag","trekta,ndege,mkate,kawa","trekta","f","2","html-keyboard-response","266","n","kawa","false","",""
"1186.2999999970198","","","","","2","html-slider-response","267","","","","2",""
"3402","boat","hamsi,agalon,pombe,kitanda","agalon","v","2","html-keyboard-response","268","v","agalon","true","",""
"1962.2999999970198","","","","","2","html-slider-response","269","","","","1",""
"3806","rose","paghalad,singizi,mwanake,amani","paghalad","f","2","html-keyboard-response","270","f","paghalad","true","",""
"1681.6000000089407","","","","","2","html-slider-response","271","","","","1",""
"4987","lamp","daub,bilaska,afya,mbolea","afya","j","2","html-keyboard-response","272","n","mbolea","false","",""
"1276.7999999970198","","","","","2","html-slider-response","273","","","","1",""
"3581","cigar","adhabu,ndugu,kuta,mlango","adhabu","f","2","html-keyboard-response","274","j","kuta","false","",""
"1534.8999999910593","","","","","2","html-slider-response","275","","","","2",""
"8408","list","alizeti,kuzama,wingu,kaso","wingu","j","2","html-keyboard-response","276","n","kaso","false","",""
"1276.199999988079","","","","","2","html-slider-response","277","","","","2",""
"2930","sheet","bililhon,juuya,watu,kamantis","bililhon","f","2","html-keyboard-response","278","j","watu","false","",""
"1321.2999999970198","","","","","2","html-slider-response","279","","","","2",""
"2783","picture","silya,chaki,asin,kubwa","kubwa","n","2","html-keyboard-response","280","v","chaki","false","",""
"1737.2000000029802","","","","","2","html-slider-response","281","","","","1",""
"4774","towel","tembo,pagpalit,funzi,pito","pagpalit","v","2","html-keyboard-response","282","j","funzi","false","",""
"1389","","","","","2","html-slider-response","283","","","","1",""
"4245","window","nanga,kujenga,umaga,kweli","kweli","n","2","html-keyboard-response","284","f","nanga","false","",""
"1940.0999999940395","","","","","2","html-slider-response","285","","","","3",""
"5566","box","kuacha,rafiki,adui,kitande","adui","j","3","html-keyboard-response","293","j","adui","true","","4"
"2311.5999999940395","","","","","3","html-slider-response","294","","","","1",""
"2490","","","","","3","html-keyboard-response","295","","","","",""
"3533","pants","pintal,chuki,hari,haki","haki","n","3","html-keyboard-response","296","n","haki","true","","4"
"1759.7000000029802","","","","","3","html-slider-response","297","","","","1",""
"1782","","","","","3","html-keyboard-response","298","","","","",""
"6266","cup","dagat,matumai,shimoni,jeraha","matumai","v","3","html-keyboard-response","299","v","matumai","true","","4"
"1647.4000000059605","","","","","3","html-slider-response","300","","","","1",""
"1938","","","","","3","html-keyboard-response","301","","","","",""
"6412","triangle","kihozi,kasadpan,bentaha,liog","kasadpan","v","3","html-keyboard-response","302","j","bentaha","false","","4"
"12683.699999988079","","","","","3","html-slider-response","303","","","","2",""
"1861","","","","","3","html-keyboard-response","304","","","","",""
"24411","curtain","lisud,mchanga,bulwawan,chubani","mchanga","v","3","html-keyboard-response","305","n","chubani","false","","4"
"1501.2000000029802","","","","","3","html-slider-response","306","","","","1",""
"5100","","","","","3","html-keyboard-response","307","","","","",""
"2149","clock","mbwa,kartasi,abang,osha","mbwa","f","3","html-keyboard-response","308","j","abang","false","","4"
"2658.9000000059605","","","","","3","html-slider-response","309","","","","3",""
"4213","","","","","3","html-keyboard-response","310","","","","",""
"6860","mirror","rangi,kanding,furaha,sulagma","sulagma","n","3","html-keyboard-response","311","n","sulagma","true","","4"
"1749.6000000089407","","","","","3","html-slider-response","312","","","","2",""
"1546","","","","","3","html-keyboard-response","313","","","","",""
"5480","coffin","barua,kioo,tubag,hulma","kioo","v","3","html-keyboard-response","314","v","kioo","true","","1"
"2118.7000000029802","","","","","3","html-slider-response","315","","","","5",""
"1018","","","","","3","html-keyboard-response","316","","","","",""
"1945","magazine","kiti,gundi,mchawi,bahandi","kiti","f","3","html-keyboard-response","317","f","kiti","true","","4"
"1839.2999999970198","","","","","3","html-slider-response","318","","","","5",""
"837","","","","","3","html-keyboard-response","319","","","","",""
"6669","column","pundok,dila,ufagio,pala","ufagio","j","3","html-keyboard-response","320","j","ufagio","true","","1"
"1896.5","","","","","3","html-slider-response","321","","","","5",""
"959","","","","","3","html-keyboard-response","322","","","","",""
"1924","number","shule,kengele,choori,mundamo","mundamo","n","3","html-keyboard-response","323","n","mundamo","true","","4"
"1613.5","","","","","3","html-slider-response","324","","","","5",""
"939","","","","","3","html-keyboard-response","325","","","","",""
"6222","rose","singizi,mwanake,paghalad,amani","paghalad","j","3","html-keyboard-response","326","j","paghalad","true","","4"
"1635.5999999940395","","","","","3","html-slider-response","327","","","","1",""
"2512","","","","","3","html-keyboard-response","328","","","","",""
"5838","eel","ishara,msumari,kunywa,kabuang","msumari","v","3","html-keyboard-response","329","f","ishara","false","","4"
"1366.7000000029802","","","","","3","html-slider-response","330","","","","1",""
"4223","","","","","3","html-keyboard-response","331","","","","",""
"2529","gift","baba,nyange,baso,pagtawag","pagtawag","n","3","html-keyboard-response","332","n","pagtawag","true","","4"
"1659.5","","","","","3","html-slider-response","333","","","","5",""
"983","","","","","3","html-keyboard-response","334","","","","",""
"3351","apple","ukame,estante,kisu,edad","kisu","j","3","html-keyboard-response","335","j","kisu","true","","1"
"2695","","","","","3","html-slider-response","336","","","","5",""
"1342","","","","","3","html-keyboard-response","337","","","","",""
"2058","wheel","punda,tawo,bafuni,baadaye","bafuni","j","3","html-keyboard-response","338","j","bafuni","true","","1"
"1670.300000011921","","","","","3","html-slider-response","339","","","","5",""
"1365","","","","","3","html-keyboard-response","340","","","","",""
"1970","knee","mvuke,kubale,bili,duka","duka","n","3","html-keyboard-response","341","n","duka","true","","4"
"1534.3999999910593","","","","","3","html-slider-response","342","","","","5",""
"1108","","","","","3","html-keyboard-response","343","","","","",""
"4341","basket","kumbuka,kumba,utepe,hasira","kumba","v","3","html-keyboard-response","344","v","kumba","true","","1"
"1693","","","","","3","html-slider-response","345","","","","5",""
"972","","","","","3","html-keyboard-response","346","","","","",""
"4118","park","tambok,bunifu,pwani,ihalas","bunifu","v","3","html-keyboard-response","347","v","bunifu","true","","4"
"1332.5999999940395","","","","","3","html-slider-response","348","","","","4",""
"2457","","","","","3","html-keyboard-response","349","","","","",""
"3127","finger","simu,moyo,sufuria,lima","moyo","v","3","html-keyboard-response","350","j","sufuria","false","","4"
"1636.7999999970198","","","","","3","html-slider-response","351","","","","4",""
"3549","","","","","3","html-keyboard-response","352","","","","",""
"3532","boat","hamsi,agalon,pombe,kitanda","agalon","v","3","html-keyboard-response","353","v","agalon","true","","4"
"1625.1000000089407","","","","","3","html-slider-response","354","","","","1",""
"3109","","","","","3","html-keyboard-response","355","","","","",""
"7750","hill","kushoto,kukimba,matumbo,sweta","matumbo","j","3","html-keyboard-response","356","j","matumbo","true","","4"
"1587.2999999970198","","","","","3","html-slider-response","357","","","","1",""
"3806","","","","","3","html-keyboard-response","358","","","","",""
"4117","train","itik,dakika,sayari,mungu","sayari","j","3","html-keyboard-response","359","j","sayari","true","","4"
"2020","","","","","3","html-slider-response","360","","","","5",""
"1039","","","","","3","html-keyboard-response","361","","","","",""
"2789","wolf","lugha,kaburi,ndizi,mchuzi","lugha","f","3","html-keyboard-response","362","f","lugha","true","","4"
"1107.8999999910593","","","","","3","html-slider-response","363","","","","2",""
"1815","","","","","3","html-keyboard-response","364","","","","",""
"4556","snake","pagtukod,jansa,karon,mvringo","pagtukod","f","3","html-keyboard-response","365","v","jansa","false","","4"
"1028.3999999910593","","","","","3","html-slider-response","366","","","","1",""
"5550","","","","","3","html-keyboard-response","367","","","","",""
"4139","tooth","kabalaka,kijiko,uadui,pahiyum","kabalaka","f","3","html-keyboard-response","368","f","kabalaka","true","","4"
"1298.5","","","","","3","html-slider-response","369","","","","4",""
"1477","","","","","3","html-keyboard-response","370","","","","",""
"5096","notebook","kemia,msitu,kila,mdudu","kemia","f","3","html-keyboard-response","371","n","mdudu","false","","4"
"1860.9000000059605","","","","","3","html-slider-response","372","","","","1",""
"3819","","","","","3","html-keyboard-response","373","","","","",""
"4768","flag","trekta,ndege,mkate,kawa","trekta","f","3","html-keyboard-response","374","f","trekta","true","","4"
"1197.8999999910593","","","","","3","html-slider-response","375","","","","1",""
"4695","","","","","3","html-keyboard-response","376","","","","",""
"3566","squirrel","mahugaw,hofu,ukweli,kichwa","hofu","v","3","html-keyboard-response","377","j","ukweli","false","","4"
"1546.0999999940395","","","","","3","html-slider-response","378","","","","2",""
"4088","","","","","3","html-keyboard-response","379","","","","",""
"2529","door","tena,soko,surali,nyota","surali","j","3","html-keyboard-response","380","f","tena","false","","4"
"1873.0999999940395","","","","","3","html-slider-response","381","","","","1",""
"4087","","","","","3","html-keyboard-response","382","","","","",""
"2181","salmon","mzungu,seri,sensilyo,baharia","sensilyo","j","3","html-keyboard-response","383","j","sensilyo","true","","4"
"1366.7000000029802","","","","","3","html-slider-response","384","","","","5",""
"904","","","","","3","html-keyboard-response","385","","","","",""
"3701","shoulder","mkuu,kelele,ndaniya,guruwe","mkuu","f","3","html-keyboard-response","386","n","guruwe","false","","4"
"1726.1000000089407","","","","","3","html-slider-response","387","","","","1",""
"4807","","","","","3","html-keyboard-response","388","","","","",""
"6873","lamp","daub,afya,bilaska,mbolea","afya","v","3","html-keyboard-response","389","n","mbolea","false","","4"
"2209.9000000059605","","","","","3","html-slider-response","390","","","","1",""
"4931","","","","","3","html-keyboard-response","391","","","","",""
"2465","shelf","bungtod,kadaot,pamahaw,awit","pamahaw","j","3","html-keyboard-response","392","j","pamahaw","true","","1"
"1354.699999988079","","","","","3","html-slider-response","393","","","","5",""
"1917","","","","","3","html-keyboard-response","394","","","","",""
"3128","human","bado,tinapay,kikapu,punguza","tinapay","v","3","html-keyboard-response","395","v","tinapay","true","","4"
"2794.6000000089407","","","","","3","html-slider-response","396","","","","5",""
"1073","","","","","3","html-keyboard-response","397","","","","",""
"3261","towel","pagpalit,tembo,funzi,pito","pagpalit","f","3","html-keyboard-response","398","j","funzi","false","","4"
"1603.7999999970198","","","","","3","html-slider-response","399","","","","1",""
"6721","","","","","3","html-keyboard-response","400","","","","",""
"10007","cat","neyemba,baki,akili,paghukom","paghukom","n","3","html-keyboard-response","401","j","akili","false","","4"
"1861.0999999940395","","","","","3","html-slider-response","402","","","","1",""
"10861","","","","","3","html-keyboard-response","403","","","","",""
"3667","spider","bunyag,kamwe,mkboa,atop","kamwe","v","3","html-keyboard-response","404","v","kamwe","true","","4"
"1400.2000000029802","","","","","3","html-slider-response","405","","","","4",""
"1040","","","","","3","html-keyboard-response","406","","","","",""
"2722","window","nanga,kweli,kujenga,umaga","kweli","v","3","html-keyboard-response","407","n","umaga","false","","4"
"2041.5","","","","","3","html-slider-response","408","","","","1",""
"2086","","","","","3","html-keyboard-response","409","","","","",""
"1834","woman","bandari,pagtabon,bituin,kovuli","pagtabon","v","3","html-keyboard-response","410","v","pagtabon","true","","1"
"1276","","","","","3","html-slider-response","411","","","","5",""
"803","","","","","3","html-keyboard-response","412","","","","",""
"4736","giraffe","daraja,jumatu,mahitabo,hangyo","mahitabo","j","3","html-keyboard-response","413","n","hangyo","false","","4"
"1691.8999999910593","","","","","3","html-slider-response","414","","","","1",""
"4809","","","","","3","html-keyboard-response","415","","","","",""
"5174","elephant","petye,pagduol,suka,kito","kito","n","3","html-keyboard-response","416","n","kito","true","","4"
"2389.300000011921","","","","","3","html-slider-response","417","","","","4",""
"780","","","","","3","html-keyboard-response","418","","","","",""
"3452","cave","kesho,ganti,maisha,nyundo","kesho","f","3","html-keyboard-response","419","v","ganti","false","","4"
"1625.2999999970198","","","","","3","html-slider-response","420","","","","5",""
"1252","","","","","3","html-keyboard-response","421","","","","",""
"4758","bread","kaili,dizeli,bugas,dari","dari","n","3","html-keyboard-response","422","n","dari","true","","4"
"1433.5999999940395","","","","","3","html-slider-response","423","","","","5",""
"634","","","","","3","html-keyboard-response","424","","","","",""
"2226","stone","wingi,ulimwengu,mkasi,asili","wingi","f","3","html-keyboard-response","425","f","wingi","true","","4"
"1974.2000000029802","","","","","3","html-slider-response","426","","","","5",""
"725","","","","","3","html-keyboard-response","427","","","","",""
"1539","donkey","bloke,lalake,elfu,rombus","elfu","j","3","html-keyboard-response","428","j","elfu","true","","4"
"1434.6000000089407","","","","","3","html-slider-response","429","","","","5",""
"568","","","","","3","html-keyboard-response","430","","","","",""
"3789","bridge","daima,ngono,sahani,panya","sahani","j","3","html-keyboard-response","431","f","daima","false","","4"
"2289.2000000029802","","","","","3","html-slider-response","432","","","","3",""
"3694","","","","","3","html-keyboard-response","433","","","","",""
"8470","bonfire","mwezi,mfuko,kusanya,goti","goti","n","3","html-keyboard-response","434","n","goti","true","","4"
"1647.5999999940395","","","","","3","html-slider-response","435","","","","5",""
"747","","","","","3","html-keyboard-response","436","","","","",""
"4093","book","kuhesa,picha,mali,mara","mali","j","3","html-keyboard-response","437","n","mara","false","","4"
"1479.5","","","","","3","html-slider-response","438","","","","2",""
"2300","","","","","3","html-keyboard-response","439","","","","",""
"2237","fish","buli,bala,baho,imani","buli","f","3","html-keyboard-response","440","f","buli","true","","4"
"1580.5","","","","","3","html-slider-response","441","","","","5",""
"545","","","","","3","html-keyboard-response","442","","","","",""
"1888","spoon","betri,nzuri,ngazi,pagsulod","pagsulod","n","3","html-keyboard-response","443","n","pagsulod","true","","4"
"1456.7999999970198","","","","","3","html-slider-response","444","","","","5",""
"601","","","","","3","html-keyboard-response","445","","","","",""
"1518","scissors","duga,mtawa,tanuri,suga","tanuri","j","3","html-keyboard-response","446","j","tanuri","true","","4"
"1614.2000000029802","","","","","3","html-slider-response","447","","","","5",""
"657","","","","","3","html-keyboard-response","448","","","","",""
"8764","page","wakala,ishiri,skina,wimbo","wimbo","n","3","html-keyboard-response","449","j","skina","false","","4"
"1568.2999999970198","","","","","3","html-slider-response","450","","","","1",""
"4031","","","","","3","html-keyboard-response","451","","","","",""
"3250","nose","gubat,kopa,kidole,sehemu","sehemu","n","3","html-keyboard-response","452","n","sehemu","true","","1"
"1535.2000000029802","","","","","3","html-slider-response","453","","","","5",""
"995","","","","","3","html-keyboard-response","454","","","","",""
"1653","ceiling","maua,kugita,kawaida,rayna","maua","f","3","html-keyboard-response","455","f","maua","true","","4"
"1535.5","","","","","3","html-slider-response","456","","","","5",""
"972","","","","","3","html-keyboard-response","457","","","","",""
"6727","bucket","baga,kiatu,ijayo,init","kiatu","v","3","html-keyboard-response","458","v","kiatu","true","","4"
"1141","","","","","3","html-slider-response","459","","","","5",""
"971","","","","","3","html-keyboard-response","460","","","","",""
"2419","berry","abogado,kofia,nogozi,kinywa","kofia","v","3","html-keyboard-response","461","v","kofia","true","","1"
"1657.9000000059605","","","","","3","html-slider-response","462","","","","5",""
"1017","","","","","3","html-keyboard-response","463","","","","",""
"2025","mother","kahawa,mbuzi,babaye,jokofu","babaye","j","3","html-keyboard-response","464","j","babaye","true","","1"
"1568.5","","","","","3","html-slider-response","465","","","","5",""
"770","","","","","3","html-keyboard-response","466","","","","",""
"9561","mosquito","isda,taras,martilyo,gutom","martilyo","j","3","html-keyboard-response","467","j","martilyo","true","","4"
"1411.2999999970198","","","","","3","html-slider-response","468","","","","2",""
"1478","","","","","3","html-keyboard-response","469","","","","",""
"4286","perfume","bino,katuyoan,sungura,ndogo","katuyoan","v","3","html-keyboard-response","470","j","sungura","false","","4"
"1804.8999999910593","","","","","3","html-slider-response","471","","","","2",""
"8757","","","","","3","html-keyboard-response","472","","","","",""
"6376","sheet","juuya,watu,bililhon,kamantis","bililhon","j","3","html-keyboard-response","473","v","watu","false","","4"
"1570.2999999970198","","","","","3","html-slider-response","474","","","","2",""
"1906","","","","","3","html-keyboard-response","475","","","","",""
"2215","puppet","napulo,lamok,godoro,mazishi","mazishi","n","3","html-keyboard-response","476","n","mazishi","true","","1"
"1748.5999999940395","","","","","3","html-slider-response","477","","","","5",""
"633","","","","","3","html-keyboard-response","478","","","","",""
"3780","poster","madungog,nchi,fedha,kasuko","madungog","f","3","html-keyboard-response","479","f","madungog","true","","4"
"1231.2000000029802","","","","","3","html-slider-response","480","","","","5",""
"657","","","","","3","html-keyboard-response","481","","","","",""
"6557","music","mraba,mageho,baiski,tumbo","baiski","j","3","html-keyboard-response","482","n","tumbo","false","","4"
"1107.9000000059605","","","","","3","html-slider-response","483","","","","1",""
"4673","","","","","3","html-keyboard-response","484","","","","",""
"4521","key","miaka,chombo,goma,ahos","chombo","v","3","html-keyboard-response","485","n","ahos","false","","4"
"1985.1000000089407","","","","","3","html-slider-response","486","","","","3",""
"2603","","","","","3","html-keyboard-response","487","","","","",""
"2744","sock","ndoora,kimysa,mamba,mtirka","mamba","j","3","html-keyboard-response","488","j","mamba","true","","4"
"1231.199999988079","","","","","3","html-slider-response","489","","","","5",""
"1175","","","","","3","html-keyboard-response","490","","","","",""
"3149","marker","mapafu,maji,salita,atay","maji","v","3","html-keyboard-response","491","v","maji","true","","4"
"1209.2000000029802","","","","","3","html-slider-response","492","","","","5",""
"611","","","","","3","html-keyboard-response","493","","","","",""
"2182","office","hazini,yatima,kuna,leso","leso","n","3","html-keyboard-response","494","n","leso","true","","4"
"1389.1000000089407","","","","","3","html-slider-response","495","","","","5",""
"1343","","","","","3","html-keyboard-response","496","","","","",""
"9966","shoe","nyeusi,hatua,uyoga,kama","uyoga","j","3","html-keyboard-response","497","v","hatua","false","","4"
"1568.5","","","","","3","html-slider-response","498","","","","2",""
"3413","","","","","3","html-keyboard-response","499","","","","",""
"6030","cop","bustani,jikoni,mechezo,bakus","mechezo","j","3","html-keyboard-response","500","f","bustani","false","","4"
"1636","","","","","3","html-slider-response","501","","","","1",""
"5798","","","","","3","html-keyboard-response","502","","","","",""
"6872","bank","kudhibi,tualya,silingan,ofisi","silingan","j","3","html-keyboard-response","503","v","tualya","false","","4"
"1253.7999999970198","","","","","3","html-slider-response","504","","","","1",""
"7171","","","","","3","html-keyboard-response","505","","","","",""
"2249","letter","filimbi,chuma,uhuru,kifua","kifua","n","3","html-keyboard-response","506","n","kifua","true","","1"
"1456.2000000029802","","","","","3","html-slider-response","507","","","","5",""
"747","","","","","3","html-keyboard-response","508","","","","",""
"1506","dog","lubi,washia,bahari,kalamu","bahari","j","3","html-keyboard-response","509","j","bahari","true","","1"
"1355.7000000029802","","","","","3","html-slider-response","510","","","","5",""
"521","","","","","3","html-keyboard-response","511","","","","",""
"2733","shop","samaki,nopya,kerida,ndezu","samaki","f","3","html-keyboard-response","512","f","samaki","true","","4"
"1354.2000000029802","","","","","3","html-slider-response","513","","","","4",""
"736","","","","","3","html-keyboard-response","514","","","","",""
"5431","flower","bega,tamasha,lobo,usiku","bega","f","3","html-keyboard-response","515","n","usiku","false","","4"
"2470.300000011921","","","","","3","html-slider-response","516","","","","3",""
"2771","","","","","3","html-keyboard-response","517","","","","",""
"3925","cigar","ndugu,kuta,adhabu,mlango","adhabu","j","3","html-keyboard-response","518","j","adhabu","true","","1"
"1648","","","","","3","html-slider-response","519","","","","5",""
"904","","","","","3","html-keyboard-response","520","","","","",""
"1720","hammer","mekno,kitovu,napakyas,layag","napakyas","j","3","html-keyboard-response","521","j","napakyas","true","","4"
"1265.2999999970198","","","","","3","html-slider-response","522","","","","5",""
"555","","","","","3","html-keyboard-response","523","","","","",""
"6625","fork","baboy,paghago,gorisi,mgonjwa","mgonjwa","n","3","html-keyboard-response","524","n","mgonjwa","true","","4"
"1456.8999999910593","","","","","3","html-slider-response","525","","","","2",""
"3346","","","","","3","html-keyboard-response","526","","","","",""
"1709","sun","bendi,luha,uongo,basi","basi","n","3","html-keyboard-response","527","n","basi","true","","1"
"22437.59999999404","","","","","3","html-slider-response","528","","","","5",""
"835","","","","","3","html-keyboard-response","529","","","","",""
"2396","ladder","mashua,pangalan,mwanga,kamba","pangalan","v","3","html-keyboard-response","530","v","pangalan","true","","4"
"2232.7999999970198","","","","","3","html-slider-response","531","","","","5",""
"555","","","","","3","html-keyboard-response","532","","","","",""
"1495","banana","kasamok,hagdan,twai,kazi","kazi","n","3","html-keyboard-response","533","n","kazi","true","","1"
"1254.5999999940395","","","","","3","html-slider-response","534","","","","5",""
"601","","","","","3","html-keyboard-response","535","","","","",""
"6109","pudding","abug,aibu,mpishi,iring","aibu","v","3","html-keyboard-response","536","j","mpishi","false","","4"
"1626.2000000029802","","","","","3","html-slider-response","537","","","","4",""
"1386","","","","","3","html-keyboard-response","538","","","","",""
"2835","body","nyundu,jibini,kununa,tindashan","tindashan","n","3","html-keyboard-response","539","n","tindashan","true","","4"
"3886","","","","","3","html-slider-response","540","","","","5",""
"1477","","","","","3","html-keyboard-response","541","","","","",""
"7470","bed","kalipay,haraka,mapintas,starehe","mapintas","j","3","html-keyboard-response","542","v","haraka","false","","4"
"1163.2000000029802","","","","","3","html-slider-response","543","","","","2",""
"5516","","","","","3","html-keyboard-response","544","","","","",""
"4691","tissue","ugomvi,lamigas,kisiwa,katika","ugomvi","f","3","html-keyboard-response","545","j","kisiwa","false","","4"
"1624.199999988079","","","","","3","html-slider-response","546","","","","2",""
"578","","","","","3","html-keyboard-response","547","","","","",""
"3768","candle","gabi,geza,farasi,kupanda","geza","v","3","html-keyboard-response","548","v","geza","true","","4"
"1343.2999999970198","","","","","3","html-slider-response","549","","","","4",""
"734","","","","","3","html-keyboard-response","550","","","","",""
"1722","tomato","chupi,chupa,takatak,mvua","mvua","n","3","html-keyboard-response","551","n","mvua","true","","1"
"1084.5","","","","","3","html-slider-response","552","","","","5",""
"656","","","","","3","html-keyboard-response","553","","","","",""
"8842","list","alizeti,kuzama,kaso,wingu","wingu","n","3","html-keyboard-response","554","j","kaso","false","","4"
"1444.1000000089407","","","","","3","html-slider-response","555","","","","2",""
"769","","","","","3","html-keyboard-response","556","","","","",""
"5365","olive","bata,siagi,jiwe,welder","jiwe","j","3","html-keyboard-response","557","j","jiwe","true","","4"
"1265.2000000029802","","","","","3","html-slider-response","558","","","","5",""
"555","","","","","3","html-keyboard-response","559","","","","",""
"1765","picture","silya,kubwa,chaki,asin","kubwa","v","3","html-keyboard-response","560","v","kubwa","true","","1"
"1738.2999999970198","","","","","3","html-slider-response","561","","","","5",""
"724","","","","","3","html-keyboard-response","562","","","","",""
"15432","page","wakala,ishiri,wimbo,skina","wimbo","j","4","html-keyboard-response","888","j","wimbo","true","",""
"1871.9000000059605","","","","","4","html-slider-response","889","","","","4",""
"2007","sheet","juuya,bililhon,watu,kamantis","bililhon","v","4","html-keyboard-response","890","v","bililhon","true","",""
"1524.0999999940395","","","","","4","html-slider-response","891","","","","5",""
"1624","ladder","mashua,mwanga,kamba,pangalan","pangalan","n","4","html-keyboard-response","892","n","pangalan","true","",""
"1490","","","","","4","html-slider-response","893","","","","5",""
"3649","door","tena,soko,surali,nyota","surali","j","4","html-keyboard-response","894","f","tena","false","",""
"1782.199999988079","","","","","4","html-slider-response","895","","","","4",""
"2939","spider","bunyag,mkboa,atop,kamwe","kamwe","n","4","html-keyboard-response","896","n","kamwe","true","",""
"1176.0999999940395","","","","","4","html-slider-response","897","","","","5",""
"1522","picture","silya,kubwa,chaki,asin","kubwa","v","4","html-keyboard-response","898","v","kubwa","true","",""
"1479.7000000178814","","","","","4","html-slider-response","899","","","","5",""
"1724","boat","agalon,hamsi,pombe,kitanda","agalon","f","4","html-keyboard-response","900","f","agalon","true","",""
"1322.699999988079","","","","","4","html-slider-response","901","","","","5",""
"1792","donkey","bloke,elfu,lalake,rombus","elfu","v","4","html-keyboard-response","902","v","elfu","true","",""
"1276.9000000059605","","","","","4","html-slider-response","903","","","","5",""
"4987","book","kuhesa,mali,picha,mara","mali","v","4","html-keyboard-response","904","v","mali","true","",""
"973.0999999940395","","","","","4","html-slider-response","905","","","","5",""
"5066","cup","dagat,shimoni,jeraha,matumai","matumai","n","4","html-keyboard-response","906","n","matumai","true","",""
"1242.9000000059605","","","","","4","html-slider-response","907","","","","2",""
"1669","sun","bendi,basi,luha,uongo","basi","v","4","html-keyboard-response","908","v","basi","true","",""
"1119.0999999940395","","","","","4","html-slider-response","909","","","","5",""
"8599","pudding","abug,mpishi,iring,aibu","aibu","n","4","html-keyboard-response","910","n","aibu","true","",""
"1028.4000000059605","","","","","4","html-slider-response","911","","","","2",""
"1421","human","bado,kikapu,punguza,tinapay","tinapay","n","4","html-keyboard-response","912","n","tinapay","true","",""
"1377.4000000059605","","","","","4","html-slider-response","913","","","","5",""
"3154","squirrel","mahugaw,hofu,ukweli,kichwa","hofu","v","4","html-keyboard-response","914","v","hofu","true","",""
"1197.300000011921","","","","","4","html-slider-response","915","","","","5",""
"3211","park","bunifu,tambok,pwani,ihalas","bunifu","f","4","html-keyboard-response","916","f","bunifu","true","",""
"1185.5","","","","","4","html-slider-response","917","","","","5",""
"3840","poster","nchi,fedha,madungog,kasuko","madungog","j","4","html-keyboard-response","918","j","madungog","true","",""
"1266.0999999940395","","","","","4","html-slider-response","919","","","","5",""
"1568","wolf","kaburi,ndizi,lugha,mchuzi","lugha","j","4","html-keyboard-response","920","j","lugha","true","",""
"1163","","","","","4","html-slider-response","921","","","","5",""
"2310","cat","neyemba,paghukom,baki,akili","paghukom","v","4","html-keyboard-response","922","v","paghukom","true","",""
"1185.5","","","","","4","html-slider-response","923","","","","5",""
"1298","fish","bala,baho,imani,buli","buli","n","4","html-keyboard-response","924","n","buli","true","",""
"1140.800000011921","","","","","4","html-slider-response","925","","","","5",""
"2087","tooth","kijiko,uadui,kabalaka,pahiyum","kabalaka","j","4","html-keyboard-response","926","j","kabalaka","true","",""
"1242.7000000178814","","","","","4","html-slider-response","927","","","","5",""
"3008","cave","ganti,maisha,nyundo,kesho","kesho","n","4","html-keyboard-response","928","n","kesho","true","",""
"1073.8999999761581","","","","","4","html-slider-response","929","","","","5",""
"3368","lamp","daub,afya,bilaska,mbolea","afya","v","4","html-keyboard-response","930","v","afya","true","",""
"1242.4000000059605","","","","","4","html-slider-response","931","","","","5",""
"1299","banana","kasamok,hagdan,twai,kazi","kazi","n","4","html-keyboard-response","932","n","kazi","true","",""
"1861.300000011921","","","","","4","html-slider-response","933","","","","5",""
"1444","bonfire","mwezi,mfuko,goti,kusanya","goti","j","4","html-keyboard-response","934","j","goti","true","",""
"1253.800000011921","","","","","4","html-slider-response","935","","","","5",""
"1973","cop","mechezo,bustani,jikoni,bakus","mechezo","f","4","html-keyboard-response","936","f","mechezo","true","",""
"1321.0999999940395","","","","","4","html-slider-response","937","","","","5",""
"1477","marker","mapafu,salita,maji,atay","maji","j","4","html-keyboard-response","938","j","maji","true","",""
"1490.7000000178814","","","","","4","html-slider-response","939","","","","5",""
"3672","window","nanga,kujenga,kweli,umaga","kweli","j","4","html-keyboard-response","940","j","kweli","true","",""
"1489.4000000059605","","","","","4","html-slider-response","941","","","","5",""
"2457","body","nyundu,jibini,kununa,tindashan","tindashan","n","4","html-keyboard-response","942","n","tindashan","true","",""
"1433.699999988079","","","","","4","html-slider-response","943","","","","5",""
"1849","apple","kisu,ukame,estante,edad","kisu","f","4","html-keyboard-response","944","f","kisu","true","",""
"1243.2000000178814","","","","","4","html-slider-response","945","","","","5",""
"2299","salmon","mzungu,sensilyo,seri,baharia","sensilyo","v","4","html-keyboard-response","946","v","sensilyo","true","",""
"1119.2000000178814","","","","","4","html-slider-response","947","","","","5",""
"1691","bed","kalipay,haraka,mapintas,starehe","mapintas","j","4","html-keyboard-response","948","j","mapintas","true","",""
"1377.300000011921","","","","","4","html-slider-response","949","","","","5",""
"1512","berry","abogado,nogozi,kofia,kinywa","kofia","j","4","html-keyboard-response","950","j","kofia","true","",""
"1309.699999988079","","","","","4","html-slider-response","951","","","","5",""
"2007","mirror","rangi,kanding,sulagma,furaha","sulagma","j","4","html-keyboard-response","952","j","sulagma","true","",""
"1253","","","","","4","html-slider-response","953","","","","5",""
"3413","flag","ndege,mkate,trekta,kawa","trekta","j","4","html-keyboard-response","954","j","trekta","true","",""
"1073.699999988079","","","","","4","html-slider-response","955","","","","5",""
"1488","shoulder","kelele,ndaniya,guruwe,mkuu","mkuu","n","4","html-keyboard-response","956","n","mkuu","true","",""
"1299.5","","","","","4","html-slider-response","957","","","","5",""
"2423","tissue","lamigas,kisiwa,ugomvi,katika","ugomvi","j","4","html-keyboard-response","958","j","ugomvi","true","",""
"1894.699999988079","","","","","4","html-slider-response","959","","","","5",""
"10759","notebook","msitu,kila,kemia,mdudu","kemia","j","4","html-keyboard-response","960","j","kemia","true","",""
"3583","","","","","4","html-slider-response","961","","","","4",""
"7868","snake","jansa,karon,mvringo,pagtukod","pagtukod","n","4","html-keyboard-response","962","n","pagtukod","true","",""
"1287.5999999940395","","","","","4","html-slider-response","963","","","","5",""
"2164","finger","moyo,simu,sufuria,lima","moyo","f","4","html-keyboard-response","964","f","moyo","true","",""
"1265","","","","","4","html-slider-response","965","","","","5",""
"6181","basket","kumbuka,kumba,utepe,hasira","kumba","v","4","html-keyboard-response","966","v","kumba","true","",""
"1241.7999999821186","","","","","4","html-slider-response","967","","","","5",""
"3581","curtain","lisud,bulwawan,mchanga,chubani","mchanga","j","4","html-keyboard-response","968","j","mchanga","true","",""
"2356.7999999821186","","","","","4","html-slider-response","969","","","","4",""
"2040","perfume","bino,katuyoan,sungura,ndogo","katuyoan","v","4","html-keyboard-response","970","v","katuyoan","true","",""
"1456.7000000178814","","","","","4","html-slider-response","971","","","","5",""
"1681","key","miaka,goma,chombo,ahos","chombo","j","4","html-keyboard-response","972","j","chombo","true","",""
"1185.800000011921","","","","","4","html-slider-response","973","","","","5",""
"1500","olive","jiwe,bata,siagi,welder","jiwe","f","4","html-keyboard-response","974","f","jiwe","true","",""
"1287.5999999940395","","","","","4","html-slider-response","975","","","","5",""
"2400","rose","paghalad,singizi,mwanake,amani","paghalad","f","4","html-keyboard-response","976","f","paghalad","true","",""
"1152.4000000059605","","","","","4","html-slider-response","977","","","","5",""
"2254","bridge","daima,sahani,ngono,panya","sahani","v","4","html-keyboard-response","978","v","sahani","true","",""
"1062.5999999940395","","","","","4","html-slider-response","979","","","","5",""
"2243","hill","kushoto,kukimba,matumbo,sweta","matumbo","j","4","html-keyboard-response","980","j","matumbo","true","",""
"1636.199999988079","","","","","4","html-slider-response","981","","","","5",""
"6157","letter","filimbi,chuma,uhuru,kifua","kifua","n","4","html-keyboard-response","982","n","kifua","true","",""
"2390.2000000178814","","","","","4","html-slider-response","983","","","","3",""
"2096","sock","ndoora,mamba,kimysa,mtirka","mamba","v","4","html-keyboard-response","984","v","mamba","true","",""
"1726","","","","","4","html-slider-response","985","","","","5",""
"6360","fork","baboy,mgonjwa,paghago,gorisi","mgonjwa","v","4","html-keyboard-response","986","v","mgonjwa","true","",""
"1906.0999999940395","","","","","4","html-slider-response","987","","","","5",""
"2108","box","adui,kuacha,rafiki,kitande","adui","f","4","html-keyboard-response","988","f","adui","true","",""
"1321.4000000059605","","","","","4","html-slider-response","989","","","","5",""
"1939","gift","baba,nyange,baso,pagtawag","pagtawag","n","4","html-keyboard-response","990","n","pagtawag","true","",""
"1231.1000000238419","","","","","4","html-slider-response","991","","","","5",""
"5472","bucket","kiatu,baga,ijayo,init","kiatu","f","4","html-keyboard-response","992","f","kiatu","true","",""
"1613.4000000059605","","","","","4","html-slider-response","993","","","","5",""
"5168","shop","samaki,nopya,kerida,ndezu","samaki","f","4","html-keyboard-response","994","f","samaki","true","",""
"1287.5","","","","","4","html-slider-response","995","","","","4",""
"4673","puppet","mazishi,napulo,lamok,godoro","mazishi","f","4","html-keyboard-response","996","f","mazishi","true","",""
"1310.2999999821186","","","","","4","html-slider-response","997","","","","4",""
"1815","nose","gubat,kopa,kidole,sehemu","sehemu","n","4","html-keyboard-response","998","n","sehemu","true","",""
"1219.800000011921","","","","","4","html-slider-response","999","","","","5",""
"2716","music","mraba,mageho,baiski,tumbo","baiski","j","4","html-keyboard-response","1000","j","baiski","true","",""
"1164.300000011921","","","","","4","html-slider-response","1001","","","","5",""
"12322","dog","lubi,bahari,washia,kalamu","bahari","v","4","html-keyboard-response","1002","j","washia","false","",""
"1220.0999999940395","","","","","4","html-slider-response","1003","","","","1",""
"2794","eel","ishara,kunywa,kabuang,msumari","msumari","n","4","html-keyboard-response","1004","n","msumari","true","",""
"1489.800000011921","","","","","4","html-slider-response","1005","","","","5",""
"1590","number","shule,kengele,choori,mundamo","mundamo","n","4","html-keyboard-response","1006","n","mundamo","true","",""
"1299.3999999761581","","","","","4","html-slider-response","1007","","","","5",""
"2929","tomato","mvua,chupi,chupa,takatak","mvua","f","4","html-keyboard-response","1008","f","mvua","true","",""
"1174.300000011921","","","","","4","html-slider-response","1009","","","","5",""
"1456","coffin","barua,tubag,hulma,kioo","kioo","n","4","html-keyboard-response","1010","n","kioo","true","",""
"1230.800000011921","","","","","4","html-slider-response","1011","","","","5",""
"1264","knee","mvuke,kubale,bili,duka","duka","n","4","html-keyboard-response","1012","n","duka","true","",""
"1669.7999999821186","","","","","4","html-slider-response","1013","","","","5",""
"2321","woman","bandari,pagtabon,bituin,kovuli","pagtabon","v","4","html-keyboard-response","1014","v","pagtabon","true","",""
"1164.5999999940395","","","","","4","html-slider-response","1015","","","","5",""
"1691","stone","wingi,ulimwengu,mkasi,asili","wingi","f","4","html-keyboard-response","1016","f","wingi","true","",""
"1333.2999999821186","","","","","4","html-slider-response","1017","","","","5",""
"1388","bread","kaili,dizeli,bugas,dari","dari","n","4","html-keyboard-response","1018","n","dari","true","",""
"1568.4000000059605","","","","","4","html-slider-response","1019","","","","5",""
"5764","triangle","kihozi,kasadpan,bentaha,liog","kasadpan","v","4","html-keyboard-response","1020","v","kasadpan","true","",""
"1929.199999988079","","","","","4","html-slider-response","1021","","","","1",""
"2074","scissors","duga,tanuri,mtawa,suga","tanuri","v","4","html-keyboard-response","1022","v","tanuri","true","",""
"1186.5999999940395","","","","","4","html-slider-response","1023","","","","5",""
"8126","giraffe","daraja,jumatu,mahitabo,hangyo","mahitabo","j","4","html-keyboard-response","1024","j","mahitabo","true","",""
"1985.5999999940395","","","","","4","html-slider-response","1025","","","","1",""
"2322","flower","tamasha,lobo,usiku,bega","bega","n","4","html-keyboard-response","1026","n","bega","true","",""
"1050.699999988079","","","","","4","html-slider-response","1027","","","","5",""
"2130","candle","gabi,farasi,kupanda,geza","geza","n","4","html-keyboard-response","1028","n","geza","true","",""
"1074.0999999940395","","","","","4","html-slider-response","1029","","","","5",""
"1106","mother","kahawa,mbuzi,jokofu,babaye","babaye","n","4","html-keyboard-response","1030","n","babaye","true","",""
"1400.5999999940395","","","","","4","html-slider-response","1031","","","","5",""
"5561","towel","pagpalit,tembo,funzi,pito","pagpalit","f","4","html-keyboard-response","1032","f","pagpalit","true","",""
"1141.199999988079","","","","","4","html-slider-response","1033","","","","5",""
"1736","elephant","petye,pagduol,suka,kito","kito","n","4","html-keyboard-response","1034","n","kito","true","",""
"1524.1000000238419","","","","","4","html-slider-response","1035","","","","5",""
"4426","shelf","pamahaw,bungtod,kadaot,awit","pamahaw","f","4","html-keyboard-response","1036","n","awit","false","",""
"1365.9000000059605","","","","","4","html-slider-response","1037","","","","4",""
"1545","mosquito","isda,martilyo,taras,gutom","martilyo","v","4","html-keyboard-response","1038","v","martilyo","true","",""
"1658.5999999940395","","","","","4","html-slider-response","1039","","","","5",""
"1467","column","pundok,dila,pala,ufagio","ufagio","n","4","html-keyboard-response","1040","n","ufagio","true","",""
"1602.4000000059605","","","","","4","html-slider-response","1041","","","","5",""
"6192","pants","pintal,chuki,hari,haki","haki","n","4","html-keyboard-response","1042","j","hari","false","",""
"1613.2000000178814","","","","","4","html-slider-response","1043","","","","4",""
"7068","list","alizeti,wingu,kuzama,kaso","wingu","v","4","html-keyboard-response","1044","v","wingu","true","",""
"1288.0999999940395","","","","","4","html-slider-response","1045","","","","4",""
"5764","bank","silingan,kudhibi,tualya,ofisi","silingan","f","4","html-keyboard-response","1046","f","silingan","true","",""
"1175.0999999940395","","","","","4","html-slider-response","1047","","","","5",""
"2873","clock","kartasi,mbwa,abang,osha","mbwa","v","4","html-keyboard-response","1048","v","mbwa","true","",""
"1377.4000000059605","","","","","4","html-slider-response","1049","","","","4",""
"1602","ceiling","kugita,kawaida,maua,rayna","maua","j","4","html-keyboard-response","1050","j","maua","true","",""
"1164.2999999821186","","","","","4","html-slider-response","1051","","","","5",""
"1556","train","itik,dakika,mungu,sayari","sayari","n","4","html-keyboard-response","1052","n","sayari","true","",""
"1254.300000011921","","","","","4","html-slider-response","1053","","","","5",""
"1433","magazine","kiti,gundi,mchawi,bahandi","kiti","f","4","html-keyboard-response","1054","f","kiti","true","",""
"1321.800000011921","","","","","4","html-slider-response","1055","","","","5",""
"1501","office","hazini,yatima,kuna,leso","leso","n","4","html-keyboard-response","1056","n","leso","true","",""
"1647.0999999940395","","","","","4","html-slider-response","1057","","","","5",""
"1816","wheel","punda,bafuni,tawo,baadaye","bafuni","v","4","html-keyboard-response","1058","v","bafuni","true","",""
"1163.699999988079","","","","","4","html-slider-response","1059","","","","5",""
"1670","spoon","betri,pagsulod,nzuri,ngazi","pagsulod","v","4","html-keyboard-response","1060","v","pagsulod","true","",""
"1174.199999988079","","","","","4","html-slider-response","1061","","","","5",""
"1670","hammer","napakyas,mekno,kitovu,layag","napakyas","f","4","html-keyboard-response","1062","f","napakyas","true","",""
"1624.699999988079","","","","","4","html-slider-response","1063","","","","5",""
"4954","cigar","ndugu,kuta,mlango,adhabu","adhabu","n","4","html-keyboard-response","1064","j","mlango","false","",""
"1849.7999999821186","","","","","4","html-slider-response","1065","","","","3",""
"1557","shoe","nyeusi,hatua,kama,uyoga","uyoga","n","4","html-keyboard-response","1066","n","uyoga","true","",""
"1140.7000000178814","","","","","4","html-slider-response","1067","","","","5",""
"2551","list","wingu,alizeti,kuzama,kaso","wingu","f","5","html-keyboard-response","1069","f","wingu","true","",""
"2400.7999999821186","","","","","5","html-slider-response","1070","","","","4",""
"1410","number","shule,kengele,choori,mundamo","mundamo","n","5","html-keyboard-response","1071","n","mundamo","true","",""
"1490.0999999940395","","","","","5","html-slider-response","1072","","","","5",""
"1421","apple","kisu,ukame,estante,edad","kisu","f","5","html-keyboard-response","1073","f","kisu","true","",""
"1287.699999988079","","","","","5","html-slider-response","1074","","","","5",""
"3131","knee","mvuke,kubale,bili,duka","duka","n","5","html-keyboard-response","1075","n","duka","true","",""
"1355.7000000178814","","","","","5","html-slider-response","1076","","","","5",""
"1162","tooth","kijiko,uadui,pahiyum,kabalaka","kabalaka","n","5","html-keyboard-response","1077","n","kabalaka","true","",""
"1332.5","","","","","5","html-slider-response","1078","","","","5",""
"1613","berry","abogado,kofia,nogozi,kinywa","kofia","v","5","html-keyboard-response","1079","v","kofia","true","",""
"1129.8999999761581","","","","","5","html-slider-response","1080","","","","5",""
"1557","bridge","sahani,daima,ngono,panya","sahani","f","5","html-keyboard-response","1081","f","sahani","true","",""
"1141.0999999940395","","","","","5","html-slider-response","1082","","","","5",""
"1500","perfume","bino,katuyoan,sungura,ndogo","katuyoan","v","5","html-keyboard-response","1083","v","katuyoan","true","",""
"1569.199999988079","","","","","5","html-slider-response","1084","","","","5",""
"1557","ladder","mashua,mwanga,kamba,pangalan","pangalan","n","5","html-keyboard-response","1085","n","pangalan","true","",""
"1299","","","","","5","html-slider-response","1086","","","","5",""
"4841","pants","haki,pintal,chuki,hari","haki","f","5","html-keyboard-response","1087","f","haki","true","",""
"1197.6000000238419","","","","","5","html-slider-response","1088","","","","4",""
"1949","salmon","mzungu,seri,sensilyo,baharia","sensilyo","j","5","html-keyboard-response","1089","j","sensilyo","true","",""
"1491.199999988079","","","","","5","html-slider-response","1090","","","","5",""
"1230","coffin","kioo,barua,tubag,hulma","kioo","f","5","html-keyboard-response","1091","f","kioo","true","",""
"1344.0999999940395","","","","","5","html-slider-response","1092","","","","5",""
"1827","park","tambok,bunifu,pwani,ihalas","bunifu","v","5","html-keyboard-response","1093","v","bunifu","true","",""
"1062.300000011921","","","","","5","html-slider-response","1094","","","","5",""
"5391","giraffe","daraja,jumatu,hangyo,mahitabo","mahitabo","n","5","html-keyboard-response","1095","n","mahitabo","true","",""
"1322.5","","","","","5","html-slider-response","1096","","","","1",""
"3233","mirror","rangi,kanding,furaha,sulagma","sulagma","n","5","html-keyboard-response","1097","n","sulagma","true","",""
"1263.4000000059605","","","","","5","html-slider-response","1098","","","","5",""
"5079","ceiling","kugita,kawaida,rayna,maua","maua","n","5","html-keyboard-response","1099","n","maua","true","",""
"2828.4000000059605","","","","","5","html-slider-response","1100","","","","5",""
"1477","marker","mapafu,salita,maji,atay","maji","j","5","html-keyboard-response","1101","j","maji","true","",""
"1962.6000000238419","","","","","5","html-slider-response","1102","","","","5",""
"4189","sock","mamba,ndoora,kimysa,mtirka","mamba","f","5","html-keyboard-response","1103","f","mamba","true","",""
"29894.90000000596","","","","","5","html-slider-response","1104","","","","3",""
"2141","cop","mechezo,bustani,jikoni,bakus","mechezo","f","5","html-keyboard-response","1105","f","mechezo","true","",""
"1940.0999999940395","","","","","5","html-slider-response","1106","","","","5",""
"1646","gift","baba,nyange,baso,pagtawag","pagtawag","n","5","html-keyboard-response","1107","n","pagtawag","true","",""
"1794.2999999821186","","","","","5","html-slider-response","1108","","","","5",""
"15922","notebook","msitu,kemia,kila,mdudu","kemia","v","5","html-keyboard-response","1109","j","kila","false","",""
"1501.2999999821186","","","","","5","html-slider-response","1110","","","","2",""
"1287","bank","silingan,kudhibi,tualya,ofisi","silingan","f","5","html-keyboard-response","1111","f","silingan","true","",""
"1411.300000011921","","","","","5","html-slider-response","1112","","","","5",""
"9960","letter","filimbi,chuma,kifua,uhuru","kifua","j","5","html-keyboard-response","1113","j","kifua","true","",""
"1647","","","","","5","html-slider-response","1114","","","","5",""
"2006","candle","gabi,farasi,geza,kupanda","geza","j","5","html-keyboard-response","1115","j","geza","true","",""
"1265.7000000178814","","","","","5","html-slider-response","1116","","","","5",""
"1399","bread","kaili,dari,dizeli,bugas","dari","v","5","html-keyboard-response","1117","v","dari","true","",""
"1175.5","","","","","5","html-slider-response","1118","","","","5",""
"3289","snake","pagtukod,jansa,karon,mvringo","pagtukod","f","5","html-keyboard-response","1119","f","pagtukod","true","",""
"1658.800000011921","","","","","5","html-slider-response","1120","","","","5",""
"5764","rose","singizi,mwanake,amani,paghalad","paghalad","n","5","html-keyboard-response","1121","n","paghalad","true","",""
"1961.800000011921","","","","","5","html-slider-response","1122","","","","5",""
"1355","hill","kushoto,kukimba,sweta,matumbo","matumbo","n","5","html-keyboard-response","1123","n","matumbo","true","",""
"1265.4000000059605","","","","","5","html-slider-response","1124","","","","5",""
"1454","train","itik,dakika,sayari,mungu","sayari","j","5","html-keyboard-response","1125","j","sayari","true","",""
"1512.800000011921","","","","","5","html-slider-response","1126","","","","5",""
"2603","shop","nopya,kerida,samaki,ndezu","samaki","j","5","html-keyboard-response","1127","j","samaki","true","",""
"1321.4000000059605","","","","","5","html-slider-response","1128","","","","5",""
"2085","nose","gubat,sehemu,kopa,kidole","sehemu","v","5","html-keyboard-response","1129","v","sehemu","true","",""
"1243.0999999940395","","","","","5","html-slider-response","1130","","","","5",""
"1623","boat","agalon,hamsi,pombe,kitanda","agalon","f","5","html-keyboard-response","1131","f","agalon","true","",""
"1468.4000000059605","","","","","5","html-slider-response","1132","","","","5",""
"1197","body","nyundu,jibini,kununa,tindashan","tindashan","n","5","html-keyboard-response","1133","n","tindashan","true","",""
"1951.2999999821186","","","","","5","html-slider-response","1134","","","","5",""
"3492","bed","kalipay,haraka,starehe,mapintas","mapintas","n","5","html-keyboard-response","1135","n","mapintas","true","",""
"1219.199999988079","","","","","5","html-slider-response","1136","","","","5",""
"2423","squirrel","hofu,mahugaw,ukweli,kichwa","hofu","f","5","html-keyboard-response","1137","f","hofu","true","",""
"1231.0999999940395","","","","","5","html-slider-response","1138","","","","5",""
"1444","window","nanga,kweli,kujenga,umaga","kweli","v","5","html-keyboard-response","1139","v","kweli","true","",""
"1275.9000000059605","","","","","5","html-slider-response","1140","","","","5",""
"3222","bonfire","goti,mwezi,mfuko,kusanya","goti","f","5","html-keyboard-response","1141","f","goti","true","",""
"2445.800000011921","","","","","5","html-slider-response","1142","","","","5",""
"1838","fish","buli,bala,baho,imani","buli","f","5","html-keyboard-response","1143","f","buli","true","",""
"1107.2999999821186","","","","","5","html-slider-response","1144","","","","5",""
"6541","cat","neyemba,baki,paghukom,akili","paghukom","j","5","html-keyboard-response","1145","j","paghukom","true","",""
"1230.9000000059605","","","","","5","html-slider-response","1146","","","","5",""
"1556","spider","bunyag,mkboa,atop,kamwe","kamwe","n","5","html-keyboard-response","1147","n","kamwe","true","",""
"1198","","","","","5","html-slider-response","1148","","","","5",""
"1714","eel","ishara,msumari,kunywa,kabuang","msumari","v","5","html-keyboard-response","1149","v","msumari","true","",""
"1299.2000000178814","","","","","5","html-slider-response","1150","","","","5",""
"1714","woman","bandari,pagtabon,bituin,kovuli","pagtabon","v","5","html-keyboard-response","1151","v","pagtabon","true","",""
"1119","","","","","5","html-slider-response","1152","","","","5",""
"1073","magazine","gundi,kiti,mchawi,bahandi","kiti","v","5","html-keyboard-response","1153","v","kiti","true","",""
"1141.199999988079","","","","","5","html-slider-response","1154","","","","5",""
"8194","pudding","aibu,abug,mpishi,iring","aibu","f","5","html-keyboard-response","1155","f","aibu","true","",""
"1533.9000000059605","","","","","5","html-slider-response","1156","","","","2",""
"1816","lamp","daub,bilaska,afya,mbolea","afya","j","5","html-keyboard-response","1157","j","afya","true","",""
"1141.300000011921","","","","","5","html-slider-response","1158","","","","5",""
"1579","cave","ganti,kesho,maisha,nyundo","kesho","v","5","html-keyboard-response","1159","v","kesho","true","",""
"1434","","","","","5","html-slider-response","1160","","","","5",""
"1804","shoulder","kelele,ndaniya,mkuu,guruwe","mkuu","j","5","html-keyboard-response","1161","j","mkuu","true","",""
"1445","","","","","5","html-slider-response","1162","","","","5",""
"2434","stone","ulimwengu,mkasi,asili,wingi","wingi","n","5","html-keyboard-response","1163","n","wingi","true","",""
"1253.699999988079","","","","","5","html-slider-response","1164","","","","5",""
"2635","column","pundok,dila,ufagio,pala","ufagio","j","5","html-keyboard-response","1165","j","ufagio","true","",""
"1435.5","","","","","5","html-slider-response","1166","","","","5",""
"6338","page","wakala,ishiri,skina,wimbo","wimbo","n","5","html-keyboard-response","1167","n","wimbo","true","",""
"1894.699999988079","","","","","5","html-slider-response","1168","","","","3",""
"2040","shoe","nyeusi,hatua,kama,uyoga","uyoga","n","5","html-keyboard-response","1169","n","uyoga","true","",""
"1220","","","","","5","html-slider-response","1170","","","","5",""
"1815","clock","kartasi,abang,mbwa,osha","mbwa","j","5","html-keyboard-response","1171","j","mbwa","true","",""
"1141.5999999940395","","","","","5","html-slider-response","1172","","","","5",""
"3536","towel","pagpalit,tembo,funzi,pito","pagpalit","f","5","html-keyboard-response","1173","f","pagpalit","true","",""
"1208.1000000238419","","","","","5","html-slider-response","1174","","","","5",""
"1490","tomato","chupi,mvua,chupa,takatak","mvua","v","5","html-keyboard-response","1175","v","mvua","true","",""
"1062.699999988079","","","","","5","html-slider-response","1176","","","","5",""
"5798","bucket","baga,ijayo,kiatu,init","kiatu","j","5","html-keyboard-response","1177","j","kiatu","true","",""
"2255.4000000059605","","","","","5","html-slider-response","1178","","","","5",""
"2174","finger","simu,moyo,sufuria,lima","moyo","v","5","html-keyboard-response","1179","v","moyo","true","",""
"1670.5999999940395","","","","","5","html-slider-response","1180","","","","5",""
"1545","mother","babaye,kahawa,mbuzi,jokofu","babaye","f","5","html-keyboard-response","1181","f","babaye","true","",""
"1142","","","","","5","html-slider-response","1182","","","","5",""
"1938","human","tinapay,bado,kikapu,punguza","tinapay","f","5","html-keyboard-response","1183","f","tinapay","true","",""
"1298.3999999761581","","","","","5","html-slider-response","1184","","","","5",""
"1286","sun","bendi,basi,luha,uongo","basi","v","5","html-keyboard-response","1185","v","basi","true","",""
"1232.5999999940395","","","","","5","html-slider-response","1186","","","","5",""
"2107","fork","baboy,paghago,mgonjwa,gorisi","mgonjwa","j","5","html-keyboard-response","1187","j","mgonjwa","true","",""
"1130.2000000178814","","","","","5","html-slider-response","1188","","","","5",""
"1387","donkey","elfu,bloke,lalake,rombus","elfu","f","5","html-keyboard-response","1189","f","elfu","true","",""
"1321.199999988079","","","","","5","html-slider-response","1190","","","","5",""
"1814","wolf","kaburi,ndizi,lugha,mchuzi","lugha","j","5","html-keyboard-response","1191","j","lugha","true","",""
"1243.9000000059605","","","","","5","html-slider-response","1192","","","","5",""
"5426","cigar","ndugu,kuta,adhabu,mlango","adhabu","j","5","html-keyboard-response","1193","j","adhabu","true","",""
"1267.4000000059605","","","","","5","html-slider-response","1194","","","","1",""
"1420","olive","jiwe,bata,siagi,welder","jiwe","f","5","html-keyboard-response","1195","f","jiwe","true","",""
"1400","","","","","5","html-slider-response","1196","","","","5",""
"2062","key","miaka,goma,chombo,ahos","chombo","j","5","html-keyboard-response","1197","j","chombo","true","",""
"1467.5999999940395","","","","","5","html-slider-response","1198","","","","5",""
"1500","door","tena,soko,nyota,surali","surali","n","5","html-keyboard-response","1199","f","tena","false","",""
"1220","","","","","5","html-slider-response","1200","","","","5",""
"1803","wheel","punda,tawo,baadaye,bafuni","bafuni","n","5","html-keyboard-response","1201","n","bafuni","true","",""
"1501.2999999821186","","","","","5","html-slider-response","1202","","","","5",""
"3367","basket","kumba,kumbuka,utepe,hasira","kumba","f","5","html-keyboard-response","1203","f","kumba","true","",""
"1107.9000000059605","","","","","5","html-slider-response","1204","","","","5",""
"2254","elephant","kito,petye,pagduol,suka","kito","f","5","html-keyboard-response","1205","f","kito","true","",""
"1524","","","","","5","html-slider-response","1206","","","","5",""
"1276","office","hazini,yatima,kuna,leso","leso","n","5","html-keyboard-response","1207","n","leso","true","",""
"1152.2999999821186","","","","","5","html-slider-response","1208","","","","5",""
"4122","music","mraba,mageho,tumbo,baiski","baiski","n","5","html-keyboard-response","1209","n","baiski","true","",""
"1614.5","","","","","5","html-slider-response","1210","","","","5",""
"2006","tissue","lamigas,kisiwa,katika,ugomvi","ugomvi","n","5","html-keyboard-response","1211","n","ugomvi","true","",""
"1141.2999999821186","","","","","5","html-slider-response","1212","","","","5",""
"6304","curtain","lisud,bulwawan,mchanga,chubani","mchanga","j","5","html-keyboard-response","1213","j","mchanga","true","",""
"1445.1000000238419","","","","","5","html-slider-response","1214","","","","5",""
"1860","flag","ndege,mkate,trekta,kawa","trekta","j","5","html-keyboard-response","1215","j","trekta","true","",""
"1400.2000000178814","","","","","5","html-slider-response","1216","","","","5",""
"4706","dog","lubi,washia,bahari,kalamu","bahari","j","5","html-keyboard-response","1217","v","washia","false","",""
"1208.800000011921","","","","","5","html-slider-response","1218","","","","1",""
"4178","cup","matumai,dagat,shimoni,jeraha","matumai","f","5","html-keyboard-response","1219","f","matumai","true","",""
"1263.699999988079","","","","","5","html-slider-response","1220","","","","1",""
"1657","sheet","juuya,bililhon,watu,kamantis","bililhon","v","5","html-keyboard-response","1221","v","bililhon","true","",""
"1074","","","","","5","html-slider-response","1222","","","","5",""
"1264","spoon","betri,pagsulod,nzuri,ngazi","pagsulod","v","5","html-keyboard-response","1223","v","pagsulod","true","",""
"1198.199999988079","","","","","5","html-slider-response","1224","","","","5",""
"1792","flower","tamasha,lobo,bega,usiku","bega","j","5","html-keyboard-response","1225","j","bega","true","",""
"1264.9000000059605","","","","","5","html-slider-response","1226","","","","5",""
"1455","picture","silya,chaki,asin,kubwa","kubwa","n","5","html-keyboard-response","1227","n","kubwa","true","",""
"1231.2000000178814","","","","","5","html-slider-response","1228","","","","5",""
"1545","puppet","napulo,mazishi,lamok,godoro","mazishi","v","5","html-keyboard-response","1229","v","mazishi","true","",""
"960.8000000119209","","","","","5","html-slider-response","1230","","","","5",""
"1253","banana","kasamok,kazi,hagdan,twai","kazi","v","5","html-keyboard-response","1231","v","kazi","true","",""
"1050.5","","","","","5","html-slider-response","1232","","","","5",""
"2198","book","kuhesa,picha,mara,mali","mali","n","5","html-keyboard-response","1233","n","mali","true","",""
"1534.7999999821186","","","","","5","html-slider-response","1234","","","","5",""
"6226","triangle","kihozi,bentaha,kasadpan,liog","kasadpan","j","5","html-keyboard-response","1235","v","bentaha","false","",""
"1399.7999999821186","","","","","5","html-slider-response","1236","","","","1",""
"2840","poster","nchi,fedha,madungog,kasuko","madungog","j","5","html-keyboard-response","1237","j","madungog","true","",""
"1128.7000000178814","","","","","5","html-slider-response","1238","","","","5",""
"2537","box","kuacha,rafiki,adui,kitande","adui","j","5","html-keyboard-response","1239","j","adui","true","",""
"1175.300000011921","","","","","5","html-slider-response","1240","","","","5",""
"1490","mosquito","martilyo,isda,taras,gutom","martilyo","f","5","html-keyboard-response","1241","f","martilyo","true","",""
"1050.7000000178814","","","","","5","html-slider-response","1242","","","","5",""
"2074","shelf","bungtod,kadaot,pamahaw,awit","pamahaw","j","5","html-keyboard-response","1243","n","awit","false","",""
"1456.2999999821186","","","","","5","html-slider-response","1244","","","","5",""
"2085","scissors","tanuri,duga,mtawa,suga","tanuri","f","5","html-keyboard-response","1245","f","tanuri","true","",""
"2356.4000000059605","","","","","5","html-slider-response","1246","","","","5",""
"1455","hammer","mekno,napakyas,kitovu,layag","napakyas","v","5","html-keyboard-response","1247","v","napakyas","true","",""
"1107.300000011921","","","","","5","html-slider-response","1248","","","","5",""
