"rt","en_word","options","swa_word","correct_answer","phase","trial_type","trial_index","input_answer","input_word","accuracy","certainty","amt_choices"
"3760","bonfire","mwezi,mfuko,kusanya,goti","goti","n","2","html-keyboard-response","106","n","goti","true","",""
"42145","","","","","2","html-slider-response","107","","","","2",""
"8792","flower","tamasha,bega,lobo,usiku","bega","v","2","html-keyboard-response","108","f","tamasha","false","",""
"4970","","","","","2","html-slider-response","109","","","","2",""
"5114","column","pundok,ufagio,dila,pala","ufagio","v","2","html-keyboard-response","110","v","ufagio","true","",""
"2493","","","","","2","html-slider-response","111","","","","4",""
"6276","music","mraba,mageho,baiski,tumbo","baiski","j","2","html-keyboard-response","112","n","tumbo","false","",""
"3264","","","","","2","html-slider-response","113","","","","2",""
"5644","spider","bunyag,mkboa,kamwe,atop","kamwe","j","2","html-keyboard-response","114","j","kamwe","true","",""
"3226","","","","","2","html-slider-response","115","","","","5",""
"5045","fork","baboy,mgonjwa,paghago,gorisi","mgonjwa","v","2","html-keyboard-response","116","v","mgonjwa","true","",""
"2933","","","","","2","html-slider-response","117","","","","2",""
"5051","mosquito","isda,taras,gutom,martilyo","martilyo","n","2","html-keyboard-response","118","n","martilyo","true","",""
"2765","","","","","2","html-slider-response","119","","","","5",""
"7398","banana","kasamok,hagdan,twai,kazi","kazi","n","2","html-keyboard-response","120","n","kazi","true","",""
"3074","","","","","2","html-slider-response","121","","","","5",""
"5270","cup","dagat,shimoni,jeraha,matumai","matumai","n","2","html-keyboard-response","122","n","matumai","true","",""
"8792","","","","","2","html-slider-response","123","","","","3",""
"5678","shop","samaki,nopya,kerida,ndezu","samaki","f","2","html-keyboard-response","124","f","samaki","true","",""
"3245","","","","","2","html-slider-response","125","","","","4",""
"3018","elephant","petye,kito,pagduol,suka","kito","v","2","html-keyboard-response","126","v","kito","true","",""
"3265","","","","","2","html-slider-response","127","","","","5",""
"7906","bucket","baga,ijayo,init,kiatu","kiatu","n","2","html-keyboard-response","128","n","kiatu","true","",""
"2920","","","","","2","html-slider-response","129","","","","2",""
"7002","book","kuhesa,picha,mali,mara","mali","j","2","html-keyboard-response","130","j","mali","true","",""
"4155","","","","","2","html-slider-response","131","","","","2",""
"4764","mirror","rangi,sulagma,kanding,furaha","sulagma","v","2","html-keyboard-response","132","v","sulagma","true","",""
"3560","","","","","2","html-slider-response","133","","","","2",""
"8385","office","hazini,yatima,kuna,leso","leso","n","2","html-keyboard-response","134","v","yatima","false","",""
"3819","","","","","2","html-slider-response","135","","","","2",""
"11234","body","nyundu,jibini,kununa,tindashan","tindashan","n","2","html-keyboard-response","136","n","tindashan","true","",""
"5570","","","","","2","html-slider-response","137","","","","3",""
"7030","perfume","bino,sungura,katuyoan,ndogo","katuyoan","j","2","html-keyboard-response","138","j","katuyoan","true","",""
"2779","","","","","2","html-slider-response","139","","","","2",""
"9828","olive","bata,siagi,welder,jiwe","jiwe","n","2","html-keyboard-response","140","n","jiwe","true","",""
"3440","","","","","2","html-slider-response","141","","","","2",""
"6552","magazine","gundi,mchawi,kiti,bahandi","kiti","j","2","html-keyboard-response","142","j","kiti","true","",""
"3291","","","","","2","html-slider-response","143","","","","4",""
"5309","bread","kaili,dizeli,bugas,dari","dari","n","2","html-keyboard-response","144","n","dari","true","",""
"3738","","","","","2","html-slider-response","145","","","","3",""
"8194","cave","ganti,maisha,nyundo,kesho","kesho","n","2","html-keyboard-response","146","j","nyundo","false","",""
"3329","","","","","2","html-slider-response","147","","","","3",""
"7937","ladder","mashua,pangalan,mwanga,kamba","pangalan","v","2","html-keyboard-response","148","j","mwanga","false","",""
"3845","","","","","2","html-slider-response","149","","","","3",""
"12106","human","bado,kikapu,tinapay,punguza","tinapay","j","2","html-keyboard-response","150","f","bado","false","",""
"3848","","","","","2","html-slider-response","151","","","","3",""
"10233","clock","kartasi,mbwa,abang,osha","mbwa","v","2","html-keyboard-response","152","v","mbwa","true","",""
"2825","","","","","2","html-slider-response","153","","","","3",""
"5036","shelf","bungtod,kadaot,pamahaw,awit","pamahaw","j","2","html-keyboard-response","154","j","pamahaw","true","",""
"2533","","","","","2","html-slider-response","155","","","","2",""
"11186","salmon","mzungu,seri,baharia,sensilyo","sensilyo","n","2","html-keyboard-response","156","f","mzungu","false","",""
"3544","","","","","2","html-slider-response","157","","","","3",""
"5669","coffin","kioo,barua,tubag,hulma","kioo","f","2","html-keyboard-response","158","f","kioo","true","",""
"2655","","","","","2","html-slider-response","159","","","","4",""
"10092","notebook","msitu,kila,kemia,mdudu","kemia","j","2","html-keyboard-response","160","j","kemia","true","",""
"2455","","","","","2","html-slider-response","161","","","","2",""
"7178","shoulder","kelele,ndaniya,mkuu,guruwe","mkuu","j","2","html-keyboard-response","162","j","mkuu","true","",""
"5212","","","","","2","html-slider-response","163","","","","3",""
"10714","park","bunifu,tambok,pwani,ihalas","bunifu","f","2","html-keyboard-response","164","f","bunifu","true","",""
"4301","","","","","2","html-slider-response","165","","","","3",""
"10941","number","shule,mundamo,kengele,choori","mundamo","v","2","html-keyboard-response","166","v","mundamo","true","",""
"3264","","","","","2","html-slider-response","167","","","","4",""
"6103","apple","kisu,ukame,estante,edad","kisu","f","2","html-keyboard-response","168","f","kisu","true","",""
"3455","","","","","2","html-slider-response","169","","","","5",""
"5562","letter","kifua,filimbi,chuma,uhuru","kifua","f","2","html-keyboard-response","170","n","uhuru","false","",""
"2886","","","","","2","html-slider-response","171","","","","2",""
"12177","eel","ishara,kunywa,msumari,kabuang","msumari","j","2","html-keyboard-response","172","j","msumari","true","",""
"2687","","","","","2","html-slider-response","173","","","","4",""
"3527","cop","bustani,jikoni,bakus,mechezo","mechezo","n","2","html-keyboard-response","174","n","mechezo","true","",""
"3426","","","","","2","html-slider-response","175","","","","5",""
"6432","wolf","kaburi,ndizi,lugha,mchuzi","lugha","j","2","html-keyboard-response","176","j","lugha","true","",""
"2867","","","","","2","html-slider-response","177","","","","5",""
"7364","squirrel","mahugaw,ukweli,kichwa,hofu","hofu","n","2","html-keyboard-response","178","n","hofu","true","",""
"2828","","","","","2","html-slider-response","179","","","","4",""
"10505","nose","sehemu,gubat,kopa,kidole","sehemu","f","2","html-keyboard-response","180","v","gubat","false","",""
"2865","","","","","2","html-slider-response","181","","","","1",""
"5557","sock","ndoora,mamba,kimysa,mtirka","mamba","v","2","html-keyboard-response","182","v","mamba","true","",""
"3099","","","","","2","html-slider-response","183","","","","5",""
"5219","bank","kudhibi,tualya,silingan,ofisi","silingan","j","2","html-keyboard-response","184","j","silingan","true","",""
"3321","","","","","2","html-slider-response","185","","","","1",""
"6132","donkey","bloke,lalake,rombus,elfu","elfu","n","2","html-keyboard-response","186","n","elfu","true","",""
"2869","","","","","2","html-slider-response","187","","","","5",""
"4839","poster","nchi,fedha,kasuko,madungog","madungog","n","2","html-keyboard-response","188","n","madungog","true","",""
"3037","","","","","2","html-slider-response","189","","","","2",""
"5473","puppet","mazishi,napulo,lamok,godoro","mazishi","f","2","html-keyboard-response","190","f","mazishi","true","",""
"2791","","","","","2","html-slider-response","191","","","","4",""
"4923","hill","kushoto,kukimba,sweta,matumbo","matumbo","n","2","html-keyboard-response","192","n","matumbo","true","",""
"2568","","","","","2","html-slider-response","193","","","","4",""
"4919","tooth","kijiko,uadui,kabalaka,pahiyum","kabalaka","j","2","html-keyboard-response","194","j","kabalaka","true","",""
"2680","","","","","2","html-slider-response","195","","","","4",""
"5422","woman","pagtabon,bandari,bituin,kovuli","pagtabon","f","2","html-keyboard-response","196","v","bandari","false","",""
"21283","","","","","2","html-slider-response","197","","","","4",""
"4307","wheel","punda,tawo,baadaye,bafuni","bafuni","n","2","html-keyboard-response","198","j","baadaye","false","",""
"2670","","","","","2","html-slider-response","199","","","","1",""
"17651","mother","kahawa,mbuzi,jokofu,babaye","babaye","n","2","html-keyboard-response","200","n","babaye","true","",""
"3096","","","","","2","html-slider-response","201","","","","5",""
"4221","bed","kalipay,mapintas,haraka,starehe","mapintas","v","2","html-keyboard-response","202","v","mapintas","true","",""
"4268","","","","","2","html-slider-response","203","","","","1",""
"7442","key","miaka,chombo,goma,ahos","chombo","v","2","html-keyboard-response","204","f","miaka","false","",""
"2582","","","","","2","html-slider-response","205","","","","4",""
"5938","page","wakala,ishiri,wimbo,skina","wimbo","j","2","html-keyboard-response","206","v","ishiri","false","",""
"3972","","","","","2","html-slider-response","207","","","","1",""
"4699","pants","haki,pintal,chuki,hari","haki","f","2","html-keyboard-response","208","f","haki","true","",""
"2969","","","","","2","html-slider-response","209","","","","5",""
"7175","sun","basi,bendi,luha,uongo","basi","f","2","html-keyboard-response","210","f","basi","true","",""
"3317","","","","","2","html-slider-response","211","","","","5",""
"7029","finger","simu,sufuria,moyo,lima","moyo","j","2","html-keyboard-response","212","j","moyo","true","",""
"7136","","","","","2","html-slider-response","213","","","","4",""
"4983","shoe","nyeusi,hatua,uyoga,kama","uyoga","j","2","html-keyboard-response","214","v","hatua","false","",""
"2766","","","","","2","html-slider-response","215","","","","2",""
"4509","giraffe","mahitabo,daraja,jumatu,hangyo","mahitabo","f","2","html-keyboard-response","216","f","mahitabo","true","",""
"2749","","","","","2","html-slider-response","217","","","","5",""
"8030","dog","bahari,lubi,washia,kalamu","bahari","f","2","html-keyboard-response","218","f","bahari","true","",""
"5695","","","","","2","html-slider-response","219","","","","3",""
"6875","box","kuacha,adui,rafiki,kitande","adui","v","2","html-keyboard-response","220","j","rafiki","false","",""
"3281","","","","","2","html-slider-response","221","","","","3",""
"6118","scissors","tanuri,duga,mtawa,suga","tanuri","f","2","html-keyboard-response","222","n","suga","false","",""
"2960","","","","","2","html-slider-response","223","","","","2",""
"6356","cat","neyemba,baki,akili,paghukom","paghukom","n","2","html-keyboard-response","224","n","paghukom","true","",""
"2888","","","","","2","html-slider-response","225","","","","3",""
"5030","basket","kumba,kumbuka,utepe,hasira","kumba","f","2","html-keyboard-response","226","v","kumbuka","false","",""
"2557","","","","","2","html-slider-response","227","","","","2",""
"7463","snake","jansa,karon,pagtukod,mvringo","pagtukod","j","2","html-keyboard-response","228","j","pagtukod","true","",""
"2647","","","","","2","html-slider-response","229","","","","4",""
"5915","gift","baba,nyange,pagtawag,baso","pagtawag","j","2","html-keyboard-response","230","j","pagtawag","true","",""
"2382","","","","","2","html-slider-response","231","","","","4",""
"10806","train","itik,dakika,mungu,sayari","sayari","n","2","html-keyboard-response","232","n","sayari","true","",""
"2415","","","","","2","html-slider-response","233","","","","4",""
"6521","pudding","abug,mpishi,aibu,iring","aibu","j","2","html-keyboard-response","234","j","aibu","true","",""
"2521","","","","","2","html-slider-response","235","","","","4",""
"4374","tomato","chupi,chupa,mvua,takatak","mvua","j","2","html-keyboard-response","236","n","takatak","false","",""
"3094","","","","","2","html-slider-response","237","","","","4",""
"6260","stone","ulimwengu,mkasi,wingi,asili","wingi","j","2","html-keyboard-response","238","n","asili","false","",""
"2344","","","","","2","html-slider-response","239","","","","2",""
"4894","hammer","mekno,napakyas,kitovu,layag","napakyas","v","2","html-keyboard-response","240","v","napakyas","true","",""
"2790","","","","","2","html-slider-response","241","","","","2",""
"4167","knee","mvuke,duka,kubale,bili","duka","v","2","html-keyboard-response","242","v","duka","true","",""
"2210","","","","","2","html-slider-response","243","","","","2",""
"3583","ceiling","kugita,maua,kawaida,rayna","maua","v","2","html-keyboard-response","244","j","kawaida","false","",""
"2590","","","","","2","html-slider-response","245","","","","1",""
"6473","spoon","betri,nzuri,pagsulod,ngazi","pagsulod","j","2","html-keyboard-response","246","n","ngazi","false","",""
"3227","","","","","2","html-slider-response","247","","","","1",""
"7690","marker","maji,mapafu,salita,atay","maji","f","2","html-keyboard-response","248","f","maji","true","",""
"2699","","","","","2","html-slider-response","249","","","","5",""
"5733","candle","gabi,farasi,geza,kupanda","geza","j","2","html-keyboard-response","250","j","geza","true","",""
"3144","","","","","2","html-slider-response","251","","","","3",""
"4512","tissue","lamigas,kisiwa,ugomvi,katika","ugomvi","j","2","html-keyboard-response","252","n","katika","false","",""
"2619","","","","","2","html-slider-response","253","","","","2",""
"5114","bridge","daima,ngono,panya,sahani","sahani","n","2","html-keyboard-response","254","v","ngono","false","",""
"5603","","","","","2","html-slider-response","255","","","","1",""
"4386","berry","abogado,nogozi,kinywa,kofia","kofia","n","2","html-keyboard-response","256","n","kofia","true","",""
"3550","","","","","2","html-slider-response","257","","","","5",""
"4730","triangle","kihozi,kasadpan,bentaha,liog","kasadpan","v","2","html-keyboard-response","258","j","bentaha","false","",""
"2242","","","","","2","html-slider-response","259","","","","2",""
"9589","door","tena,soko,nyota,surali","surali","n","2","html-keyboard-response","260","j","nyota","false","",""
"3644","","","","","2","html-slider-response","261","","","","1",""
"5180","fish","bala,baho,imani,buli","buli","n","2","html-keyboard-response","262","n","buli","true","",""
"2665","","","","","2","html-slider-response","263","","","","4",""
"6533","curtain","lisud,mchanga,bulwawan,chubani","mchanga","v","2","html-keyboard-response","264","j","bulwawan","false","",""
"3850","","","","","2","html-slider-response","265","","","","4",""
"5525","flag","ndege,mkate,trekta,kawa","trekta","j","2","html-keyboard-response","266","j","trekta","true","",""
"2499","","","","","2","html-slider-response","267","","","","5",""
"5031","boat","hamsi,agalon,pombe,kitanda","agalon","v","2","html-keyboard-response","268","n","kitanda","false","",""
"3009","","","","","2","html-slider-response","269","","","","1",""
"4675","rose","singizi,mwanake,amani,paghalad","paghalad","n","2","html-keyboard-response","270","v","mwanake","false","",""
"2796","","","","","2","html-slider-response","271","","","","1",""
"6507","lamp","daub,afya,bilaska,mbolea","afya","v","2","html-keyboard-response","272","j","bilaska","false","",""
"3435","","","","","2","html-slider-response","273","","","","3",""
"5286","cigar","adhabu,ndugu,kuta,mlango","adhabu","f","2","html-keyboard-response","274","f","adhabu","true","",""
"4209","","","","","2","html-slider-response","275","","","","5",""
"4906","list","alizeti,wingu,kuzama,kaso","wingu","v","2","html-keyboard-response","276","v","wingu","true","",""
"2876","","","","","2","html-slider-response","277","","","","1",""
"15533","sheet","juuya,bililhon,watu,kamantis","bililhon","v","2","html-keyboard-response","278","v","bililhon","true","",""
"2851","","","","","2","html-slider-response","279","","","","1",""
"5119","picture","silya,kubwa,chaki,asin","kubwa","v","2","html-keyboard-response","280","n","asin","false","",""
"3846","","","","","2","html-slider-response","281","","","","1",""
"6066","towel","tembo,funzi,pito,pagpalit","pagpalit","n","2","html-keyboard-response","282","v","funzi","false","",""
"2490","","","","","2","html-slider-response","283","","","","1",""
"17287","window","nanga,kweli,kujenga,umaga","kweli","v","2","html-keyboard-response","284","v","kweli","true","",""
"2901","","","","","2","html-slider-response","285","","","","1",""
"5547","box","kuacha,adui,rafiki,kitande","adui","v","3","html-keyboard-response","293","v","adui","true","","4"
"3908","","","","","3","html-slider-response","294","","","","1",""
"4941","","","","","3","html-keyboard-response","295","","","","",""
"5628","pants","pintal,haki,chuki,hari","haki","v","3","html-keyboard-response","296","v","haki","true","","4"
"3102","","","","","3","html-slider-response","297","","","","5",""
"2317","","","","","3","html-keyboard-response","298","","","","",""
"4040","cup","dagat,matumai,shimoni,jeraha","matumai","v","3","html-keyboard-response","299","v","matumai","true","","4"
"3167","","","","","3","html-slider-response","300","","","","1",""
"4157","","","","","3","html-keyboard-response","301","","","","",""
"9371","triangle","kihozi,kasadpan,bentaha,liog","kasadpan","v","3","html-keyboard-response","302","j","bentaha","false","","4"
"3306","","","","","3","html-slider-response","303","","","","1",""
"10334","","","","","3","html-keyboard-response","304","","","","",""
"5165","curtain","lisud,bulwawan,chubani,mchanga","mchanga","n","3","html-keyboard-response","305","v","bulwawan","false","","4"
"2716","","","","","3","html-slider-response","306","","","","1",""
"7913","","","","","3","html-keyboard-response","307","","","","",""
"8462","clock","kartasi,abang,mbwa,osha","mbwa","j","3","html-keyboard-response","308","j","mbwa","true","","4"
"2982","","","","","3","html-slider-response","309","","","","1",""
"3657","","","","","3","html-keyboard-response","310","","","","",""
"7079","mirror","rangi,kanding,furaha,sulagma","sulagma","n","3","html-keyboard-response","311","n","sulagma","true","","4"
"2633","","","","","3","html-slider-response","312","","","","1",""
"20670","","","","","3","html-keyboard-response","313","","","","",""
"10406","coffin","barua,tubag,hulma,kioo","kioo","n","3","html-keyboard-response","314","n","kioo","true","","1"
"3774","","","","","3","html-slider-response","315","","","","4",""
"4612","","","","","3","html-keyboard-response","316","","","","",""
"5771","magazine","gundi,mchawi,bahandi,kiti","kiti","n","3","html-keyboard-response","317","v","mchawi","false","","4"
"3705","","","","","3","html-slider-response","318","","","","1",""
"2639","","","","","3","html-keyboard-response","319","","","","",""
"14440","column","pundok,ufagio,dila,pala","ufagio","v","3","html-keyboard-response","320","v","ufagio","true","","1"
"2568","","","","","3","html-slider-response","321","","","","2",""
"1753","","","","","3","html-keyboard-response","322","","","","",""
"6123","number","shule,kengele,mundamo,choori","mundamo","j","3","html-keyboard-response","323","v","kengele","false","","4"
"2947","","","","","3","html-slider-response","324","","","","1",""
"4257","","","","","3","html-keyboard-response","325","","","","",""
"5095","rose","singizi,mwanake,amani,paghalad","paghalad","n","3","html-keyboard-response","326","n","paghalad","true","","4"
"2707","","","","","3","html-slider-response","327","","","","1",""
"2060","","","","","3","html-keyboard-response","328","","","","",""
"8902","eel","ishara,msumari,kunywa,kabuang","msumari","v","3","html-keyboard-response","329","f","ishara","false","","4"
"2683","","","","","3","html-slider-response","330","","","","2",""
"3339","","","","","3","html-keyboard-response","331","","","","",""
"7381","gift","pagtawag,baba,nyange,baso","pagtawag","f","3","html-keyboard-response","332","f","pagtawag","true","","4"
"3072","","","","","3","html-slider-response","333","","","","4",""
"2655","","","","","3","html-keyboard-response","334","","","","",""
"4084","apple","ukame,estante,edad,kisu","kisu","n","3","html-keyboard-response","335","n","kisu","true","","1"
"3161","","","","","3","html-slider-response","336","","","","5",""
"1281","","","","","3","html-keyboard-response","337","","","","",""
"3186","wheel","bafuni,punda,tawo,baadaye","bafuni","f","3","html-keyboard-response","338","f","bafuni","true","","1"
"3315","","","","","3","html-slider-response","339","","","","2",""
"2608","","","","","3","html-keyboard-response","340","","","","",""
"4915","knee","mvuke,kubale,duka,bili","duka","j","3","html-keyboard-response","341","f","mvuke","false","","4"
"2928","","","","","3","html-slider-response","342","","","","1",""
"3203","","","","","3","html-keyboard-response","343","","","","",""
"4314","basket","kumbuka,utepe,kumba,hasira","kumba","j","3","html-keyboard-response","344","j","kumba","true","","1"
"3939","","","","","3","html-slider-response","345","","","","2",""
"1166","","","","","3","html-keyboard-response","346","","","","",""
"3996","park","bunifu,tambok,pwani,ihalas","bunifu","f","3","html-keyboard-response","347","v","tambok","false","","4"
"2543","","","","","3","html-slider-response","348","","","","2",""
"2690","","","","","3","html-keyboard-response","349","","","","",""
"4787","finger","simu,sufuria,moyo,lima","moyo","j","3","html-keyboard-response","350","j","moyo","true","","4"
"2405","","","","","3","html-slider-response","351","","","","2",""
"3727","","","","","3","html-keyboard-response","352","","","","",""
"5990","boat","agalon,hamsi,pombe,kitanda","agalon","f","3","html-keyboard-response","353","n","kitanda","false","","4"
"2554","","","","","3","html-slider-response","354","","","","1",""
"1691","","","","","3","html-keyboard-response","355","","","","",""
"4046","hill","kushoto,kukimba,sweta,matumbo","matumbo","n","3","html-keyboard-response","356","n","matumbo","true","","4"
"2664","","","","","3","html-slider-response","357","","","","5",""
"1442","","","","","3","html-keyboard-response","358","","","","",""
"5534","train","itik,dakika,sayari,mungu","sayari","j","3","html-keyboard-response","359","v","dakika","false","","4"
"4300","","","","","3","html-slider-response","360","","","","3",""
"2659","","","","","3","html-keyboard-response","361","","","","",""
"3317","wolf","kaburi,ndizi,mchuzi,lugha","lugha","n","3","html-keyboard-response","362","n","lugha","true","","4"
"3083","","","","","3","html-slider-response","363","","","","5",""
"5105","","","","","3","html-keyboard-response","364","","","","",""
"8891","snake","jansa,karon,mvringo,pagtukod","pagtukod","n","3","html-keyboard-response","365","n","pagtukod","true","","4"
"3117","","","","","3","html-slider-response","366","","","","2",""
"1839","","","","","3","html-keyboard-response","367","","","","",""
"4942","tooth","kabalaka,kijiko,uadui,pahiyum","kabalaka","f","3","html-keyboard-response","368","f","kabalaka","true","","4"
"3554","","","","","3","html-slider-response","369","","","","2",""
"1470","","","","","3","html-keyboard-response","370","","","","",""
"8833","notebook","msitu,kila,mdudu,kemia","kemia","n","3","html-keyboard-response","371","j","mdudu","false","","4"
"2942","","","","","3","html-slider-response","372","","","","1",""
"4640","","","","","3","html-keyboard-response","373","","","","",""
"4704","flag","ndege,mkate,kawa,trekta","trekta","n","3","html-keyboard-response","374","n","trekta","true","","4"
"3548","","","","","3","html-slider-response","375","","","","3",""
"1197","","","","","3","html-keyboard-response","376","","","","",""
"7119","squirrel","mahugaw,ukweli,kichwa,hofu","hofu","n","3","html-keyboard-response","377","n","hofu","true","","4"
"3145","","","","","3","html-slider-response","378","","","","3",""
"1104","","","","","3","html-keyboard-response","379","","","","",""
"6647","door","tena,soko,nyota,surali","surali","n","3","html-keyboard-response","380","f","tena","false","","4"
"2831","","","","","3","html-slider-response","381","","","","1",""
"2938","","","","","3","html-keyboard-response","382","","","","",""
"7995","salmon","mzungu,seri,baharia,sensilyo","sensilyo","n","3","html-keyboard-response","383","j","baharia","false","","4"
"2222","","","","","3","html-slider-response","384","","","","2",""
"2223","","","","","3","html-keyboard-response","385","","","","",""
"7396","shoulder","kelele,ndaniya,mkuu,guruwe","mkuu","j","3","html-keyboard-response","386","f","kelele","false","","4"
"3023","","","","","3","html-slider-response","387","","","","2",""
"3079","","","","","3","html-keyboard-response","388","","","","",""
"4577","lamp","daub,bilaska,mbolea,afya","afya","n","3","html-keyboard-response","389","v","bilaska","false","","4"
"2252","","","","","3","html-slider-response","390","","","","2",""
"1268","","","","","3","html-keyboard-response","391","","","","",""
"2494","shelf","bungtod,kadaot,awit,pamahaw","pamahaw","n","3","html-keyboard-response","392","n","pamahaw","true","","1"
"10842","","","","","3","html-slider-response","393","","","","3",""
"1934","","","","","3","html-keyboard-response","394","","","","",""
"6221","human","bado,kikapu,tinapay,punguza","tinapay","j","3","html-keyboard-response","395","j","tinapay","true","","4"
"3176","","","","","3","html-slider-response","396","","","","4",""
"1970","","","","","3","html-keyboard-response","397","","","","",""
"10811","towel","pagpalit,tembo,funzi,pito","pagpalit","f","3","html-keyboard-response","398","v","tembo","false","","4"
"4502","","","","","3","html-slider-response","399","","","","2",""
"1675","","","","","3","html-keyboard-response","400","","","","",""
"7081","cat","neyemba,paghukom,baki,akili","paghukom","v","3","html-keyboard-response","401","j","baki","false","","4"
"2600","","","","","3","html-slider-response","402","","","","4",""
"28180","","","","","3","html-keyboard-response","403","","","","",""
"8250","spider","bunyag,kamwe,mkboa,atop","kamwe","v","3","html-keyboard-response","404","v","kamwe","true","","4"
"2776","","","","","3","html-slider-response","405","","","","5",""
"1531","","","","","3","html-keyboard-response","406","","","","",""
"5091","window","nanga,kweli,kujenga,umaga","kweli","v","3","html-keyboard-response","407","v","kweli","true","","4"
"2852","","","","","3","html-slider-response","408","","","","2",""
"1568","","","","","3","html-keyboard-response","409","","","","",""
"2292","woman","bandari,bituin,kovuli,pagtabon","pagtabon","n","3","html-keyboard-response","410","n","pagtabon","true","","1"
"3030","","","","","3","html-slider-response","411","","","","5",""
"1192","","","","","3","html-keyboard-response","412","","","","",""
"4205","giraffe","daraja,mahitabo,jumatu,hangyo","mahitabo","v","3","html-keyboard-response","413","v","mahitabo","true","","4"
"2731","","","","","3","html-slider-response","414","","","","5",""
"1198","","","","","3","html-keyboard-response","415","","","","",""
"5987","elephant","petye,pagduol,kito,suka","kito","j","3","html-keyboard-response","416","j","kito","true","","4"
"2888","","","","","3","html-slider-response","417","","","","5",""
"1465","","","","","3","html-keyboard-response","418","","","","",""
"4201","cave","ganti,maisha,kesho,nyundo","kesho","j","3","html-keyboard-response","419","v","maisha","false","","4"
"2317","","","","","3","html-slider-response","420","","","","2",""
"2445","","","","","3","html-keyboard-response","421","","","","",""
"7066","bread","kaili,dari,dizeli,bugas","dari","v","3","html-keyboard-response","422","n","bugas","false","","4"
"2613","","","","","3","html-slider-response","423","","","","2",""
"2068","","","","","3","html-keyboard-response","424","","","","",""
"6991","stone","ulimwengu,mkasi,asili,wingi","wingi","n","3","html-keyboard-response","425","j","asili","false","","4"
"4260","","","","","3","html-slider-response","426","","","","2",""
"14665","","","","","3","html-keyboard-response","427","","","","",""
"2906","donkey","bloke,elfu,lalake,rombus","elfu","v","3","html-keyboard-response","428","v","elfu","true","","4"
"3070","","","","","3","html-slider-response","429","","","","5",""
"4679","","","","","3","html-keyboard-response","430","","","","",""
"6076","bridge","sahani,daima,ngono,panya","sahani","f","3","html-keyboard-response","431","n","panya","false","","4"
"2996","","","","","3","html-slider-response","432","","","","1",""
"1132","","","","","3","html-keyboard-response","433","","","","",""
"4925","bonfire","mwezi,mfuko,kusanya,goti","goti","n","3","html-keyboard-response","434","v","mfuko","false","","4"
"2520","","","","","3","html-slider-response","435","","","","2",""
"1347","","","","","3","html-keyboard-response","436","","","","",""
"3974","book","kuhesa,picha,mara,mali","mali","n","3","html-keyboard-response","437","n","mali","true","","4"
"2288","","","","","3","html-slider-response","438","","","","2",""
"1164","","","","","3","html-keyboard-response","439","","","","",""
"4845","fish","bala,baho,buli,imani","buli","j","3","html-keyboard-response","440","j","buli","true","","4"
"4020","","","","","3","html-slider-response","441","","","","3",""
"1021","","","","","3","html-keyboard-response","442","","","","",""
"4252","spoon","betri,pagsulod,nzuri,ngazi","pagsulod","v","3","html-keyboard-response","443","n","ngazi","false","","4"
"2756","","","","","3","html-slider-response","444","","","","2",""
"1557","","","","","3","html-keyboard-response","445","","","","",""
"4082","scissors","tanuri,duga,mtawa,suga","tanuri","f","3","html-keyboard-response","446","n","suga","false","","4"
"2613","","","","","3","html-slider-response","447","","","","2",""
"1596","","","","","3","html-keyboard-response","448","","","","",""
"5460","page","wakala,ishiri,wimbo,skina","wimbo","j","3","html-keyboard-response","449","v","ishiri","false","","4"
"3969","","","","","3","html-slider-response","450","","","","3",""
"1183","","","","","3","html-keyboard-response","451","","","","",""
"3607","nose","gubat,sehemu,kopa,kidole","sehemu","v","3","html-keyboard-response","452","v","sehemu","true","","1"
"5840","","","","","3","html-slider-response","453","","","","5",""
"2272","","","","","3","html-keyboard-response","454","","","","",""
"11236","ceiling","kugita,kawaida,maua,rayna","maua","j","3","html-keyboard-response","455","v","kawaida","false","","4"
"2457","","","","","3","html-slider-response","456","","","","2",""
"1145","","","","","3","html-keyboard-response","457","","","","",""
"5004","bucket","baga,ijayo,init,kiatu","kiatu","n","3","html-keyboard-response","458","n","kiatu","true","","4"
"2635","","","","","3","html-slider-response","459","","","","2",""
"1826","","","","","3","html-keyboard-response","460","","","","",""
"2827","berry","kofia,abogado,nogozi,kinywa","kofia","f","3","html-keyboard-response","461","f","kofia","true","","1"
"3777","","","","","3","html-slider-response","462","","","","5",""
"3297","","","","","3","html-keyboard-response","463","","","","",""
"2350","mother","kahawa,mbuzi,babaye,jokofu","babaye","j","3","html-keyboard-response","464","j","babaye","true","","1"
"3697","","","","","3","html-slider-response","465","","","","5",""
"2851","","","","","3","html-keyboard-response","466","","","","",""
"5425","mosquito","martilyo,isda,taras,gutom","martilyo","f","3","html-keyboard-response","467","f","martilyo","true","","4"
"3347","","","","","3","html-slider-response","468","","","","5",""
"1269","","","","","3","html-keyboard-response","469","","","","",""
"3265","perfume","bino,sungura,ndogo,katuyoan","katuyoan","n","3","html-keyboard-response","470","j","ndogo","false","","4"
"2834","","","","","3","html-slider-response","471","","","","4",""
"2037","","","","","3","html-keyboard-response","472","","","","",""
"5122","sheet","bililhon,juuya,watu,kamantis","bililhon","f","3","html-keyboard-response","473","f","bililhon","true","","4"
"4215","","","","","3","html-slider-response","474","","","","3",""
"1223","","","","","3","html-keyboard-response","475","","","","",""
"2407","puppet","mazishi,napulo,lamok,godoro","mazishi","f","3","html-keyboard-response","476","f","mazishi","true","","1"
"4347","","","","","3","html-slider-response","477","","","","5",""
"13686","","","","","3","html-keyboard-response","478","","","","",""
"5337","poster","nchi,fedha,kasuko,madungog","madungog","n","3","html-keyboard-response","479","n","madungog","true","","4"
"3544","","","","","3","html-slider-response","480","","","","3",""
"1720","","","","","3","html-keyboard-response","481","","","","",""
"3701","music","mraba,mageho,baiski,tumbo","baiski","j","3","html-keyboard-response","482","n","tumbo","false","","4"
"2852","","","","","3","html-slider-response","483","","","","4",""
"1397","","","","","3","html-keyboard-response","484","","","","",""
"7419","key","miaka,goma,chombo,ahos","chombo","j","3","html-keyboard-response","485","f","miaka","false","","4"
"2277","","","","","3","html-slider-response","486","","","","2",""
"1105","","","","","3","html-keyboard-response","487","","","","",""
"3213","sock","ndoora,mamba,kimysa,mtirka","mamba","v","3","html-keyboard-response","488","v","mamba","true","","4"
"5944","","","","","3","html-slider-response","489","","","","5",""
"3383","","","","","3","html-keyboard-response","490","","","","",""
"5196","marker","mapafu,maji,salita,atay","maji","v","3","html-keyboard-response","491","v","maji","true","","4"
"2785","","","","","3","html-slider-response","492","","","","5",""
"964","","","","","3","html-keyboard-response","493","","","","",""
"5067","office","hazini,yatima,leso,kuna","leso","j","3","html-keyboard-response","494","v","yatima","false","","4"
"3406","","","","","3","html-slider-response","495","","","","3",""
"1084","","","","","3","html-keyboard-response","496","","","","",""
"8186","shoe","nyeusi,uyoga,hatua,kama","uyoga","v","3","html-keyboard-response","497","j","hatua","false","","4"
"2446","","","","","3","html-slider-response","498","","","","2",""
"1836","","","","","3","html-keyboard-response","499","","","","",""
"2503","cop","bustani,mechezo,jikoni,bakus","mechezo","v","3","html-keyboard-response","500","v","mechezo","true","","4"
"3549","","","","","3","html-slider-response","501","","","","5",""
"1515","","","","","3","html-keyboard-response","502","","","","",""
"6597","bank","kudhibi,tualya,silingan,ofisi","silingan","j","3","html-keyboard-response","503","f","kudhibi","false","","4"
"3146","","","","","3","html-slider-response","504","","","","2",""
"982","","","","","3","html-keyboard-response","505","","","","",""
"2400","letter","filimbi,kifua,chuma,uhuru","kifua","v","3","html-keyboard-response","506","v","kifua","true","","1"
"3581","","","","","3","html-slider-response","507","","","","5",""
"926","","","","","3","html-keyboard-response","508","","","","",""
"3270","dog","bahari,lubi,washia,kalamu","bahari","f","3","html-keyboard-response","509","f","bahari","true","","1"
"3904","","","","","3","html-slider-response","510","","","","5",""
"1743","","","","","3","html-keyboard-response","511","","","","",""
"7041","shop","nopya,samaki,kerida,ndezu","samaki","v","3","html-keyboard-response","512","v","samaki","true","","4"
"4211","","","","","3","html-slider-response","513","","","","3",""
"887","","","","","3","html-keyboard-response","514","","","","",""
"6183","flower","tamasha,bega,lobo,usiku","bega","v","3","html-keyboard-response","515","f","tamasha","false","","4"
"2437","","","","","3","html-slider-response","516","","","","2",""
"1032","","","","","3","html-keyboard-response","517","","","","",""
"2673","cigar","ndugu,kuta,mlango,adhabu","adhabu","n","3","html-keyboard-response","518","n","adhabu","true","","1"
"2591","","","","","3","html-slider-response","519","","","","5",""
"2017","","","","","3","html-keyboard-response","520","","","","",""
"8595","hammer","napakyas,mekno,kitovu,layag","napakyas","f","3","html-keyboard-response","521","f","napakyas","true","","4"
"3709","","","","","3","html-slider-response","522","","","","4",""
"959","","","","","3","html-keyboard-response","523","","","","",""
"7150","fork","baboy,paghago,mgonjwa,gorisi","mgonjwa","j","3","html-keyboard-response","524","j","mgonjwa","true","","4"
"4415","","","","","3","html-slider-response","525","","","","3",""
"709","","","","","3","html-keyboard-response","526","","","","",""
"2121","sun","bendi,luha,basi,uongo","basi","j","3","html-keyboard-response","527","j","basi","true","","1"
"2902","","","","","3","html-slider-response","528","","","","5",""
"1064","","","","","3","html-keyboard-response","529","","","","",""
"4133","ladder","pangalan,mashua,mwanga,kamba","pangalan","f","3","html-keyboard-response","530","f","pangalan","true","","4"
"2358","","","","","3","html-slider-response","531","","","","4",""
"924","","","","","3","html-keyboard-response","532","","","","",""
"2178","banana","kasamok,hagdan,twai,kazi","kazi","n","3","html-keyboard-response","533","n","kazi","true","","1"
"4268","","","","","3","html-slider-response","534","","","","5",""
"1868","","","","","3","html-keyboard-response","535","","","","",""
"5487","pudding","abug,aibu,mpishi,iring","aibu","v","3","html-keyboard-response","536","f","abug","false","","4"
"2761","","","","","3","html-slider-response","537","","","","1",""
"953","","","","","3","html-keyboard-response","538","","","","",""
"14939","body","nyundu,jibini,kununa,tindashan","tindashan","n","3","html-keyboard-response","539","n","tindashan","true","","4"
"2520","","","","","3","html-slider-response","540","","","","4",""
"880","","","","","3","html-keyboard-response","541","","","","",""
"4424","bed","kalipay,haraka,starehe,mapintas","mapintas","n","3","html-keyboard-response","542","f","kalipay","false","","4"
"3192","","","","","3","html-slider-response","543","","","","4",""
"884","","","","","3","html-keyboard-response","544","","","","",""
"6305","tissue","ugomvi,lamigas,kisiwa,katika","ugomvi","f","3","html-keyboard-response","545","n","katika","false","","4"
"2744","","","","","3","html-slider-response","546","","","","2",""
"957","","","","","3","html-keyboard-response","547","","","","",""
"5782","candle","geza,gabi,farasi,kupanda","geza","f","3","html-keyboard-response","548","n","kupanda","false","","4"
"3547","","","","","3","html-slider-response","549","","","","2",""
"802","","","","","3","html-keyboard-response","550","","","","",""
"2472","tomato","chupi,chupa,takatak,mvua","mvua","n","3","html-keyboard-response","551","n","mvua","true","","1"
"3885","","","","","3","html-slider-response","552","","","","5",""
"1138","","","","","3","html-keyboard-response","553","","","","",""
"6905","list","alizeti,kuzama,wingu,kaso","wingu","j","3","html-keyboard-response","554","j","wingu","true","","4"
"2856","","","","","3","html-slider-response","555","","","","4",""
"875","","","","","3","html-keyboard-response","556","","","","",""
"8827","olive","bata,jiwe,siagi,welder","jiwe","v","3","html-keyboard-response","557","f","bata","false","","4"
"2590","","","","","3","html-slider-response","558","","","","2",""
"1605","","","","","3","html-keyboard-response","559","","","","",""
"2090","picture","kubwa,silya,chaki,asin","kubwa","f","3","html-keyboard-response","560","f","kubwa","true","","1"
"2877","","","","","3","html-slider-response","561","","","","5",""
"1759","","","","","3","html-keyboard-response","562","","","","",""
"4984","page","wimbo,wakala,ishiri,skina","wimbo","f","4","html-keyboard-response","888","j","ishiri","false","",""
"2950","","","","","4","html-slider-response","889","","","","1",""
"9013","sheet","bililhon,juuya,watu,kamantis","bililhon","f","4","html-keyboard-response","890","f","bililhon","true","",""
"2350","","","","","4","html-slider-response","891","","","","2",""
"4803","ladder","mashua,mwanga,pangalan,kamba","pangalan","j","4","html-keyboard-response","892","j","pangalan","true","",""
"3926","","","","","4","html-slider-response","893","","","","4",""
"8039","door","tena,soko,nyota,surali","surali","n","4","html-keyboard-response","894","n","surali","true","",""
"2800","","","","","4","html-slider-response","895","","","","5",""
"3070","spider","bunyag,mkboa,atop,kamwe","kamwe","n","4","html-keyboard-response","896","n","kamwe","true","",""
"2954","","","","","4","html-slider-response","897","","","","5",""
"7291","picture","silya,chaki,kubwa,asin","kubwa","j","4","html-keyboard-response","898","j","kubwa","true","",""
"2946","","","","","4","html-slider-response","899","","","","4",""
"6666","boat","hamsi,agalon,pombe,kitanda","agalon","v","4","html-keyboard-response","900","n","kitanda","false","",""
"2959","","","","","4","html-slider-response","901","","","","3",""
"4299","donkey","bloke,elfu,lalake,rombus","elfu","v","4","html-keyboard-response","902","v","elfu","true","",""
"2892","","","","","4","html-slider-response","903","","","","5",""
"12250","book","kuhesa,mali,picha,mara","mali","v","4","html-keyboard-response","904","v","mali","true","",""
"2181","","","","","4","html-slider-response","905","","","","2",""
"10108","cup","dagat,matumai,shimoni,jeraha","matumai","v","4","html-keyboard-response","906","f","dagat","false","",""
"2132","","","","","4","html-slider-response","907","","","","2",""
"4817","sun","bendi,luha,uongo,basi","basi","n","4","html-keyboard-response","908","n","basi","true","",""
"3423","","","","","4","html-slider-response","909","","","","5",""
"4983","pudding","abug,mpishi,iring,aibu","aibu","n","4","html-keyboard-response","910","n","aibu","true","",""
"2928","","","","","4","html-slider-response","911","","","","4",""
"2373","human","tinapay,bado,kikapu,punguza","tinapay","f","4","html-keyboard-response","912","f","tinapay","true","",""
"2584","","","","","4","html-slider-response","913","","","","5",""
"5282","squirrel","mahugaw,hofu,ukweli,kichwa","hofu","v","4","html-keyboard-response","914","f","mahugaw","false","",""
"2300","","","","","4","html-slider-response","915","","","","4",""
"4535","park","tambok,bunifu,pwani,ihalas","bunifu","v","4","html-keyboard-response","916","v","bunifu","true","",""
"2234","","","","","4","html-slider-response","917","","","","4",""
"4299","poster","nchi,fedha,kasuko,madungog","madungog","n","4","html-keyboard-response","918","n","madungog","true","",""
"2565","","","","","4","html-slider-response","919","","","","1",""
"3108","wolf","kaburi,lugha,ndizi,mchuzi","lugha","v","4","html-keyboard-response","920","v","lugha","true","",""
"2527","","","","","4","html-slider-response","921","","","","5",""
"4709","cat","paghukom,neyemba,baki,akili","paghukom","f","4","html-keyboard-response","922","v","neyemba","false","",""
"2938","","","","","4","html-slider-response","923","","","","2",""
"8403","fish","bala,baho,buli,imani","buli","j","4","html-keyboard-response","924","j","buli","true","",""
"2521","","","","","4","html-slider-response","925","","","","5",""
"2971","tooth","kijiko,uadui,pahiyum,kabalaka","kabalaka","n","4","html-keyboard-response","926","v","uadui","false","",""
"4192","","","","","4","html-slider-response","927","","","","1",""
"5917","cave","kesho,ganti,maisha,nyundo","kesho","f","4","html-keyboard-response","928","n","nyundo","false","",""
"3290","","","","","4","html-slider-response","929","","","","2",""
"5691","lamp","daub,bilaska,afya,mbolea","afya","j","4","html-keyboard-response","930","n","mbolea","false","",""
"2365","","","","","4","html-slider-response","931","","","","4",""
"4670","banana","kasamok,hagdan,kazi,twai","kazi","j","4","html-keyboard-response","932","j","kazi","true","",""
"3538","","","","","4","html-slider-response","933","","","","5",""
"8300","bonfire","mwezi,mfuko,kusanya,goti","goti","n","4","html-keyboard-response","934","v","mfuko","false","",""
"3484","","","","","4","html-slider-response","935","","","","2",""
"3798","cop","bustani,jikoni,bakus,mechezo","mechezo","n","4","html-keyboard-response","936","n","mechezo","true","",""
"2673","","","","","4","html-slider-response","937","","","","5",""
"5762","marker","mapafu,salita,maji,atay","maji","j","4","html-keyboard-response","938","j","maji","true","",""
"2561","","","","","4","html-slider-response","939","","","","5",""
"8416","window","nanga,kujenga,kweli,umaga","kweli","j","4","html-keyboard-response","940","j","kweli","true","",""
"2923","","","","","4","html-slider-response","941","","","","3",""
"3599","body","nyundu,tindashan,jibini,kununa","tindashan","v","4","html-keyboard-response","942","v","tindashan","true","",""
"2220","","","","","4","html-slider-response","943","","","","1",""
"6564","apple","ukame,estante,kisu,edad","kisu","j","4","html-keyboard-response","944","j","kisu","true","",""
"2702","","","","","4","html-slider-response","945","","","","5",""
"7238","salmon","mzungu,seri,sensilyo,baharia","sensilyo","j","4","html-keyboard-response","946","f","mzungu","false","",""
"2717","","","","","4","html-slider-response","947","","","","2",""
"4143","bed","mapintas,kalipay,haraka,starehe","mapintas","f","4","html-keyboard-response","948","v","kalipay","false","",""
"2504","","","","","4","html-slider-response","949","","","","1",""
"2918","berry","abogado,nogozi,kinywa,kofia","kofia","n","4","html-keyboard-response","950","n","kofia","true","",""
"3228","","","","","4","html-slider-response","951","","","","5",""
"15513","mirror","sulagma,rangi,kanding,furaha","sulagma","f","4","html-keyboard-response","952","f","sulagma","true","",""
"1949","","","","","4","html-slider-response","953","","","","2",""
"4099","flag","ndege,mkate,kawa,trekta","trekta","n","4","html-keyboard-response","954","n","trekta","true","",""
"2669","","","","","4","html-slider-response","955","","","","5",""
"3979","shoulder","kelele,ndaniya,mkuu,guruwe","mkuu","j","4","html-keyboard-response","956","n","guruwe","false","",""
"2482","","","","","4","html-slider-response","957","","","","1",""
"5412","tissue","lamigas,kisiwa,ugomvi,katika","ugomvi","j","4","html-keyboard-response","958","n","katika","false","",""
"2422","","","","","4","html-slider-response","959","","","","2",""
"4081","notebook","msitu,kila,mdudu,kemia","kemia","n","4","html-keyboard-response","960","j","mdudu","false","",""
"3170","","","","","4","html-slider-response","961","","","","3",""
"4535","snake","jansa,pagtukod,karon,mvringo","pagtukod","v","4","html-keyboard-response","962","v","pagtukod","true","",""
"2488","","","","","4","html-slider-response","963","","","","4",""
"4411","finger","simu,moyo,sufuria,lima","moyo","v","4","html-keyboard-response","964","v","moyo","true","",""
"3247","","","","","4","html-slider-response","965","","","","5",""
"3284","basket","kumba,kumbuka,utepe,hasira","kumba","f","4","html-keyboard-response","966","v","kumbuka","false","",""
"2263","","","","","4","html-slider-response","967","","","","1",""
"2925","curtain","mchanga,lisud,bulwawan,chubani","mchanga","f","4","html-keyboard-response","968","j","bulwawan","false","",""
"2965","","","","","4","html-slider-response","969","","","","3",""
"5958","perfume","bino,sungura,katuyoan,ndogo","katuyoan","j","4","html-keyboard-response","970","n","ndogo","false","",""
"2579","","","","","4","html-slider-response","971","","","","2",""
"3442","key","chombo,miaka,goma,ahos","chombo","f","4","html-keyboard-response","972","v","miaka","false","",""
"2380","","","","","4","html-slider-response","973","","","","1",""
"5203","olive","bata,siagi,welder,jiwe","jiwe","n","4","html-keyboard-response","974","n","jiwe","true","",""
"2490","","","","","4","html-slider-response","975","","","","2",""
"7010","rose","singizi,mwanake,amani,paghalad","paghalad","n","4","html-keyboard-response","976","v","mwanake","false","",""
"2249","","","","","4","html-slider-response","977","","","","2",""
"5510","bridge","daima,sahani,ngono,panya","sahani","v","4","html-keyboard-response","978","f","daima","false","",""
"8653","","","","","4","html-slider-response","979","","","","3",""
"3065","hill","matumbo,kushoto,kukimba,sweta","matumbo","f","4","html-keyboard-response","980","f","matumbo","true","",""
"2568","","","","","4","html-slider-response","981","","","","5",""
"11104","letter","filimbi,kifua,chuma,uhuru","kifua","v","4","html-keyboard-response","982","v","kifua","true","",""
"2277","","","","","4","html-slider-response","983","","","","4",""
"3698","sock","ndoora,kimysa,mamba,mtirka","mamba","j","4","html-keyboard-response","984","j","mamba","true","",""
"2750","","","","","4","html-slider-response","985","","","","5",""
"6381","fork","baboy,mgonjwa,paghago,gorisi","mgonjwa","v","4","html-keyboard-response","986","v","mgonjwa","true","",""
"3451","","","","","4","html-slider-response","987","","","","4",""
"8924","box","kuacha,adui,rafiki,kitande","adui","v","4","html-keyboard-response","988","n","kitande","false","",""
"2725","","","","","4","html-slider-response","989","","","","1",""
"8602","gift","baba,nyange,baso,pagtawag","pagtawag","n","4","html-keyboard-response","990","n","pagtawag","true","",""
"2154","","","","","4","html-slider-response","991","","","","2",""
"3109","bucket","baga,kiatu,ijayo,init","kiatu","v","4","html-keyboard-response","992","v","kiatu","true","",""
"2648","","","","","4","html-slider-response","993","","","","2",""
"4376","shop","samaki,nopya,kerida,ndezu","samaki","f","4","html-keyboard-response","994","n","ndezu","false","",""
"2548","","","","","4","html-slider-response","995","","","","4",""
"12243","puppet","napulo,mazishi,lamok,godoro","mazishi","v","4","html-keyboard-response","996","f","napulo","false","",""
"2649","","","","","4","html-slider-response","997","","","","2",""
"4779","nose","gubat,kopa,sehemu,kidole","sehemu","j","4","html-keyboard-response","998","n","kidole","false","",""
"6403","","","","","4","html-slider-response","999","","","","2",""
"3388","music","mraba,mageho,tumbo,baiski","baiski","n","4","html-keyboard-response","1000","v","mageho","false","",""
"2266","","","","","4","html-slider-response","1001","","","","2",""
"10655","dog","lubi,bahari,washia,kalamu","bahari","v","4","html-keyboard-response","1002","v","bahari","true","",""
"2345","","","","","4","html-slider-response","1003","","","","4",""
"5800","eel","msumari,ishara,kunywa,kabuang","msumari","f","4","html-keyboard-response","1004","f","msumari","true","",""
"3230","","","","","4","html-slider-response","1005","","","","2",""
"9410","number","mundamo,shule,kengele,choori","mundamo","f","4","html-keyboard-response","1006","j","kengele","false","",""
"2491","","","","","4","html-slider-response","1007","","","","4",""
"5696","tomato","mvua,chupi,chupa,takatak","mvua","f","4","html-keyboard-response","1008","n","takatak","false","",""
"2202","","","","","4","html-slider-response","1009","","","","5",""
"2986","coffin","barua,tubag,hulma,kioo","kioo","n","4","html-keyboard-response","1010","n","kioo","true","",""
"2752","","","","","4","html-slider-response","1011","","","","5",""
"3929","knee","duka,mvuke,kubale,bili","duka","f","4","html-keyboard-response","1012","f","duka","true","",""
"2552","","","","","4","html-slider-response","1013","","","","5",""
"10025","woman","pagtabon,bandari,bituin,kovuli","pagtabon","f","4","html-keyboard-response","1014","f","pagtabon","true","",""
"2176","","","","","4","html-slider-response","1015","","","","4",""
"3506","stone","ulimwengu,mkasi,wingi,asili","wingi","j","4","html-keyboard-response","1016","n","asili","false","",""
"2892","","","","","4","html-slider-response","1017","","","","2",""
"4522","bread","kaili,dizeli,bugas,dari","dari","n","4","html-keyboard-response","1018","n","dari","true","",""
"3677","","","","","4","html-slider-response","1019","","","","3",""
"5252","triangle","kasadpan,kihozi,bentaha,liog","kasadpan","f","4","html-keyboard-response","1020","f","kasadpan","true","",""
"2035","","","","","4","html-slider-response","1021","","","","2",""
"4990","scissors","duga,mtawa,tanuri,suga","tanuri","j","4","html-keyboard-response","1022","n","suga","false","",""
"2374","","","","","4","html-slider-response","1023","","","","2",""
"3647","giraffe","mahitabo,daraja,jumatu,hangyo","mahitabo","f","4","html-keyboard-response","1024","f","mahitabo","true","",""
"2514","","","","","4","html-slider-response","1025","","","","5",""
"4141","flower","tamasha,bega,lobo,usiku","bega","v","4","html-keyboard-response","1026","f","tamasha","false","",""
"2750","","","","","4","html-slider-response","1027","","","","4",""
"6147","candle","geza,gabi,farasi,kupanda","geza","f","4","html-keyboard-response","1028","f","geza","true","",""
"2199","","","","","4","html-slider-response","1029","","","","4",""
"4247","mother","kahawa,mbuzi,jokofu,babaye","babaye","n","4","html-keyboard-response","1030","j","jokofu","false","",""
"2914","","","","","4","html-slider-response","1031","","","","5",""
"6327","towel","tembo,pagpalit,funzi,pito","pagpalit","v","4","html-keyboard-response","1032","f","tembo","false","",""
"3272","","","","","4","html-slider-response","1033","","","","3",""
"2764","elephant","petye,pagduol,kito,suka","kito","j","4","html-keyboard-response","1034","j","kito","true","",""
"3081","","","","","4","html-slider-response","1035","","","","5",""
"3224","shelf","pamahaw,bungtod,kadaot,awit","pamahaw","f","4","html-keyboard-response","1036","j","kadaot","false","",""
"2411","","","","","4","html-slider-response","1037","","","","4",""
"2979","mosquito","martilyo,isda,taras,gutom","martilyo","f","4","html-keyboard-response","1038","f","martilyo","true","",""
"3213","","","","","4","html-slider-response","1039","","","","5",""
"13159","column","pundok,ufagio,dila,pala","ufagio","v","4","html-keyboard-response","1040","f","pundok","false","",""
"2467","","","","","4","html-slider-response","1041","","","","1",""
"4334","pants","pintal,haki,chuki,hari","haki","v","4","html-keyboard-response","1042","v","haki","true","",""
"2584","","","","","4","html-slider-response","1043","","","","5",""
"7135","list","wingu,alizeti,kuzama,kaso","wingu","f","4","html-keyboard-response","1044","f","wingu","true","",""
"2878","","","","","4","html-slider-response","1045","","","","2",""
"5541","bank","kudhibi,tualya,ofisi,silingan","silingan","n","4","html-keyboard-response","1046","v","tualya","false","",""
"5427","","","","","4","html-slider-response","1047","","","","2",""
"3622","clock","kartasi,abang,mbwa,osha","mbwa","j","4","html-keyboard-response","1048","v","abang","false","",""
"3317","","","","","4","html-slider-response","1049","","","","3",""
"3133","ceiling","kugita,kawaida,maua,rayna","maua","j","4","html-keyboard-response","1050","v","kawaida","false","",""
"2443","","","","","4","html-slider-response","1051","","","","2",""
"16842","train","sayari,itik,dakika,mungu","sayari","f","4","html-keyboard-response","1052","j","dakika","false","",""
"2647","","","","","4","html-slider-response","1053","","","","1",""
"3109","magazine","kiti,gundi,mchawi,bahandi","kiti","f","4","html-keyboard-response","1054","n","bahandi","false","",""
"3042","","","","","4","html-slider-response","1055","","","","2",""
"3582","office","leso,hazini,yatima,kuna","leso","f","4","html-keyboard-response","1056","f","leso","true","",""
"2519","","","","","4","html-slider-response","1057","","","","4",""
"7982","wheel","punda,tawo,baadaye,bafuni","bafuni","n","4","html-keyboard-response","1058","j","baadaye","false","",""
"2290","","","","","4","html-slider-response","1059","","","","2",""
"3834","spoon","pagsulod,betri,nzuri,ngazi","pagsulod","f","4","html-keyboard-response","1060","f","pagsulod","true","",""
"3117","","","","","4","html-slider-response","1061","","","","2",""
"4634","hammer","mekno,kitovu,napakyas,layag","napakyas","j","4","html-keyboard-response","1062","f","mekno","false","",""
"3117","","","","","4","html-slider-response","1063","","","","1",""
"6035","cigar","ndugu,kuta,adhabu,mlango","adhabu","j","4","html-keyboard-response","1064","n","mlango","false","",""
"2390","","","","","4","html-slider-response","1065","","","","2",""
"2789","shoe","nyeusi,hatua,kama,uyoga","uyoga","n","4","html-keyboard-response","1066","j","kama","false","",""
"2641","","","","","4","html-slider-response","1067","","","","3",""
"4698","list","alizeti,kuzama,wingu,kaso","wingu","j","5","html-keyboard-response","1069","n","kaso","false","",""
"2851","","","","","5","html-slider-response","1070","","","","1",""
"2660","number","shule,mundamo,kengele,choori","mundamo","v","5","html-keyboard-response","1071","j","kengele","false","",""
"2641","","","","","5","html-slider-response","1072","","","","2",""
"2047","apple","ukame,estante,kisu,edad","kisu","j","5","html-keyboard-response","1073","j","kisu","true","",""
"2823","","","","","5","html-slider-response","1074","","","","5",""
"3767","knee","mvuke,duka,kubale,bili","duka","v","5","html-keyboard-response","1075","v","duka","true","",""
"2284","","","","","5","html-slider-response","1076","","","","4",""
"3192","tooth","kabalaka,kijiko,uadui,pahiyum","kabalaka","f","5","html-keyboard-response","1077","f","kabalaka","true","",""
"2824","","","","","5","html-slider-response","1078","","","","5",""
"1937","berry","abogado,nogozi,kofia,kinywa","kofia","j","5","html-keyboard-response","1079","j","kofia","true","",""
"2470","","","","","5","html-slider-response","1080","","","","5",""
"5449","bridge","sahani,daima,ngono,panya","sahani","f","5","html-keyboard-response","1081","j","ngono","false","",""
"2286","","","","","5","html-slider-response","1082","","","","1",""
"2880","perfume","bino,sungura,ndogo,katuyoan","katuyoan","n","5","html-keyboard-response","1083","f","bino","false","",""
"2317","","","","","5","html-slider-response","1084","","","","1",""
"3492","ladder","pangalan,mashua,mwanga,kamba","pangalan","f","5","html-keyboard-response","1085","f","pangalan","true","",""
"3600","","","","","5","html-slider-response","1086","","","","4",""
"6225","pants","pintal,chuki,haki,hari","haki","j","5","html-keyboard-response","1087","j","haki","true","",""
"3500","","","","","5","html-slider-response","1088","","","","5",""
"3927","salmon","mzungu,seri,sensilyo,baharia","sensilyo","j","5","html-keyboard-response","1089","f","mzungu","false","",""
"2528","","","","","5","html-slider-response","1090","","","","4",""
"6170","coffin","barua,kioo,tubag,hulma","kioo","v","5","html-keyboard-response","1091","v","kioo","true","",""
"2489","","","","","5","html-slider-response","1092","","","","5",""
"5549","park","tambok,pwani,ihalas,bunifu","bunifu","n","5","html-keyboard-response","1093","f","tambok","false","",""
"3273","","","","","5","html-slider-response","1094","","","","4",""
"3105","giraffe","mahitabo,daraja,jumatu,hangyo","mahitabo","f","5","html-keyboard-response","1095","f","mahitabo","true","",""
"2999","","","","","5","html-slider-response","1096","","","","5",""
"4160","mirror","rangi,sulagma,kanding,furaha","sulagma","v","5","html-keyboard-response","1097","v","sulagma","true","",""
"2689","","","","","5","html-slider-response","1098","","","","1",""
"1958","ceiling","maua,kugita,kawaida,rayna","maua","f","5","html-keyboard-response","1099","v","kugita","false","",""
"2171","","","","","5","html-slider-response","1100","","","","2",""
"4018","marker","mapafu,salita,maji,atay","maji","j","5","html-keyboard-response","1101","j","maji","true","",""
"2921","","","","","5","html-slider-response","1102","","","","5",""
"6902","sock","ndoora,kimysa,mamba,mtirka","mamba","j","5","html-keyboard-response","1103","j","mamba","true","",""
"3551","","","","","5","html-slider-response","1104","","","","5",""
"2756","cop","bustani,mechezo,jikoni,bakus","mechezo","v","5","html-keyboard-response","1105","v","mechezo","true","",""
"2421","","","","","5","html-slider-response","1106","","","","5",""
"4838","gift","baba,nyange,pagtawag,baso","pagtawag","j","5","html-keyboard-response","1107","j","pagtawag","true","",""
"2693","","","","","5","html-slider-response","1108","","","","2",""
"5565","notebook","msitu,kila,kemia,mdudu","kemia","j","5","html-keyboard-response","1109","j","kemia","true","",""
"2162","","","","","5","html-slider-response","1110","","","","2",""
"4769","bank","kudhibi,tualya,ofisi,silingan","silingan","n","5","html-keyboard-response","1111","f","kudhibi","false","",""
"3619","","","","","5","html-slider-response","1112","","","","3",""
"2752","letter","filimbi,chuma,kifua,uhuru","kifua","j","5","html-keyboard-response","1113","v","chuma","false","",""
"3222","","","","","5","html-slider-response","1114","","","","1",""
"4338","candle","gabi,farasi,geza,kupanda","geza","j","5","html-keyboard-response","1115","f","gabi","false","",""
"2199","","","","","5","html-slider-response","1116","","","","4",""
"2840","bread","kaili,dizeli,bugas,dari","dari","n","5","html-keyboard-response","1117","n","dari","true","",""
"2533","","","","","5","html-slider-response","1118","","","","2",""
"3931","snake","jansa,karon,pagtukod,mvringo","pagtukod","j","5","html-keyboard-response","1119","j","pagtukod","true","",""
"2580","","","","","5","html-slider-response","1120","","","","4",""
"2479","rose","singizi,mwanake,amani,paghalad","paghalad","n","5","html-keyboard-response","1121","j","amani","false","",""
"2613","","","","","5","html-slider-response","1122","","","","1",""
"19045","hill","kushoto,kukimba,matumbo,sweta","matumbo","j","5","html-keyboard-response","1123","j","matumbo","true","",""
"2639","","","","","5","html-slider-response","1124","","","","5",""
"5664","train","sayari,itik,dakika,mungu","sayari","f","5","html-keyboard-response","1125","f","sayari","true","",""
"2892","","","","","5","html-slider-response","1126","","","","4",""
"7922","shop","samaki,nopya,kerida,ndezu","samaki","f","5","html-keyboard-response","1127","n","ndezu","false","",""
"3123","","","","","5","html-slider-response","1128","","","","2",""
"22348","nose","gubat,kopa,sehemu,kidole","sehemu","j","5","html-keyboard-response","1129","v","kopa","false","",""
"2538","","","","","5","html-slider-response","1130","","","","1",""
"5163","boat","hamsi,pombe,agalon,kitanda","agalon","j","5","html-keyboard-response","1131","n","kitanda","false","",""
"2344","","","","","5","html-slider-response","1132","","","","4",""
"2939","body","tindashan,nyundu,jibini,kununa","tindashan","f","5","html-keyboard-response","1133","v","nyundu","false","",""
"3076","","","","","5","html-slider-response","1134","","","","1",""
"3583","bed","mapintas,kalipay,haraka,starehe","mapintas","f","5","html-keyboard-response","1135","f","mapintas","true","",""
"2566","","","","","5","html-slider-response","1136","","","","1",""
"5493","squirrel","hofu,mahugaw,ukweli,kichwa","hofu","f","5","html-keyboard-response","1137","v","mahugaw","false","",""
"3312","","","","","5","html-slider-response","1138","","","","4",""
"11313","window","nanga,kujenga,umaga,kweli","kweli","n","5","html-keyboard-response","1139","j","umaga","false","",""
"2489","","","","","5","html-slider-response","1140","","","","1",""
"4889","bonfire","goti,mwezi,mfuko,kusanya","goti","f","5","html-keyboard-response","1141","j","mfuko","false","",""
"2603","","","","","5","html-slider-response","1142","","","","1",""
"1556","fish","bala,buli,baho,imani","buli","v","5","html-keyboard-response","1143","f","bala","false","",""
"2782","","","","","5","html-slider-response","1144","","","","2",""
"2229","cat","neyemba,baki,akili,paghukom","paghukom","n","5","html-keyboard-response","1145","v","baki","false","",""
"1661","","","","","5","html-slider-response","1146","","","","2",""
"2530","spider","bunyag,mkboa,kamwe,atop","kamwe","j","5","html-keyboard-response","1147","j","kamwe","true","",""
"2620","","","","","5","html-slider-response","1148","","","","5",""
"3834","eel","ishara,kunywa,msumari,kabuang","msumari","j","5","html-keyboard-response","1149","n","kabuang","false","",""
"2709","","","","","5","html-slider-response","1150","","","","4",""
"4152","woman","bandari,bituin,pagtabon,kovuli","pagtabon","j","5","html-keyboard-response","1151","j","pagtabon","true","",""
"2278","","","","","5","html-slider-response","1152","","","","4",""
"2180","magazine","kiti,gundi,mchawi,bahandi","kiti","f","5","html-keyboard-response","1153","f","kiti","true","",""
"2862","","","","","5","html-slider-response","1154","","","","1",""
"7876","pudding","abug,aibu,mpishi,iring","aibu","v","5","html-keyboard-response","1155","v","aibu","true","",""
"2275","","","","","5","html-slider-response","1156","","","","2",""
"5570","lamp","afya,daub,bilaska,mbolea","afya","f","5","html-keyboard-response","1157","j","bilaska","false","",""
"2722","","","","","5","html-slider-response","1158","","","","1",""
"10160","cave","ganti,maisha,kesho,nyundo","kesho","j","5","html-keyboard-response","1159","f","ganti","false","",""
"2350","","","","","5","html-slider-response","1160","","","","4",""
"2049","shoulder","kelele,ndaniya,mkuu,guruwe","mkuu","j","5","html-keyboard-response","1161","v","ndaniya","false","",""
"3147","","","","","5","html-slider-response","1162","","","","2",""
"4032","stone","ulimwengu,mkasi,wingi,asili","wingi","j","5","html-keyboard-response","1163","j","wingi","true","",""
"2809","","","","","5","html-slider-response","1164","","","","1",""
"2351","column","pundok,ufagio,dila,pala","ufagio","v","5","html-keyboard-response","1165","f","pundok","false","",""
"2242","","","","","5","html-slider-response","1166","","","","1",""
"1847","page","wakala,ishiri,wimbo,skina","wimbo","j","5","html-keyboard-response","1167","v","ishiri","false","",""
"2210","","","","","5","html-slider-response","1168","","","","2",""
"2194","shoe","nyeusi,hatua,uyoga,kama","uyoga","j","5","html-keyboard-response","1169","f","nyeusi","false","",""
"2881","","","","","5","html-slider-response","1170","","","","1",""
"2802","clock","mbwa,kartasi,abang,osha","mbwa","f","5","html-keyboard-response","1171","n","osha","false","",""
"2472","","","","","5","html-slider-response","1172","","","","2",""
"1822","towel","pagpalit,tembo,funzi,pito","pagpalit","f","5","html-keyboard-response","1173","f","pagpalit","true","",""
"2616","","","","","5","html-slider-response","1174","","","","1",""
"5367","tomato","chupi,chupa,takatak,mvua","mvua","n","5","html-keyboard-response","1175","j","takatak","false","",""
"3744","","","","","5","html-slider-response","1176","","","","4",""
"3349","bucket","baga,ijayo,kiatu,init","kiatu","j","5","html-keyboard-response","1177","j","kiatu","true","",""
"2466","","","","","5","html-slider-response","1178","","","","1",""
"2959","finger","simu,sufuria,moyo,lima","moyo","j","5","html-keyboard-response","1179","j","moyo","true","",""
"2742","","","","","5","html-slider-response","1180","","","","5",""
"2740","mother","babaye,kahawa,mbuzi,jokofu","babaye","f","5","html-keyboard-response","1181","n","jokofu","false","",""
"2639","","","","","5","html-slider-response","1182","","","","5",""
"3936","human","tinapay,bado,kikapu,punguza","tinapay","f","5","html-keyboard-response","1183","f","tinapay","true","",""
"3055","","","","","5","html-slider-response","1184","","","","5",""
"3945","sun","bendi,luha,basi,uongo","basi","j","5","html-keyboard-response","1185","f","bendi","false","",""
"2924","","","","","5","html-slider-response","1186","","","","4",""
"2310","fork","mgonjwa,baboy,paghago,gorisi","mgonjwa","f","5","html-keyboard-response","1187","j","paghago","false","",""
"2607","","","","","5","html-slider-response","1188","","","","1",""
"3445","donkey","bloke,lalake,elfu,rombus","elfu","j","5","html-keyboard-response","1189","j","elfu","true","",""
"3528","","","","","5","html-slider-response","1190","","","","5",""
"2823","wolf","lugha,kaburi,ndizi,mchuzi","lugha","f","5","html-keyboard-response","1191","f","lugha","true","",""
"2875","","","","","5","html-slider-response","1192","","","","5",""
"6873","cigar","ndugu,kuta,adhabu,mlango","adhabu","j","5","html-keyboard-response","1193","n","mlango","false","",""
"3212","","","","","5","html-slider-response","1194","","","","1",""
"1819","olive","bata,jiwe,siagi,welder","jiwe","v","5","html-keyboard-response","1195","f","bata","false","",""
"2580","","","","","5","html-slider-response","1196","","","","1",""
"2805","key","miaka,goma,ahos,chombo","chombo","n","5","html-keyboard-response","1197","v","goma","false","",""
"2319","","","","","5","html-slider-response","1198","","","","1",""
"1687","door","surali,tena,soko,nyota","surali","f","5","html-keyboard-response","1199","f","surali","true","",""
"8689","","","","","5","html-slider-response","1200","","","","1",""
"1504","wheel","punda,tawo,bafuni,baadaye","bafuni","j","5","html-keyboard-response","1201","v","tawo","false","",""
"2470","","","","","5","html-slider-response","1202","","","","1",""
"1900","basket","kumbuka,utepe,hasira,kumba","kumba","n","5","html-keyboard-response","1203","f","kumbuka","false","",""
"2647","","","","","5","html-slider-response","1204","","","","2",""
"3101","elephant","petye,kito,pagduol,suka","kito","v","5","html-keyboard-response","1205","v","kito","true","",""
"3524","","","","","5","html-slider-response","1206","","","","5",""
"8742","office","hazini,leso,yatima,kuna","leso","v","5","html-keyboard-response","1207","f","hazini","false","",""
"2728","","","","","5","html-slider-response","1208","","","","1",""
"4342","music","baiski,mraba,mageho,tumbo","baiski","f","5","html-keyboard-response","1209","f","baiski","true","",""
"2936","","","","","5","html-slider-response","1210","","","","4",""
"1404","tissue","ugomvi,lamigas,kisiwa,katika","ugomvi","f","5","html-keyboard-response","1211","f","ugomvi","true","",""
"2544","","","","","5","html-slider-response","1212","","","","1",""
"598","curtain","mchanga,lisud,bulwawan,chubani","mchanga","f","5","html-keyboard-response","1213","v","lisud","false","",""
"2830","","","","","5","html-slider-response","1214","","","","1",""
"2661","flag","ndege,mkate,kawa,trekta","trekta","n","5","html-keyboard-response","1215","n","trekta","true","",""
"2362","","","","","5","html-slider-response","1216","","","","4",""
"5650","dog","lubi,washia,kalamu,bahari","bahari","n","5","html-keyboard-response","1217","n","bahari","true","",""
"2479","","","","","5","html-slider-response","1218","","","","4",""
"7506","cup","dagat,shimoni,jeraha,matumai","matumai","n","5","html-keyboard-response","1219","f","dagat","false","",""
"2937","","","","","5","html-slider-response","1220","","","","2",""
"2764","sheet","juuya,watu,kamantis,bililhon","bililhon","n","5","html-keyboard-response","1221","v","watu","false","",""
"2377","","","","","5","html-slider-response","1222","","","","1",""
"3046","spoon","pagsulod,betri,nzuri,ngazi","pagsulod","f","5","html-keyboard-response","1223","n","ngazi","false","",""
"2695","","","","","5","html-slider-response","1224","","","","2",""
"6615","flower","tamasha,bega,lobo,usiku","bega","v","5","html-keyboard-response","1225","v","bega","true","",""
"2490","","","","","5","html-slider-response","1226","","","","1",""
"1669","picture","silya,chaki,asin,kubwa","kubwa","n","5","html-keyboard-response","1227","v","chaki","false","",""
"2806","","","","","5","html-slider-response","1228","","","","2",""
"2711","puppet","napulo,lamok,godoro,mazishi","mazishi","n","5","html-keyboard-response","1229","f","napulo","false","",""
"2680","","","","","5","html-slider-response","1230","","","","1",""
"3679","banana","kazi,kasamok,hagdan,twai","kazi","f","5","html-keyboard-response","1231","f","kazi","true","",""
"2667","","","","","5","html-slider-response","1232","","","","5",""
"1342","book","kuhesa,mali,picha,mara","mali","v","5","html-keyboard-response","1233","f","kuhesa","false","",""
"2899","","","","","5","html-slider-response","1234","","","","1",""
"1033","triangle","kasadpan,kihozi,bentaha,liog","kasadpan","f","5","html-keyboard-response","1235","v","kihozi","false","",""
"2237","","","","","5","html-slider-response","1236","","","","1",""
"1057","poster","nchi,madungog,fedha,kasuko","madungog","v","5","html-keyboard-response","1237","f","nchi","false","",""
"3221","","","","","5","html-slider-response","1238","","","","1",""
"2883","box","adui,kuacha,rafiki,kitande","adui","f","5","html-keyboard-response","1239","j","rafiki","false","",""
"3861","","","","","5","html-slider-response","1240","","","","1",""
"2010","mosquito","martilyo,isda,taras,gutom","martilyo","f","5","html-keyboard-response","1241","f","martilyo","true","",""
"2988","","","","","5","html-slider-response","1242","","","","5",""
"13132","shelf","bungtod,kadaot,awit,pamahaw","pamahaw","n","5","html-keyboard-response","1243","j","awit","false","",""
"2220","","","","","5","html-slider-response","1244","","","","1",""
"1731","scissors","tanuri,duga,mtawa,suga","tanuri","f","5","html-keyboard-response","1245","v","duga","false","",""
"2728","","","","","5","html-slider-response","1246","","","","1",""
"1693","hammer","mekno,kitovu,layag,napakyas","napakyas","n","5","html-keyboard-response","1247","f","mekno","false","",""
"1985","","","","","5","html-slider-response","1248","","","","2",""
