"rt","en_word","options","swa_word","correct_answer","phase","trial_type","trial_index","input_answer","input_word","accuracy","certainty","amt_choices"
"4942","bonfire","mwezi,mfuko,kusanya,goti","goti","n","2","html-keyboard-response","106","n","goti","true","",""
"3200.7400000002235","","","","","2","html-slider-response","107","","","","4",""
"3138","flower","tamasha,bega,lobo,usiku","bega","v","2","html-keyboard-response","108","f","tamasha","false","",""
"6219.8349999962375","","","","","2","html-slider-response","109","","","","3",""
"1800","column","ufagio,pundok,dila,pala","ufagio","f","2","html-keyboard-response","110","v","pundok","false","",""
"3007.439999957569","","","","","2","html-slider-response","111","","","","2",""
"5143","music","baiski,mraba,mageho,tumbo","baiski","f","2","html-keyboard-response","112","j","mageho","false","",""
"3540.350000024773","","","","","2","html-slider-response","113","","","","2",""
"3194","spider","bunyag,mkboa,kamwe,atop","kamwe","j","2","html-keyboard-response","114","f","bunyag","false","",""
"3192.490000044927","","","","","2","html-slider-response","115","","","","2",""
"2943","fork","baboy,paghago,mgonjwa,gorisi","mgonjwa","j","2","html-keyboard-response","116","n","gorisi","false","",""
"5386.414999957196","","","","","2","html-slider-response","117","","","","2",""
"2775","mosquito","martilyo,isda,taras,gutom","martilyo","f","2","html-keyboard-response","118","f","martilyo","true","",""
"6136.269999900833","","","","","2","html-slider-response","119","","","","2",""
"2045","banana","kazi,kasamok,hagdan,twai","kazi","f","2","html-keyboard-response","120","v","kasamok","false","",""
"3977.7150000445545","","","","","2","html-slider-response","121","","","","2",""
"3441","cup","matumai,dagat,shimoni,jeraha","matumai","f","2","html-keyboard-response","122","n","jeraha","false","",""
"5644.5999999996275","","","","","2","html-slider-response","123","","","","3",""
"4672","shop","nopya,kerida,samaki,ndezu","samaki","j","2","html-keyboard-response","124","n","ndezu","false","",""
"6486.035000067204","","","","","2","html-slider-response","125","","","","3",""
"4586","elephant","petye,kito,pagduol,suka","kito","v","2","html-keyboard-response","126","n","suka","false","",""
"4027.505000005476","","","","","2","html-slider-response","127","","","","2",""
"5888","bucket","baga,kiatu,ijayo,init","kiatu","v","2","html-keyboard-response","128","v","kiatu","true","",""
"4484.8800000036135","","","","","2","html-slider-response","129","","","","3",""
"2468","book","kuhesa,picha,mali,mara","mali","j","2","html-keyboard-response","130","f","kuhesa","false","",""
"3105.77500006184","","","","","2","html-slider-response","131","","","","2",""
"2821","mirror","rangi,sulagma,kanding,furaha","sulagma","v","2","html-keyboard-response","132","f","rangi","false","",""
"3182.9699999652803","","","","","2","html-slider-response","133","","","","4",""
"2621","office","hazini,yatima,leso,kuna","leso","j","2","html-keyboard-response","134","v","yatima","false","",""
"2652.834999957122","","","","","2","html-slider-response","135","","","","2",""
"1661","body","nyundu,jibini,tindashan,kununa","tindashan","j","2","html-keyboard-response","136","f","nyundu","false","",""
"2675.885000033304","","","","","2","html-slider-response","137","","","","2",""
"882","perfume","katuyoan,bino,sungura,ndogo","katuyoan","f","2","html-keyboard-response","138","n","ndogo","false","",""
"2951.395000098273","","","","","2","html-slider-response","139","","","","2",""
"1923","olive","bata,siagi,jiwe,welder","jiwe","j","2","html-keyboard-response","140","v","siagi","false","",""
"4719.5449999999255","","","","","2","html-slider-response","141","","","","2",""
"2176","magazine","gundi,kiti,mchawi,bahandi","kiti","v","2","html-keyboard-response","142","n","bahandi","false","",""
"2433.3699999842793","","","","","2","html-slider-response","143","","","","4",""
"5422","bread","dari,kaili,dizeli,bugas","dari","f","2","html-keyboard-response","144","f","dari","true","",""
"6173.294999985956","","","","","2","html-slider-response","145","","","","3",""
"2491","cave","ganti,kesho,maisha,nyundo","kesho","v","2","html-keyboard-response","146","n","nyundo","false","",""
"2593.529999954626","","","","","2","html-slider-response","147","","","","2",""
"2748","ladder","mashua,pangalan,mwanga,kamba","pangalan","v","2","html-keyboard-response","148","j","mwanga","false","",""
"5960.130000021309","","","","","2","html-slider-response","149","","","","3",""
"1466","human","bado,tinapay,kikapu,punguza","tinapay","v","2","html-keyboard-response","150","f","bado","false","",""
"3223.3049999922514","","","","","2","html-slider-response","151","","","","2",""
"4796","clock","mbwa,kartasi,abang,osha","mbwa","f","2","html-keyboard-response","152","v","kartasi","false","",""
"9564.400000032037","","","","","2","html-slider-response","153","","","","2",""
"3114","shelf","bungtod,pamahaw,kadaot,awit","pamahaw","v","2","html-keyboard-response","154","j","kadaot","false","",""
"3166.455000056885","","","","","2","html-slider-response","155","","","","2",""
"9077","salmon","mzungu,seri,sensilyo,baharia","sensilyo","j","2","html-keyboard-response","156","f","mzungu","false","",""
"5589.544999995269","","","","","2","html-slider-response","157","","","","3",""
"5274","coffin","barua,tubag,hulma,kioo","kioo","n","2","html-keyboard-response","158","n","kioo","true","",""
"6439.5100000547245","","","","","2","html-slider-response","159","","","","2",""
"2932","notebook","msitu,kila,mdudu,kemia","kemia","n","2","html-keyboard-response","160","v","kila","false","",""
"3222.10500005167","","","","","2","html-slider-response","161","","","","2",""
"1909","shoulder","mkuu,kelele,ndaniya,guruwe","mkuu","f","2","html-keyboard-response","162","v","kelele","false","",""
"3829.8349999822676","","","","","2","html-slider-response","163","","","","2",""
"3823","park","tambok,pwani,ihalas,bunifu","bunifu","n","2","html-keyboard-response","164","f","tambok","false","",""
"2635.8899999177083","","","","","2","html-slider-response","165","","","","2",""
"3880","number","mundamo,shule,kengele,choori","mundamo","f","2","html-keyboard-response","166","f","mundamo","true","",""
"3277.2450000047684","","","","","2","html-slider-response","167","","","","2",""
"4538","apple","ukame,estante,edad,kisu","kisu","n","2","html-keyboard-response","168","n","kisu","true","",""
"3270.1250000391155","","","","","2","html-slider-response","169","","","","4",""
"1982","letter","filimbi,kifua,chuma,uhuru","kifua","v","2","html-keyboard-response","170","v","kifua","true","",""
"3035.024999990128","","","","","2","html-slider-response","171","","","","4",""
"2687","eel","msumari,ishara,kunywa,kabuang","msumari","f","2","html-keyboard-response","172","v","ishara","false","",""
"5133.83999990765","","","","","2","html-slider-response","173","","","","2",""
"2563","cop","mechezo,bustani,jikoni,bakus","mechezo","f","2","html-keyboard-response","174","n","bakus","false","",""
"5637.9350000061095","","","","","2","html-slider-response","175","","","","3",""
"1409","wolf","kaburi,ndizi,mchuzi,lugha","lugha","n","2","html-keyboard-response","176","v","ndizi","false","",""
"2329.6700000064448","","","","","2","html-slider-response","177","","","","2",""
"1622","squirrel","mahugaw,ukweli,hofu,kichwa","hofu","j","2","html-keyboard-response","178","f","mahugaw","false","",""
"2701.6950000543147","","","","","2","html-slider-response","179","","","","2",""
"1211","nose","sehemu,gubat,kopa,kidole","sehemu","f","2","html-keyboard-response","180","n","kidole","false","",""
"6605.564999976195","","","","","2","html-slider-response","181","","","","2",""
"2858","sock","ndoora,kimysa,mamba,mtirka","mamba","j","2","html-keyboard-response","182","j","mamba","true","",""
"2347.7699999930337","","","","","2","html-slider-response","183","","","","2",""
"1041","bank","silingan,kudhibi,tualya,ofisi","silingan","f","2","html-keyboard-response","184","f","silingan","true","",""
"2445.930000045337","","","","","2","html-slider-response","185","","","","2",""
"998","donkey","bloke,lalake,rombus,elfu","elfu","n","2","html-keyboard-response","186","v","lalake","false","",""
"5816.749999998137","","","","","2","html-slider-response","187","","","","2",""
"3759","poster","nchi,fedha,kasuko,madungog","madungog","n","2","html-keyboard-response","188","j","kasuko","false","",""
"4101.685000001453","","","","","2","html-slider-response","189","","","","3",""
"2252","puppet","mazishi,napulo,lamok,godoro","mazishi","f","2","html-keyboard-response","190","f","mazishi","true","",""
"2280.209999997169","","","","","2","html-slider-response","191","","","","2",""
"1389","hill","kushoto,kukimba,matumbo,sweta","matumbo","j","2","html-keyboard-response","192","f","kushoto","false","",""
"6018.749999930151","","","","","2","html-slider-response","193","","","","2",""
"3563","tooth","kijiko,kabalaka,uadui,pahiyum","kabalaka","v","2","html-keyboard-response","194","v","kabalaka","true","",""
"3332.6799999922514","","","","","2","html-slider-response","195","","","","4",""
"2679","woman","bandari,pagtabon,bituin,kovuli","pagtabon","v","2","html-keyboard-response","196","v","pagtabon","true","",""
"3443.115000030957","","","","","2","html-slider-response","197","","","","5",""
"3232","wheel","punda,tawo,bafuni,baadaye","bafuni","j","2","html-keyboard-response","198","n","baadaye","false","",""
"3477.3849999764934","","","","","2","html-slider-response","199","","","","2",""
"2968","mother","kahawa,mbuzi,babaye,jokofu","babaye","j","2","html-keyboard-response","200","f","kahawa","false","",""
"2651.9149999367073","","","","","2","html-slider-response","201","","","","2",""
"3456","bed","kalipay,mapintas,haraka,starehe","mapintas","v","2","html-keyboard-response","202","j","haraka","false","",""
"3655.4550000000745","","","","","2","html-slider-response","203","","","","3",""
"4484","key","miaka,goma,ahos,chombo","chombo","n","2","html-keyboard-response","204","v","goma","false","",""
"2430.3599999984726","","","","","2","html-slider-response","205","","","","2",""
"2813","page","wakala,ishiri,wimbo,skina","wimbo","j","2","html-keyboard-response","206","v","ishiri","false","",""
"3715.2200000127777","","","","","2","html-slider-response","207","","","","2",""
"2518","pants","pintal,haki,chuki,hari","haki","v","2","html-keyboard-response","208","n","hari","false","",""
"5451.480000047013","","","","","2","html-slider-response","209","","","","2",""
"1463","sun","bendi,luha,uongo,basi","basi","n","2","html-keyboard-response","210","f","bendi","false","",""
"3558.4149999776855","","","","","2","html-slider-response","211","","","","2",""
"2423","finger","simu,moyo,sufuria,lima","moyo","v","2","html-keyboard-response","212","v","moyo","true","",""
"3284.5749999396503","","","","","2","html-slider-response","213","","","","5",""
"1869","shoe","nyeusi,hatua,kama,uyoga","uyoga","n","2","html-keyboard-response","214","f","nyeusi","false","",""
"2968.319999985397","","","","","2","html-slider-response","215","","","","2",""
"1960","giraffe","daraja,jumatu,mahitabo,hangyo","mahitabo","j","2","html-keyboard-response","216","v","jumatu","false","",""
"2512.745000072755","","","","","2","html-slider-response","217","","","","2",""
"1426","dog","lubi,washia,bahari,kalamu","bahari","j","2","html-keyboard-response","218","j","bahari","true","",""
"3816.5700000245124","","","","","2","html-slider-response","219","","","","2",""
"1950","box","kuacha,adui,rafiki,kitande","adui","v","2","html-keyboard-response","220","v","adui","true","",""
"2838.2399999536574","","","","","2","html-slider-response","221","","","","2",""
"1863","scissors","duga,mtawa,suga,tanuri","tanuri","n","2","html-keyboard-response","222","j","suga","false","",""
"4092.640000046231","","","","","2","html-slider-response","223","","","","2",""
"2418","cat","neyemba,paghukom,baki,akili","paghukom","v","2","html-keyboard-response","224","n","akili","false","",""
"2566.415000008419","","","","","2","html-slider-response","225","","","","4",""
"1113","basket","kumbuka,utepe,kumba,hasira","kumba","j","2","html-keyboard-response","226","f","kumbuka","false","",""
"2844.880000106059","","","","","2","html-slider-response","227","","","","2",""
"1353","snake","jansa,karon,mvringo,pagtukod","pagtukod","n","2","html-keyboard-response","228","j","mvringo","false","",""
"2772.5700000301003","","","","","2","html-slider-response","229","","","","2",""
"1384","gift","baba,nyange,pagtawag,baso","pagtawag","j","2","html-keyboard-response","230","f","baba","false","",""
"2773.185000056401","","","","","2","html-slider-response","231","","","","2",""
"1400","train","itik,sayari,dakika,mungu","sayari","v","2","html-keyboard-response","232","n","mungu","false","",""
"5902.674999902956","","","","","2","html-slider-response","233","","","","2",""
"1137","pudding","abug,aibu,mpishi,iring","aibu","v","2","html-keyboard-response","234","f","abug","false","",""
"8690.805000020191","","","","","2","html-slider-response","235","","","","2",""
"3124","tomato","chupi,mvua,chupa,takatak","mvua","v","2","html-keyboard-response","236","n","takatak","false","",""
"3148.3350000344217","","","","","2","html-slider-response","237","","","","4",""
"2157","stone","wingi,ulimwengu,mkasi,asili","wingi","f","2","html-keyboard-response","238","v","ulimwengu","false","",""
"4728.684999980032","","","","","2","html-slider-response","239","","","","2",""
"3526","hammer","napakyas,mekno,kitovu,layag","napakyas","f","2","html-keyboard-response","240","n","layag","false","",""
"3340.334999957122","","","","","2","html-slider-response","241","","","","1",""
"1300","knee","duka,mvuke,kubale,bili","duka","f","2","html-keyboard-response","242","v","mvuke","false","",""
"2794.3649999797344","","","","","2","html-slider-response","243","","","","2",""
"1375","ceiling","kugita,kawaida,maua,rayna","maua","j","2","html-keyboard-response","244","f","kugita","false","",""
"2306.5150000620633","","","","","2","html-slider-response","245","","","","2",""
"752","spoon","betri,nzuri,ngazi,pagsulod","pagsulod","n","2","html-keyboard-response","246","v","nzuri","false","",""
"2903.9350000675768","","","","","2","html-slider-response","247","","","","2",""
"1785","marker","mapafu,salita,maji,atay","maji","j","2","html-keyboard-response","248","n","atay","false","",""
"6183.0250000348315","","","","","2","html-slider-response","249","","","","3",""
"1757","candle","gabi,farasi,kupanda,geza","geza","n","2","html-keyboard-response","250","n","geza","true","",""
"2352.0949999801815","","","","","2","html-slider-response","251","","","","2",""
"1533","tissue","lamigas,kisiwa,katika,ugomvi","ugomvi","n","2","html-keyboard-response","252","f","lamigas","false","",""
"7163.104999926873","","","","","2","html-slider-response","253","","","","2",""
"2274","bridge","sahani,daima,ngono,panya","sahani","f","2","html-keyboard-response","254","v","daima","false","",""
"3958.7700000265613","","","","","2","html-slider-response","255","","","","3",""
"1153","berry","kofia,abogado,nogozi,kinywa","kofia","f","2","html-keyboard-response","256","v","abogado","false","",""
"2687.139999936335","","","","","2","html-slider-response","257","","","","2",""
"3126","triangle","kasadpan,kihozi,bentaha,liog","kasadpan","f","2","html-keyboard-response","258","j","bentaha","false","",""
"4082.854999927804","","","","","2","html-slider-response","259","","","","3",""
"897","door","tena,soko,nyota,surali","surali","n","2","html-keyboard-response","260","v","soko","false","",""
"4781.3399999868125","","","","","2","html-slider-response","261","","","","2",""
"2239","fish","buli,bala,baho,imani","buli","f","2","html-keyboard-response","262","j","baho","false","",""
"2787.4649999430403","","","","","2","html-slider-response","263","","","","2",""
"1137","curtain","lisud,bulwawan,mchanga,chubani","mchanga","j","2","html-keyboard-response","264","v","bulwawan","false","",""
"2699.3250000523403","","","","","2","html-slider-response","265","","","","2",""
"3700","flag","ndege,mkate,trekta,kawa","trekta","j","2","html-keyboard-response","266","v","mkate","false","",""
"2294.660000014119","","","","","2","html-slider-response","267","","","","2",""
"1151","boat","hamsi,pombe,agalon,kitanda","agalon","j","2","html-keyboard-response","268","f","hamsi","false","",""
"2564.0650000423193","","","","","2","html-slider-response","269","","","","2",""
"1339","rose","singizi,mwanake,amani,paghalad","paghalad","n","2","html-keyboard-response","270","v","mwanake","false","",""
"5827.945000026375","","","","","2","html-slider-response","271","","","","2",""
"4315","lamp","daub,bilaska,afya,mbolea","afya","j","2","html-keyboard-response","272","v","bilaska","false","",""
"2876.6499999910593","","","","","2","html-slider-response","273","","","","2",""
"1997","cigar","adhabu,ndugu,kuta,mlango","adhabu","f","2","html-keyboard-response","274","n","mlango","false","",""
"3782.1850000182167","","","","","2","html-slider-response","275","","","","3",""
"1985","list","alizeti,wingu,kuzama,kaso","wingu","v","2","html-keyboard-response","276","v","wingu","true","",""
"3718.185000005178","","","","","2","html-slider-response","277","","","","2",""
"1131","sheet","juuya,watu,bililhon,kamantis","bililhon","j","2","html-keyboard-response","278","v","watu","false","",""
"4468.449999927543","","","","","2","html-slider-response","279","","","","2",""
"1836","picture","silya,chaki,asin,kubwa","kubwa","n","2","html-keyboard-response","280","v","chaki","false","",""
"6062.874999945052","","","","","2","html-slider-response","281","","","","2",""
"2626","towel","tembo,pagpalit,funzi,pito","pagpalit","v","2","html-keyboard-response","282","j","funzi","false","",""
"2866.3699999451637","","","","","2","html-slider-response","283","","","","2",""
"3103","window","nanga,kujenga,umaga,kweli","kweli","n","2","html-keyboard-response","284","n","kweli","true","",""
"3723.1000000610948","","","","","2","html-slider-response","285","","","","3",""
"2667","box","kuacha,adui,rafiki,kitande","adui","v","3","html-keyboard-response","293","j","rafiki","false","","4"
"3595.6950000254437","","","","","3","html-slider-response","294","","","","2",""
"10539","","","","","3","html-keyboard-response","295","","","","",""
"3768","pants","pintal,chuki,haki,hari","haki","j","3","html-keyboard-response","296","v","chuki","false","","4"
"6889.825000078417","","","","","3","html-slider-response","297","","","","3",""
"7390","","","","","3","html-keyboard-response","298","","","","",""
"5218","cup","dagat,shimoni,jeraha,matumai","matumai","n","3","html-keyboard-response","299","j","jeraha","false","","4"
"4309.140000026673","","","","","3","html-slider-response","300","","","","2",""
"5239","","","","","3","html-keyboard-response","301","","","","",""
"2204","triangle","kihozi,bentaha,kasadpan,liog","kasadpan","j","3","html-keyboard-response","302","v","bentaha","false","","4"
"3187.045000027865","","","","","3","html-slider-response","303","","","","2",""
"8007","","","","","3","html-keyboard-response","304","","","","",""
"2918","curtain","mchanga,lisud,bulwawan,chubani","mchanga","f","3","html-keyboard-response","305","f","mchanga","true","","4"
"4122.114999918267","","","","","3","html-slider-response","306","","","","2",""
"8020","","","","","3","html-keyboard-response","307","","","","",""
"4196","clock","kartasi,abang,osha,mbwa","mbwa","n","3","html-keyboard-response","308","n","mbwa","true","","4"
"2871.500000008382","","","","","3","html-slider-response","309","","","","2",""
"6992","","","","","3","html-keyboard-response","310","","","","",""
"3266","mirror","rangi,sulagma,kanding,furaha","sulagma","v","3","html-keyboard-response","311","f","rangi","false","","4"
"2674.7050000121817","","","","","3","html-slider-response","312","","","","4",""
"9130","","","","","3","html-keyboard-response","313","","","","",""
"4580","coffin","barua,tubag,hulma,kioo","kioo","n","3","html-keyboard-response","314","n","kioo","true","","1"
"5071.579999988899","","","","","3","html-slider-response","315","","","","4",""
"6038","","","","","3","html-keyboard-response","316","","","","",""
"4678","magazine","kiti,gundi,mchawi,bahandi","kiti","f","3","html-keyboard-response","317","n","bahandi","false","","4"
"9592.219999991357","","","","","3","html-slider-response","318","","","","4",""
"4381","","","","","3","html-keyboard-response","319","","","","",""
"7368","column","pundok,dila,pala,ufagio","ufagio","n","3","html-keyboard-response","320","n","ufagio","true","","1"
"5149.055000045337","","","","","3","html-slider-response","321","","","","5",""
"7942","","","","","3","html-keyboard-response","322","","","","",""
"4650","number","shule,kengele,mundamo,choori","mundamo","j","3","html-keyboard-response","323","j","mundamo","true","","4"
"3552.659999928437","","","","","3","html-slider-response","324","","","","2",""
"10871","","","","","3","html-keyboard-response","325","","","","",""
"3284","rose","singizi,mwanake,amani,paghalad","paghalad","n","3","html-keyboard-response","326","v","mwanake","false","","4"
"5565.694999997504","","","","","3","html-slider-response","327","","","","2",""
"7114","","","","","3","html-keyboard-response","328","","","","",""
"5817","eel","ishara,kunywa,kabuang,msumari","msumari","n","3","html-keyboard-response","329","j","kabuang","false","","4"
"7380.260000005364","","","","","3","html-slider-response","330","","","","3",""
"7618","","","","","3","html-keyboard-response","331","","","","",""
"2956","gift","baba,nyange,baso,pagtawag","pagtawag","n","3","html-keyboard-response","332","v","nyange","false","","4"
"3550.7000000216067","","","","","3","html-slider-response","333","","","","2",""
"8213","","","","","3","html-keyboard-response","334","","","","",""
"3617","apple","ukame,estante,kisu,edad","kisu","j","3","html-keyboard-response","335","j","kisu","true","","1"
"4479.8150000860915","","","","","3","html-slider-response","336","","","","5",""
"2931","","","","","3","html-keyboard-response","337","","","","",""
"3530","wheel","punda,bafuni,tawo,baadaye","bafuni","v","3","html-keyboard-response","338","v","bafuni","true","","1"
"9805.61000003945","","","","","3","html-slider-response","339","","","","5",""
"6408","","","","","3","html-keyboard-response","340","","","","",""
"3719","knee","mvuke,duka,kubale,bili","duka","v","3","html-keyboard-response","341","f","mvuke","false","","4"
"3051.2800000142306","","","","","3","html-slider-response","342","","","","4",""
"8156","","","","","3","html-keyboard-response","343","","","","",""
"5500","basket","kumbuka,utepe,kumba,hasira","kumba","j","3","html-keyboard-response","344","j","kumba","true","","1"
"3085.6900000944734","","","","","3","html-slider-response","345","","","","4",""
"8284","","","","","3","html-keyboard-response","346","","","","",""
"6706","park","tambok,bunifu,pwani,ihalas","bunifu","v","3","html-keyboard-response","347","j","pwani","false","","4"
"7628.150000004098","","","","","3","html-slider-response","348","","","","3",""
"10222","","","","","3","html-keyboard-response","349","","","","",""
"2565","finger","simu,moyo,sufuria,lima","moyo","v","3","html-keyboard-response","350","v","moyo","true","","4"
"4674.950000015087","","","","","3","html-slider-response","351","","","","5",""
"1370","","","","","3","html-keyboard-response","352","","","","",""
"3854","boat","agalon,hamsi,pombe,kitanda","agalon","f","3","html-keyboard-response","353","v","hamsi","false","","4"
"4080.169999971986","","","","","3","html-slider-response","354","","","","3",""
"7730","","","","","3","html-keyboard-response","355","","","","",""
"3844","hill","kushoto,kukimba,matumbo,sweta","matumbo","j","3","html-keyboard-response","356","v","kukimba","false","","4"
"3808.3150000311434","","","","","3","html-slider-response","357","","","","2",""
"9595","","","","","3","html-keyboard-response","358","","","","",""
"3255","train","sayari,itik,dakika,mungu","sayari","f","3","html-keyboard-response","359","j","dakika","false","","4"
"2993.8700000056997","","","","","3","html-slider-response","360","","","","4",""
"10076","","","","","3","html-keyboard-response","361","","","","",""
"5775","wolf","kaburi,ndizi,mchuzi,lugha","lugha","n","3","html-keyboard-response","362","n","lugha","true","","4"
"4807.660000049509","","","","","3","html-slider-response","363","","","","4",""
"7616","","","","","3","html-keyboard-response","364","","","","",""
"7647","snake","jansa,pagtukod,karon,mvringo","pagtukod","v","3","html-keyboard-response","365","v","pagtukod","true","","4"
"2855.0199999008328","","","","","3","html-slider-response","366","","","","2",""
"6046","","","","","3","html-keyboard-response","367","","","","",""
"2487","tooth","kijiko,uadui,pahiyum,kabalaka","kabalaka","n","3","html-keyboard-response","368","n","kabalaka","true","","4"
"3104.784999974072","","","","","3","html-slider-response","369","","","","2",""
"11390","","","","","3","html-keyboard-response","370","","","","",""
"3762","notebook","msitu,kemia,kila,mdudu","kemia","v","3","html-keyboard-response","371","j","kila","false","","4"
"3805.5650000460446","","","","","3","html-slider-response","372","","","","3",""
"7192","","","","","3","html-keyboard-response","373","","","","",""
"3656","flag","ndege,mkate,trekta,kawa","trekta","j","3","html-keyboard-response","374","j","trekta","true","","4"
"3980.3949999623","","","","","3","html-slider-response","375","","","","2",""
"9167","","","","","3","html-keyboard-response","376","","","","",""
"4726","squirrel","mahugaw,ukweli,kichwa,hofu","hofu","n","3","html-keyboard-response","377","f","mahugaw","false","","4"
"3328.069999930449","","","","","3","html-slider-response","378","","","","2",""
"6677","","","","","3","html-keyboard-response","379","","","","",""
"2630","door","surali,tena,soko,nyota","surali","f","3","html-keyboard-response","380","n","nyota","false","","4"
"4786.190000013448","","","","","3","html-slider-response","381","","","","4",""
"5323","","","","","3","html-keyboard-response","382","","","","",""
"4500","salmon","sensilyo,mzungu,seri,baharia","sensilyo","f","3","html-keyboard-response","383","v","mzungu","false","","4"
"2398.3550000702962","","","","","3","html-slider-response","384","","","","2",""
"9818","","","","","3","html-keyboard-response","385","","","","",""
"5","shoulder","kelele,mkuu,ndaniya,guruwe","mkuu","v","3","html-keyboard-response","386","f","kelele","false","","4"
"4599.760000011884","","","","","3","html-slider-response","387","","","","2",""
"10009","","","","","3","html-keyboard-response","388","","","","",""
"9257","lamp","daub,bilaska,mbolea,afya","afya","n","3","html-keyboard-response","389","j","mbolea","false","","4"
"3461.52000001166","","","","","3","html-slider-response","390","","","","2",""
"7483","","","","","3","html-keyboard-response","391","","","","",""
"11575","shelf","pamahaw,bungtod,kadaot,awit","pamahaw","f","3","html-keyboard-response","392","f","pamahaw","true","","1"
"5288.82999997586","","","","","3","html-slider-response","393","","","","5",""
"1799","","","","","3","html-keyboard-response","394","","","","",""
"4865","human","bado,kikapu,punguza,tinapay","tinapay","n","3","html-keyboard-response","395","v","kikapu","false","","4"
"2805.2150000585243","","","","","3","html-slider-response","396","","","","4",""
"10203","","","","","3","html-keyboard-response","397","","","","",""
"2596","towel","tembo,pagpalit,funzi,pito","pagpalit","v","3","html-keyboard-response","398","j","funzi","false","","4"
"3602.9799999669194","","","","","3","html-slider-response","399","","","","2",""
"8516","","","","","3","html-keyboard-response","400","","","","",""
"3449","cat","neyemba,baki,paghukom,akili","paghukom","j","3","html-keyboard-response","401","n","akili","false","","4"
"3486.299999989569","","","","","3","html-slider-response","402","","","","2",""
"8085","","","","","3","html-keyboard-response","403","","","","",""
"4665","spider","bunyag,mkboa,atop,kamwe","kamwe","n","3","html-keyboard-response","404","v","mkboa","false","","4"
"2792.7449999842793","","","","","3","html-slider-response","405","","","","2",""
"7967","","","","","3","html-keyboard-response","406","","","","",""
"2113","window","nanga,kujenga,umaga,kweli","kweli","n","3","html-keyboard-response","407","v","kujenga","false","","4"
"2856.455000001006","","","","","3","html-slider-response","408","","","","2",""
"8357","","","","","3","html-keyboard-response","409","","","","",""
"14385","woman","bandari,bituin,kovuli,pagtabon","pagtabon","n","3","html-keyboard-response","410","n","pagtabon","true","","1"
"2874.599999981001","","","","","3","html-slider-response","411","","","","4",""
"1302","","","","","3","html-keyboard-response","412","","","","",""
"2893","giraffe","mahitabo,daraja,jumatu,hangyo","mahitabo","f","3","html-keyboard-response","413","v","daraja","false","","4"
"2366.9150000205263","","","","","3","html-slider-response","414","","","","4",""
"12478","","","","","3","html-keyboard-response","415","","","","",""
"2764","elephant","petye,kito,pagduol,suka","kito","v","3","html-keyboard-response","416","n","suka","false","","4"
"2715.959999943152","","","","","3","html-slider-response","417","","","","4",""
"8794","","","","","3","html-keyboard-response","418","","","","",""
"4517","cave","kesho,ganti,maisha,nyundo","kesho","f","3","html-keyboard-response","419","f","kesho","true","","4"
"3462.0949999662116","","","","","3","html-slider-response","420","","","","2",""
"7342","","","","","3","html-keyboard-response","421","","","","",""
"4615","bread","dari,kaili,dizeli,bugas","dari","f","3","html-keyboard-response","422","v","kaili","false","","4"
"3253.139999927953","","","","","3","html-slider-response","423","","","","3",""
"8986","","","","","3","html-keyboard-response","424","","","","",""
"3652","stone","ulimwengu,mkasi,wingi,asili","wingi","j","3","html-keyboard-response","425","v","mkasi","false","","4"
"3652.81999995932","","","","","3","html-slider-response","426","","","","4",""
"11034","","","","","3","html-keyboard-response","427","","","","",""
"3772","donkey","bloke,lalake,rombus,elfu","elfu","n","3","html-keyboard-response","428","j","rombus","false","","4"
"4632.809999980964","","","","","3","html-slider-response","429","","","","4",""
"30699","","","","","3","html-keyboard-response","430","","","","",""
"3248","bridge","daima,ngono,sahani,panya","sahani","j","3","html-keyboard-response","431","j","sahani","true","","4"
"3476.5149999875575","","","","","3","html-slider-response","432","","","","2",""
"10568","","","","","3","html-keyboard-response","433","","","","",""
"3961","bonfire","goti,mwezi,mfuko,kusanya","goti","f","3","html-keyboard-response","434","f","goti","true","","4"
"3782.2650000452995","","","","","3","html-slider-response","435","","","","3",""
"1539","","","","","3","html-keyboard-response","436","","","","",""
"7698","book","kuhesa,picha,mali,mara","mali","j","3","html-keyboard-response","437","n","mara","false","","4"
"6936.845000018366","","","","","3","html-slider-response","438","","","","3",""
"6358","","","","","3","html-keyboard-response","439","","","","",""
"2513","fish","buli,bala,baho,imani","buli","f","3","html-keyboard-response","440","v","bala","false","","4"
"2219.8349999962375","","","","","3","html-slider-response","441","","","","2",""
"5119","","","","","3","html-keyboard-response","442","","","","",""
"2557","spoon","pagsulod,betri,nzuri,ngazi","pagsulod","f","3","html-keyboard-response","443","f","pagsulod","true","","4"
"2258.269999991171","","","","","3","html-slider-response","444","","","","4",""
"7838","","","","","3","html-keyboard-response","445","","","","",""
"1716","scissors","tanuri,duga,mtawa,suga","tanuri","f","3","html-keyboard-response","446","v","duga","false","","4"
"2427.089999895543","","","","","3","html-slider-response","447","","","","2",""
"1922","","","","","3","html-keyboard-response","448","","","","",""
"5434","page","wimbo,wakala,ishiri,skina","wimbo","f","3","html-keyboard-response","449","f","wimbo","true","","4"
"2202.1099999547005","","","","","3","html-slider-response","450","","","","4",""
"6283","","","","","3","html-keyboard-response","451","","","","",""
"5354","nose","gubat,kopa,kidole,sehemu","sehemu","n","3","html-keyboard-response","452","n","sehemu","true","","1"
"3924.1499999770895","","","","","3","html-slider-response","453","","","","5",""
"5230","","","","","3","html-keyboard-response","454","","","","",""
"2833","ceiling","maua,kugita,kawaida,rayna","maua","f","3","html-keyboard-response","455","v","kugita","false","","4"
"3226.6400000080466","","","","","3","html-slider-response","456","","","","4",""
"6207","","","","","3","html-keyboard-response","457","","","","",""
"3927","bucket","baga,kiatu,ijayo,init","kiatu","v","3","html-keyboard-response","458","v","kiatu","true","","4"
"3111.819999990985","","","","","3","html-slider-response","459","","","","2",""
"6867","","","","","3","html-keyboard-response","460","","","","",""
"1654","berry","abogado,nogozi,kinywa,kofia","kofia","n","3","html-keyboard-response","461","n","kofia","true","","1"
"3241.4549998939037","","","","","3","html-slider-response","462","","","","4",""
"9577","","","","","3","html-keyboard-response","463","","","","",""
"1959","mother","babaye,kahawa,mbuzi,jokofu","babaye","f","3","html-keyboard-response","464","f","babaye","true","","1"
"9276.854999945499","","","","","3","html-slider-response","465","","","","4",""
"2321","","","","","3","html-keyboard-response","466","","","","",""
"3011","mosquito","isda,martilyo,taras,gutom","martilyo","v","3","html-keyboard-response","467","j","taras","false","","4"
"4723.36499998346","","","","","3","html-slider-response","468","","","","4",""
"9096","","","","","3","html-keyboard-response","469","","","","",""
"3600","perfume","bino,sungura,katuyoan,ndogo","katuyoan","j","3","html-keyboard-response","470","v","sungura","false","","4"
"3399.2799998959526","","","","","3","html-slider-response","471","","","","3",""
"9115","","","","","3","html-keyboard-response","472","","","","",""
"2246","sheet","juuya,watu,kamantis,bililhon","bililhon","n","3","html-keyboard-response","473","v","watu","false","","4"
"3142.920000012964","","","","","3","html-slider-response","474","","","","4",""
"6200","","","","","3","html-keyboard-response","475","","","","",""
"2632","puppet","napulo,lamok,mazishi,godoro","mazishi","j","3","html-keyboard-response","476","j","mazishi","true","","1"
"8273.584999958985","","","","","3","html-slider-response","477","","","","4",""
"6648","","","","","3","html-keyboard-response","478","","","","",""
"3423","poster","nchi,fedha,kasuko,madungog","madungog","n","3","html-keyboard-response","479","j","kasuko","false","","4"
"2611.0000000335276","","","","","3","html-slider-response","480","","","","2",""
"7815","","","","","3","html-keyboard-response","481","","","","",""
"4499","music","baiski,mraba,mageho,tumbo","baiski","f","3","html-keyboard-response","482","j","mageho","false","","4"
"3114.724999992177","","","","","3","html-slider-response","483","","","","2",""
"6699","","","","","3","html-keyboard-response","484","","","","",""
"2462","key","miaka,goma,ahos,chombo","chombo","n","3","html-keyboard-response","485","v","goma","false","","4"
"2693.5949999606237","","","","","3","html-slider-response","486","","","","2",""
"10273","","","","","3","html-keyboard-response","487","","","","",""
"4184","sock","ndoora,mamba,kimysa,mtirka","mamba","v","3","html-keyboard-response","488","n","mtirka","false","","4"
"2517.585000023246","","","","","3","html-slider-response","489","","","","2",""
"1206","","","","","3","html-keyboard-response","490","","","","",""
"2011","marker","maji,mapafu,salita,atay","maji","f","3","html-keyboard-response","491","v","mapafu","false","","4"
"3435.2400000207126","","","","","3","html-slider-response","492","","","","4",""
"7591","","","","","3","html-keyboard-response","493","","","","",""
"3007","office","hazini,leso,yatima,kuna","leso","v","3","html-keyboard-response","494","j","yatima","false","","4"
"5499.095000093803","","","","","3","html-slider-response","495","","","","2",""
"5893","","","","","3","html-keyboard-response","496","","","","",""
"4857","shoe","nyeusi,hatua,uyoga,kama","uyoga","j","3","html-keyboard-response","497","j","uyoga","true","","4"
"2912.320000003092","","","","","3","html-slider-response","498","","","","4",""
"6159","","","","","3","html-keyboard-response","499","","","","",""
"2966","cop","bustani,jikoni,mechezo,bakus","mechezo","j","3","html-keyboard-response","500","f","bustani","false","","4"
"2579.9800000386313","","","","","3","html-slider-response","501","","","","2",""
"13687","","","","","3","html-keyboard-response","502","","","","",""
"3160","bank","kudhibi,tualya,silingan,ofisi","silingan","j","3","html-keyboard-response","503","v","tualya","false","","4"
"4073.6899999901652","","","","","3","html-slider-response","504","","","","2",""
"1172","","","","","3","html-keyboard-response","505","","","","",""
"2652","letter","filimbi,kifua,chuma,uhuru","kifua","v","3","html-keyboard-response","506","v","kifua","true","","1"
"8027.630000025965","","","","","3","html-slider-response","507","","","","2",""
"3711","","","","","3","html-keyboard-response","508","","","","",""
"7485","dog","lubi,bahari,washia,kalamu","bahari","v","3","html-keyboard-response","509","v","bahari","true","","1"
"7284.5349999843165","","","","","3","html-slider-response","510","","","","5",""
"2673","","","","","3","html-keyboard-response","511","","","","",""
"2409","shop","nopya,kerida,samaki,ndezu","samaki","j","3","html-keyboard-response","512","j","samaki","true","","4"
"2782.744999974966","","","","","3","html-slider-response","513","","","","4",""
"6291","","","","","3","html-keyboard-response","514","","","","",""
"2986","flower","tamasha,lobo,bega,usiku","bega","j","3","html-keyboard-response","515","v","lobo","false","","4"
"3248.4199999598786","","","","","3","html-slider-response","516","","","","2",""
"5779","","","","","3","html-keyboard-response","517","","","","",""
"7462","cigar","ndugu,adhabu,kuta,mlango","adhabu","v","3","html-keyboard-response","518","v","adhabu","true","","1"
"3839.395000017248","","","","","3","html-slider-response","519","","","","5",""
"1666","","","","","3","html-keyboard-response","520","","","","",""
"2743","hammer","napakyas,mekno,kitovu,layag","napakyas","f","3","html-keyboard-response","521","n","layag","false","","4"
"2734.8500000080094","","","","","3","html-slider-response","522","","","","2",""
"9079","","","","","3","html-keyboard-response","523","","","","",""
"2402","fork","mgonjwa,baboy,paghago,gorisi","mgonjwa","f","3","html-keyboard-response","524","n","gorisi","false","","4"
"2622.6150000002235","","","","","3","html-slider-response","525","","","","2",""
"10216","","","","","3","html-keyboard-response","526","","","","",""
"5188","sun","bendi,basi,luha,uongo","basi","v","3","html-keyboard-response","527","v","basi","true","","1"
"2764.4950000103563","","","","","3","html-slider-response","528","","","","5",""
"1827","","","","","3","html-keyboard-response","529","","","","",""
"3165","ladder","pangalan,mashua,mwanga,kamba","pangalan","f","3","html-keyboard-response","530","v","mashua","false","","4"
"2302.239999989979","","","","","3","html-slider-response","531","","","","2",""
"8190","","","","","3","html-keyboard-response","532","","","","",""
"1542","banana","kazi,kasamok,hagdan,twai","kazi","f","3","html-keyboard-response","533","f","kazi","true","","1"
"2980.1649999571964","","","","","3","html-slider-response","534","","","","2",""
"6939","","","","","3","html-keyboard-response","535","","","","",""
"1857","pudding","abug,aibu,mpishi,iring","aibu","v","3","html-keyboard-response","536","n","iring","false","","4"
"3264.8950000293553","","","","","3","html-slider-response","537","","","","2",""
"8758","","","","","3","html-keyboard-response","538","","","","",""
"2332","body","tindashan,nyundu,jibini,kununa","tindashan","f","3","html-keyboard-response","539","n","kununa","false","","4"
"2482.975000049919","","","","","3","html-slider-response","540","","","","2",""
"8670","","","","","3","html-keyboard-response","541","","","","",""
"1801","bed","mapintas,kalipay,haraka,starehe","mapintas","f","3","html-keyboard-response","542","f","mapintas","true","","4"
"2084.415000048466","","","","","3","html-slider-response","543","","","","2",""
"7332","","","","","3","html-keyboard-response","544","","","","",""
"2210","tissue","ugomvi,lamigas,kisiwa,katika","ugomvi","f","3","html-keyboard-response","545","j","kisiwa","false","","4"
"3109.3699999619275","","","","","3","html-slider-response","546","","","","2",""
"8695","","","","","3","html-keyboard-response","547","","","","",""
"2610","candle","gabi,geza,farasi,kupanda","geza","v","3","html-keyboard-response","548","v","geza","true","","4"
"5652.680000057444","","","","","3","html-slider-response","549","","","","2",""
"8875","","","","","3","html-keyboard-response","550","","","","",""
"10099","tomato","chupi,chupa,takatak,mvua","mvua","n","3","html-keyboard-response","551","n","mvua","true","","1"
"3012.6199999358505","","","","","3","html-slider-response","552","","","","5",""
"866","","","","","3","html-keyboard-response","553","","","","",""
"2346","list","wingu,alizeti,kuzama,kaso","wingu","f","3","html-keyboard-response","554","f","wingu","true","","4"
"2639.439999940805","","","","","3","html-slider-response","555","","","","4",""
"6032","","","","","3","html-keyboard-response","556","","","","",""
"3955","olive","bata,jiwe,siagi,welder","jiwe","v","3","html-keyboard-response","557","f","bata","false","","4"
"2597.2799999872223","","","","","3","html-slider-response","558","","","","2",""
"5937","","","","","3","html-keyboard-response","559","","","","",""
"1778","picture","silya,chaki,asin,kubwa","kubwa","n","3","html-keyboard-response","560","n","kubwa","true","","1"
"4263.524999958463","","","","","3","html-slider-response","561","","","","2",""
"8987","","","","","3","html-keyboard-response","562","","","","",""
"0","page","wakala,ishiri,skina,wimbo","wimbo","n","4","html-keyboard-response","888","v","ishiri","false","",""
"3300.6550000282004","","","","","4","html-slider-response","889","","","","2",""
"7273","sheet","juuya,bililhon,watu,kamantis","bililhon","v","4","html-keyboard-response","890","f","juuya","false","",""
"3089.780000038445","","","","","4","html-slider-response","891","","","","2",""
"7129","ladder","mashua,mwanga,pangalan,kamba","pangalan","j","4","html-keyboard-response","892","j","pangalan","true","",""
"2865.029999986291","","","","","4","html-slider-response","893","","","","4",""
"9847","door","tena,soko,surali,nyota","surali","j","4","html-keyboard-response","894","j","surali","true","",""
"2724.7750000096858","","","","","4","html-slider-response","895","","","","2",""
"1851","spider","bunyag,kamwe,mkboa,atop","kamwe","v","4","html-keyboard-response","896","v","kamwe","true","",""
"2489.8749999701977","","","","","4","html-slider-response","897","","","","2",""
"2956","picture","silya,kubwa,chaki,asin","kubwa","v","4","html-keyboard-response","898","n","asin","false","",""
"5341.4750000229105","","","","","4","html-slider-response","899","","","","3",""
"16010","boat","hamsi,pombe,kitanda,agalon","agalon","n","4","html-keyboard-response","900","n","agalon","true","",""
"3205.229999963194","","","","","4","html-slider-response","901","","","","4",""
"2111","donkey","bloke,elfu,lalake,rombus","elfu","v","4","html-keyboard-response","902","v","elfu","true","",""
"2702.6649999897927","","","","","4","html-slider-response","903","","","","5",""
"7704","book","kuhesa,mali,picha,mara","mali","v","4","html-keyboard-response","904","v","mali","true","",""
"2918.4299999615178","","","","","4","html-slider-response","905","","","","4",""
"2063","cup","dagat,matumai,shimoni,jeraha","matumai","v","4","html-keyboard-response","906","v","matumai","true","",""
"4334.399999934249","","","","","4","html-slider-response","907","","","","2",""
"5095","sun","bendi,luha,basi,uongo","basi","j","4","html-keyboard-response","908","j","basi","true","",""
"2618.7349999090657","","","","","4","html-slider-response","909","","","","4",""
"6247","pudding","abug,aibu,mpishi,iring","aibu","v","4","html-keyboard-response","910","v","aibu","true","",""
"2256.3300000038","","","","","4","html-slider-response","911","","","","2",""
"25250","human","bado,kikapu,tinapay,punguza","tinapay","j","4","html-keyboard-response","912","n","punguza","false","",""
"2895.189999951981","","","","","4","html-slider-response","913","","","","4",""
"18716","squirrel","mahugaw,ukweli,hofu,kichwa","hofu","j","4","html-keyboard-response","914","f","mahugaw","false","",""
"3097.8300001006573","","","","","4","html-slider-response","915","","","","2",""
"18490","park","tambok,pwani,ihalas,bunifu","bunifu","n","4","html-keyboard-response","916","v","pwani","false","",""
"1952.6700000278652","","","","","4","html-slider-response","917","","","","2",""
"2466","poster","nchi,fedha,kasuko,madungog","madungog","n","4","html-keyboard-response","918","n","madungog","true","",""
"2263.014999916777","","","","","4","html-slider-response","919","","","","4",""
"2501","wolf","kaburi,ndizi,lugha,mchuzi","lugha","j","4","html-keyboard-response","920","j","lugha","true","",""
"2476.16000007838","","","","","4","html-slider-response","921","","","","5",""
"2773","cat","neyemba,baki,akili,paghukom","paghukom","n","4","html-keyboard-response","922","n","paghukom","true","",""
"2942.8800001041964","","","","","4","html-slider-response","923","","","","4",""
"7088","fish","bala,baho,buli,imani","buli","j","4","html-keyboard-response","924","j","buli","true","",""
"2367.079999996349","","","","","4","html-slider-response","925","","","","5",""
"4949","tooth","kabalaka,kijiko,uadui,pahiyum","kabalaka","f","4","html-keyboard-response","926","f","kabalaka","true","",""
"5535.470000002533","","","","","4","html-slider-response","927","","","","4",""
"11882","cave","kesho,ganti,maisha,nyundo","kesho","f","4","html-keyboard-response","928","f","kesho","true","",""
"2421.2649998953566","","","","","4","html-slider-response","929","","","","4",""
"5944","lamp","daub,afya,bilaska,mbolea","afya","v","4","html-keyboard-response","930","v","afya","true","",""
"3610.219999914989","","","","","4","html-slider-response","931","","","","3",""
"21695","banana","kasamok,hagdan,twai,kazi","kazi","n","4","html-keyboard-response","932","v","hagdan","false","",""
"3762.349999975413","","","","","4","html-slider-response","933","","","","2",""
"1988","bonfire","mwezi,mfuko,kusanya,goti","goti","n","4","html-keyboard-response","934","n","goti","true","",""
"2739.6200000075623","","","","","4","html-slider-response","935","","","","5",""
"5128","cop","bustani,jikoni,mechezo,bakus","mechezo","j","4","html-keyboard-response","936","n","bakus","false","",""
"2358.405000064522","","","","","4","html-slider-response","937","","","","2",""
"5937","marker","mapafu,salita,atay,maji","maji","n","4","html-keyboard-response","938","n","maji","true","",""
"3014.770000008866","","","","","4","html-slider-response","939","","","","4",""
"23278","window","nanga,kweli,kujenga,umaga","kweli","v","4","html-keyboard-response","940","j","kujenga","false","",""
"2664.2350000329316","","","","","4","html-slider-response","941","","","","2",""
"9158","body","nyundu,tindashan,jibini,kununa","tindashan","v","4","html-keyboard-response","942","f","nyundu","false","",""
"2263.700000010431","","","","","4","html-slider-response","943","","","","2",""
"1986","apple","ukame,estante,edad,kisu","kisu","n","4","html-keyboard-response","944","n","kisu","true","",""
"2324.7999999439344","","","","","4","html-slider-response","945","","","","5",""
"4310","salmon","sensilyo,mzungu,seri,baharia","sensilyo","f","4","html-keyboard-response","946","f","sensilyo","true","",""
"3324.9200000427663","","","","","4","html-slider-response","947","","","","4",""
"3163","bed","mapintas,kalipay,haraka,starehe","mapintas","f","4","html-keyboard-response","948","f","mapintas","true","",""
"2882.3300000512972","","","","","4","html-slider-response","949","","","","2",""
"20651","berry","abogado,nogozi,kofia,kinywa","kofia","j","4","html-keyboard-response","950","f","abogado","false","",""
"2481.7999999504536","","","","","4","html-slider-response","951","","","","2",""
"5280","mirror","sulagma,rangi,kanding,furaha","sulagma","f","4","html-keyboard-response","952","f","sulagma","true","",""
"3364.5699999760836","","","","","4","html-slider-response","953","","","","4",""
"10190","flag","ndege,trekta,mkate,kawa","trekta","v","4","html-keyboard-response","954","n","kawa","false","",""
"2577.6300000725314","","","","","4","html-slider-response","955","","","","2",""
"2416","shoulder","kelele,ndaniya,mkuu,guruwe","mkuu","j","4","html-keyboard-response","956","v","ndaniya","false","",""
"2311.8000000249594","","","","","4","html-slider-response","957","","","","2",""
"23944","tissue","ugomvi,lamigas,kisiwa,katika","ugomvi","f","4","html-keyboard-response","958","f","ugomvi","true","",""
"2954.950000043027","","","","","4","html-slider-response","959","","","","4",""
"5331","notebook","msitu,kila,kemia,mdudu","kemia","j","4","html-keyboard-response","960","j","kemia","true","",""
"2899.5949999662116","","","","","4","html-slider-response","961","","","","4",""
"3101","snake","pagtukod,jansa,karon,mvringo","pagtukod","f","4","html-keyboard-response","962","f","pagtukod","true","",""
"2291.4350000210106","","","","","4","html-slider-response","963","","","","4",""
"1735","finger","simu,sufuria,lima,moyo","moyo","n","4","html-keyboard-response","964","n","moyo","true","",""
"2567.475000047125","","","","","4","html-slider-response","965","","","","5",""
"6965","basket","kumbuka,kumba,utepe,hasira","kumba","v","4","html-keyboard-response","966","v","kumba","true","",""
"2174.7899999609217","","","","","4","html-slider-response","967","","","","4",""
"2582","curtain","lisud,bulwawan,chubani,mchanga","mchanga","n","4","html-keyboard-response","968","j","chubani","false","",""
"5431.465000030585","","","","","4","html-slider-response","969","","","","3",""
"13977","perfume","katuyoan,bino,sungura,ndogo","katuyoan","f","4","html-keyboard-response","970","v","bino","false","",""
"3516.7549999896437","","","","","4","html-slider-response","971","","","","2",""
"2631","key","chombo,miaka,goma,ahos","chombo","f","4","html-keyboard-response","972","f","chombo","true","",""
"2622.5700000068173","","","","","4","html-slider-response","973","","","","4",""
"4820","olive","bata,siagi,jiwe,welder","jiwe","j","4","html-keyboard-response","974","j","jiwe","true","",""
"2487.4900000868365","","","","","4","html-slider-response","975","","","","4",""
"16384","rose","singizi,paghalad,mwanake,amani","paghalad","v","4","html-keyboard-response","976","n","amani","false","",""
"3960.7900000410154","","","","","4","html-slider-response","977","","","","2",""
"2545","bridge","daima,ngono,sahani,panya","sahani","j","4","html-keyboard-response","978","j","sahani","true","",""
"2440.5499999411404","","","","","4","html-slider-response","979","","","","2",""
"8704","hill","kushoto,matumbo,kukimba,sweta","matumbo","v","4","html-keyboard-response","980","v","matumbo","true","",""
"2629.5399999944493","","","","","4","html-slider-response","981","","","","4",""
"15246","letter","filimbi,kifua,chuma,uhuru","kifua","v","4","html-keyboard-response","982","j","chuma","false","",""
"2700.6299999775365","","","","","4","html-slider-response","983","","","","4",""
"4574","sock","ndoora,kimysa,mamba,mtirka","mamba","j","4","html-keyboard-response","984","v","kimysa","false","",""
"2843.669999972917","","","","","4","html-slider-response","985","","","","2",""
"3901","fork","baboy,paghago,gorisi,mgonjwa","mgonjwa","n","4","html-keyboard-response","986","v","paghago","false","",""
"2863.71499998495","","","","","4","html-slider-response","987","","","","4",""
"10692","box","kuacha,rafiki,adui,kitande","adui","j","4","html-keyboard-response","988","j","adui","true","",""
"4748.555000056513","","","","","4","html-slider-response","989","","","","3",""
"14481","gift","baba,nyange,pagtawag,baso","pagtawag","j","4","html-keyboard-response","990","v","nyange","false","",""
"2478.579999995418","","","","","4","html-slider-response","991","","","","2",""
"12394","bucket","baga,kiatu,ijayo,init","kiatu","v","4","html-keyboard-response","992","v","kiatu","true","",""
"2945.1950000366196","","","","","4","html-slider-response","993","","","","4",""
"5587","shop","nopya,kerida,ndezu,samaki","samaki","n","4","html-keyboard-response","994","n","samaki","true","",""
"3085.330000030808","","","","","4","html-slider-response","995","","","","5",""
"6803","puppet","napulo,lamok,mazishi,godoro","mazishi","j","4","html-keyboard-response","996","j","mazishi","true","",""
"2277.7599999681115","","","","","4","html-slider-response","997","","","","5",""
"17409","nose","gubat,kopa,kidole,sehemu","sehemu","n","4","html-keyboard-response","998","v","kopa","false","",""
"2262.2950000222772","","","","","4","html-slider-response","999","","","","2",""
"4516","music","mraba,baiski,mageho,tumbo","baiski","v","4","html-keyboard-response","1000","v","baiski","true","",""
"3604.5549999689683","","","","","4","html-slider-response","1001","","","","4",""
"12687","dog","bahari,lubi,washia,kalamu","bahari","f","4","html-keyboard-response","1002","f","bahari","true","",""
"3442.479999968782","","","","","4","html-slider-response","1003","","","","4",""
"13326","eel","ishara,kunywa,msumari,kabuang","msumari","j","4","html-keyboard-response","1004","j","msumari","true","",""
"2371.445000055246","","","","","4","html-slider-response","1005","","","","4",""
"3932","number","shule,mundamo,kengele,choori","mundamo","v","4","html-keyboard-response","1006","v","mundamo","true","",""
"3356.7699999548495","","","","","4","html-slider-response","1007","","","","5",""
"6476","tomato","chupi,chupa,takatak,mvua","mvua","n","4","html-keyboard-response","1008","n","mvua","true","",""
"2751.0699999984354","","","","","4","html-slider-response","1009","","","","4",""
"3295","coffin","barua,tubag,kioo,hulma","kioo","j","4","html-keyboard-response","1010","j","kioo","true","",""
"3645.959999994375","","","","","4","html-slider-response","1011","","","","3",""
"7935","knee","mvuke,duka,kubale,bili","duka","v","4","html-keyboard-response","1012","f","mvuke","false","",""
"2677.350000012666","","","","","4","html-slider-response","1013","","","","2",""
"3982","woman","pagtabon,bandari,bituin,kovuli","pagtabon","f","4","html-keyboard-response","1014","v","bandari","false","",""
"7857.37500002142","","","","","4","html-slider-response","1015","","","","4",""
"15513","stone","ulimwengu,wingi,mkasi,asili","wingi","v","4","html-keyboard-response","1016","v","wingi","true","",""
"3420.51999992691","","","","","4","html-slider-response","1017","","","","4",""
"5502","bread","dari,kaili,dizeli,bugas","dari","f","4","html-keyboard-response","1018","f","dari","true","",""
"3094.2250000080094","","","","","4","html-slider-response","1019","","","","4",""
"19999","triangle","kihozi,bentaha,liog,kasadpan","kasadpan","n","4","html-keyboard-response","1020","n","kasadpan","true","",""
"2668.2599999476224","","","","","4","html-slider-response","1021","","","","4",""
"3185","scissors","tanuri,duga,mtawa,suga","tanuri","f","4","html-keyboard-response","1022","j","mtawa","false","",""
"3670.7300000125542","","","","","4","html-slider-response","1023","","","","2",""
"2561","giraffe","mahitabo,daraja,jumatu,hangyo","mahitabo","f","4","html-keyboard-response","1024","v","daraja","false","",""
"4570.739999995567","","","","","4","html-slider-response","1025","","","","3",""
"6041","flower","bega,tamasha,lobo,usiku","bega","f","4","html-keyboard-response","1026","f","bega","true","",""
"4137.5349999871105","","","","","4","html-slider-response","1027","","","","4",""
"4071","candle","gabi,farasi,geza,kupanda","geza","j","4","html-keyboard-response","1028","j","geza","true","",""
"2436.005000025034","","","","","4","html-slider-response","1029","","","","4",""
"2530","mother","kahawa,mbuzi,babaye,jokofu","babaye","j","4","html-keyboard-response","1030","j","babaye","true","",""
"2466.5050000185147","","","","","4","html-slider-response","1031","","","","5",""
"23945","towel","tembo,pagpalit,funzi,pito","pagpalit","v","4","html-keyboard-response","1032","j","funzi","false","",""
"2763.329999987036","","","","","4","html-slider-response","1033","","","","2",""
"10757","elephant","petye,pagduol,kito,suka","kito","j","4","html-keyboard-response","1034","j","kito","true","",""
"2882.0050000213087","","","","","4","html-slider-response","1035","","","","4",""
"28395","shelf","bungtod,pamahaw,kadaot,awit","pamahaw","v","4","html-keyboard-response","1036","v","pamahaw","true","",""
"2966.6999999899417","","","","","4","html-slider-response","1037","","","","4",""
"4031","mosquito","isda,taras,gutom,martilyo","martilyo","n","4","html-keyboard-response","1038","v","taras","false","",""
"2478.9850001689047","","","","","4","html-slider-response","1039","","","","2",""
"2094","column","pundok,ufagio,dila,pala","ufagio","v","4","html-keyboard-response","1040","v","ufagio","true","",""
"2752.379999961704","","","","","4","html-slider-response","1041","","","","4",""
"4165","pants","pintal,chuki,hari,haki","haki","n","4","html-keyboard-response","1042","n","haki","true","",""
"2700.0049999915063","","","","","4","html-slider-response","1043","","","","5",""
"18561","list","wingu,alizeti,kuzama,kaso","wingu","f","4","html-keyboard-response","1044","j","kuzama","false","",""
"2950.1150001306087","","","","","4","html-slider-response","1045","","","","4",""
"3119","bank","kudhibi,tualya,silingan,ofisi","silingan","j","4","html-keyboard-response","1046","f","kudhibi","false","",""
"3421.0800000000745","","","","","4","html-slider-response","1047","","","","2",""
"5994","clock","kartasi,abang,mbwa,osha","mbwa","j","4","html-keyboard-response","1048","j","mbwa","true","",""
"2629.769999999553","","","","","4","html-slider-response","1049","","","","4",""
"11743","ceiling","maua,kugita,kawaida,rayna","maua","f","4","html-keyboard-response","1050","f","maua","true","",""
"2692.670000018552","","","","","4","html-slider-response","1051","","","","5",""
"8908","train","itik,dakika,mungu,sayari","sayari","n","4","html-keyboard-response","1052","v","dakika","false","",""
"3911.054999800399","","","","","4","html-slider-response","1053","","","","2",""
"3635","magazine","kiti,gundi,mchawi,bahandi","kiti","f","4","html-keyboard-response","1054","f","kiti","true","",""
"2764.5050000865012","","","","","4","html-slider-response","1055","","","","5",""
"22880","office","leso,hazini,yatima,kuna","leso","f","4","html-keyboard-response","1056","v","hazini","false","",""
"2645.2050001826137","","","","","4","html-slider-response","1057","","","","2",""
"3305","wheel","bafuni,punda,tawo,baadaye","bafuni","f","4","html-keyboard-response","1058","n","baadaye","false","",""
"3065.805000020191","","","","","4","html-slider-response","1059","","","","4",""
"8195","spoon","pagsulod,betri,nzuri,ngazi","pagsulod","f","4","html-keyboard-response","1060","f","pagsulod","true","",""
"3068.870000075549","","","","","4","html-slider-response","1061","","","","4",""
"23691","hammer","napakyas,mekno,kitovu,layag","napakyas","f","4","html-keyboard-response","1062","j","kitovu","false","",""
"3321.0149998776615","","","","","4","html-slider-response","1063","","","","4",""
"7652","cigar","ndugu,adhabu,kuta,mlango","adhabu","v","4","html-keyboard-response","1064","v","adhabu","true","",""
"3027.4000000208616","","","","","4","html-slider-response","1065","","","","5",""
"11005","shoe","uyoga,nyeusi,hatua,kama","uyoga","f","4","html-keyboard-response","1066","f","uyoga","true","",""
"2237.2650001198053","","","","","4","html-slider-response","1067","","","","4",""
"6529","list","wingu,alizeti,kuzama,kaso","wingu","f","5","html-keyboard-response","1069","f","wingu","true","",""
"2429.990000091493","","","","","5","html-slider-response","1070","","","","4",""
"1957","number","mundamo,shule,kengele,choori","mundamo","f","5","html-keyboard-response","1071","f","mundamo","true","",""
"3891.0300000570714","","","","","5","html-slider-response","1072","","","","4",""
"2973","apple","kisu,ukame,estante,edad","kisu","f","5","html-keyboard-response","1073","f","kisu","true","",""
"3188.270000042394","","","","","5","html-slider-response","1074","","","","4",""
"5843","knee","duka,mvuke,kubale,bili","duka","f","5","html-keyboard-response","1075","v","mvuke","false","",""
"2551.749999867752","","","","","5","html-slider-response","1076","","","","4",""
"7151","tooth","kijiko,kabalaka,uadui,pahiyum","kabalaka","v","5","html-keyboard-response","1077","v","kabalaka","true","",""
"2779.2549999430776","","","","","5","html-slider-response","1078","","","","5",""
"12124","berry","kofia,abogado,nogozi,kinywa","kofia","f","5","html-keyboard-response","1079","f","kofia","true","",""
"2688.014999963343","","","","","5","html-slider-response","1080","","","","4",""
"3125","bridge","daima,sahani,ngono,panya","sahani","v","5","html-keyboard-response","1081","v","sahani","true","",""
"2761.4150000736117","","","","","5","html-slider-response","1082","","","","2",""
"12382","perfume","bino,katuyoan,sungura,ndogo","katuyoan","v","5","html-keyboard-response","1083","j","sungura","false","",""
"2749.610000057146","","","","","5","html-slider-response","1084","","","","2",""
"6136","ladder","pangalan,mashua,mwanga,kamba","pangalan","f","5","html-keyboard-response","1085","f","pangalan","true","",""
"2617.7799999713898","","","","","5","html-slider-response","1086","","","","4",""
"5976","pants","pintal,haki,chuki,hari","haki","v","5","html-keyboard-response","1087","n","hari","false","",""
"2656.535000074655","","","","","5","html-slider-response","1088","","","","4",""
"1940","salmon","mzungu,seri,baharia,sensilyo","sensilyo","n","5","html-keyboard-response","1089","n","sensilyo","true","",""
"4647.65499997884","","","","","5","html-slider-response","1090","","","","5",""
"3029","coffin","barua,tubag,hulma,kioo","kioo","n","5","html-keyboard-response","1091","n","kioo","true","",""
"2372.190000023693","","","","","5","html-slider-response","1092","","","","4",""
"15038","park","bunifu,tambok,pwani,ihalas","bunifu","f","5","html-keyboard-response","1093","f","bunifu","true","",""
"2564.4999998621643","","","","","5","html-slider-response","1094","","","","4",""
"12300","giraffe","daraja,jumatu,mahitabo,hangyo","mahitabo","j","5","html-keyboard-response","1095","f","daraja","false","",""
"3177.4699999950826","","","","","5","html-slider-response","1096","","","","2",""
"2259","mirror","rangi,kanding,furaha,sulagma","sulagma","n","5","html-keyboard-response","1097","f","rangi","false","",""
"2955.210000043735","","","","","5","html-slider-response","1098","","","","4",""
"12100","ceiling","kugita,kawaida,maua,rayna","maua","j","5","html-keyboard-response","1099","j","maua","true","",""
"2888.560000108555","","","","","5","html-slider-response","1100","","","","4",""
"5132","marker","mapafu,salita,maji,atay","maji","j","5","html-keyboard-response","1101","f","mapafu","false","",""
"2967.9350000806153","","","","","5","html-slider-response","1102","","","","2",""
"5512","sock","ndoora,mamba,kimysa,mtirka","mamba","v","5","html-keyboard-response","1103","j","kimysa","false","",""
"4243.58500004746","","","","","5","html-slider-response","1104","","","","3",""
"3416","cop","mechezo,bustani,jikoni,bakus","mechezo","f","5","html-keyboard-response","1105","f","mechezo","true","",""
"2418.199999956414","","","","","5","html-slider-response","1106","","","","4",""
"10518","gift","baba,nyange,pagtawag,baso","pagtawag","j","5","html-keyboard-response","1107","j","pagtawag","true","",""
"2535.4349999688566","","","","","5","html-slider-response","1108","","","","4",""
"5003","notebook","msitu,kemia,kila,mdudu","kemia","v","5","html-keyboard-response","1109","v","kemia","true","",""
"2492.450000019744","","","","","5","html-slider-response","1110","","","","4",""
"8840","bank","silingan,kudhibi,tualya,ofisi","silingan","f","5","html-keyboard-response","1111","v","kudhibi","false","",""
"2157.1299999486655","","","","","5","html-slider-response","1112","","","","2",""
"2369","letter","filimbi,chuma,kifua,uhuru","kifua","j","5","html-keyboard-response","1113","v","chuma","false","",""
"2931.465000147","","","","","5","html-slider-response","1114","","","","4",""
"13155","candle","geza,gabi,farasi,kupanda","geza","f","5","html-keyboard-response","1115","f","geza","true","",""
"3113.6149999219924","","","","","5","html-slider-response","1116","","","","4",""
"2689","bread","kaili,dizeli,bugas,dari","dari","n","5","html-keyboard-response","1117","n","dari","true","",""
"2938.2100000511855","","","","","5","html-slider-response","1118","","","","4",""
"3136","snake","jansa,karon,pagtukod,mvringo","pagtukod","j","5","html-keyboard-response","1119","j","pagtukod","true","",""
"2589.759999886155","","","","","5","html-slider-response","1120","","","","4",""
"8764","rose","singizi,mwanake,amani,paghalad","paghalad","n","5","html-keyboard-response","1121","n","paghalad","true","",""
"4072.8300001937896","","","","","5","html-slider-response","1122","","","","4",""
"12757","hill","matumbo,kushoto,kukimba,sweta","matumbo","f","5","html-keyboard-response","1123","f","matumbo","true","",""
"3125.1199999824166","","","","","5","html-slider-response","1124","","","","4",""
"6991","train","itik,dakika,sayari,mungu","sayari","j","5","html-keyboard-response","1125","v","dakika","false","",""
"2157.799999928102","","","","","5","html-slider-response","1126","","","","2",""
"4866","shop","nopya,kerida,samaki,ndezu","samaki","j","5","html-keyboard-response","1127","j","samaki","true","",""
"2205.9500000905246","","","","","5","html-slider-response","1128","","","","5",""
"7911","nose","gubat,kopa,sehemu,kidole","sehemu","j","5","html-keyboard-response","1129","j","sehemu","true","",""
"2385.695000179112","","","","","5","html-slider-response","1130","","","","2",""
"11000","boat","hamsi,pombe,kitanda,agalon","agalon","n","5","html-keyboard-response","1131","n","agalon","true","",""
"2607.564999954775","","","","","5","html-slider-response","1132","","","","2",""
"6931","body","nyundu,tindashan,jibini,kununa","tindashan","v","5","html-keyboard-response","1133","v","tindashan","true","",""
"3590.6899999827147","","","","","5","html-slider-response","1134","","","","4",""
"6237","bed","mapintas,kalipay,haraka,starehe","mapintas","f","5","html-keyboard-response","1135","f","mapintas","true","",""
"2762.3699998948723","","","","","5","html-slider-response","1136","","","","5",""
"12537","squirrel","mahugaw,hofu,ukweli,kichwa","hofu","v","5","html-keyboard-response","1137","v","hofu","true","",""
"3760.9850000590086","","","","","5","html-slider-response","1138","","","","4",""
"3889","window","nanga,kujenga,umaga,kweli","kweli","n","5","html-keyboard-response","1139","v","kujenga","false","",""
"6246.765000047162","","","","","5","html-slider-response","1140","","","","3",""
"1927","bonfire","goti,mwezi,mfuko,kusanya","goti","f","5","html-keyboard-response","1141","f","goti","true","",""
"2981.309999944642","","","","","5","html-slider-response","1142","","","","4",""
"18489","fish","bala,baho,imani,buli","buli","n","5","html-keyboard-response","1143","v","baho","false","",""
"2821.6200000606477","","","","","5","html-slider-response","1144","","","","4",""
"2120","cat","neyemba,paghukom,baki,akili","paghukom","v","5","html-keyboard-response","1145","v","paghukom","true","",""
"2964.180000126362","","","","","5","html-slider-response","1146","","","","5",""
"13230","spider","bunyag,mkboa,kamwe,atop","kamwe","j","5","html-keyboard-response","1147","j","kamwe","true","",""
"2731.8200001027435","","","","","5","html-slider-response","1148","","","","2",""
"8219","eel","ishara,msumari,kunywa,kabuang","msumari","v","5","html-keyboard-response","1149","v","msumari","true","",""
"2480.4950000252575","","","","","5","html-slider-response","1150","","","","5",""
"4781","woman","bandari,bituin,kovuli,pagtabon","pagtabon","n","5","html-keyboard-response","1151","f","bandari","false","",""
"2875.599999912083","","","","","5","html-slider-response","1152","","","","4",""
"1715","magazine","gundi,mchawi,kiti,bahandi","kiti","j","5","html-keyboard-response","1153","j","kiti","true","",""
"2646.7550001107156","","","","","5","html-slider-response","1154","","","","5",""
"16280","pudding","aibu,abug,mpishi,iring","aibu","f","5","html-keyboard-response","1155","f","aibu","true","",""
"2736.164999892935","","","","","5","html-slider-response","1156","","","","4",""
"13069","lamp","daub,afya,bilaska,mbolea","afya","v","5","html-keyboard-response","1157","v","afya","true","",""
"3031.7800000775605","","","","","5","html-slider-response","1158","","","","4",""
"8990","cave","kesho,ganti,maisha,nyundo","kesho","f","5","html-keyboard-response","1159","f","kesho","true","",""
"3461.4699999801815","","","","","5","html-slider-response","1160","","","","5",""
"11681","shoulder","kelele,mkuu,ndaniya,guruwe","mkuu","v","5","html-keyboard-response","1161","v","mkuu","true","",""
"3341.509999940172","","","","","5","html-slider-response","1162","","","","4",""
"7215","stone","ulimwengu,wingi,mkasi,asili","wingi","v","5","html-keyboard-response","1163","v","wingi","true","",""
"2581.6850000992417","","","","","5","html-slider-response","1164","","","","5",""
"6588","column","pundok,dila,pala,ufagio","ufagio","n","5","html-keyboard-response","1165","n","ufagio","true","",""
"2986.029999796301","","","","","5","html-slider-response","1166","","","","4",""
"4952","page","wakala,ishiri,wimbo,skina","wimbo","j","5","html-keyboard-response","1167","v","ishiri","false","",""
"2533.4799999836832","","","","","5","html-slider-response","1168","","","","2",""
"3364","shoe","uyoga,nyeusi,hatua,kama","uyoga","f","5","html-keyboard-response","1169","f","uyoga","true","",""
"3222.8849998209625","","","","","5","html-slider-response","1170","","","","4",""
"6559","clock","kartasi,mbwa,abang,osha","mbwa","v","5","html-keyboard-response","1171","v","mbwa","true","",""
"2458.63000000827","","","","","5","html-slider-response","1172","","","","2",""
"12238","towel","tembo,funzi,pagpalit,pito","pagpalit","j","5","html-keyboard-response","1173","v","funzi","false","",""
"2179.7850001603365","","","","","5","html-slider-response","1174","","","","2",""
"16942","tomato","chupi,chupa,mvua,takatak","mvua","j","5","html-keyboard-response","1175","v","chupa","false","",""
"4022.2650000359863","","","","","5","html-slider-response","1176","","","","3",""
"5924","bucket","baga,kiatu,ijayo,init","kiatu","v","5","html-keyboard-response","1177","v","kiatu","true","",""
"3461.0999999567866","","","","","5","html-slider-response","1178","","","","2",""
"1624","finger","simu,moyo,sufuria,lima","moyo","v","5","html-keyboard-response","1179","v","moyo","true","",""
"2817.4950000829995","","","","","5","html-slider-response","1180","","","","5",""
"3582","mother","kahawa,mbuzi,babaye,jokofu","babaye","j","5","html-keyboard-response","1181","j","babaye","true","",""
"2734.074999811128","","","","","5","html-slider-response","1182","","","","5",""
"2742","human","bado,kikapu,tinapay,punguza","tinapay","j","5","html-keyboard-response","1183","j","tinapay","true","",""
"3213.715000078082","","","","","5","html-slider-response","1184","","","","5",""
"3260","sun","bendi,basi,luha,uongo","basi","v","5","html-keyboard-response","1185","v","basi","true","",""
"3839.919999940321","","","","","5","html-slider-response","1186","","","","4",""
"17371","fork","baboy,paghago,gorisi,mgonjwa","mgonjwa","n","5","html-keyboard-response","1187","v","paghago","false","",""
"2148.8550000358373","","","","","5","html-slider-response","1188","","","","2",""
"3085","donkey","elfu,bloke,lalake,rombus","elfu","f","5","html-keyboard-response","1189","f","elfu","true","",""
"2743.1150001939386","","","","","5","html-slider-response","1190","","","","5",""
"4525","wolf","kaburi,ndizi,lugha,mchuzi","lugha","j","5","html-keyboard-response","1191","j","lugha","true","",""
"2861.269999993965","","","","","5","html-slider-response","1192","","","","5",""
"14476","cigar","adhabu,ndugu,kuta,mlango","adhabu","f","5","html-keyboard-response","1193","v","ndugu","false","",""
"3424.6150001417845","","","","","5","html-slider-response","1194","","","","4",""
"5647","olive","bata,siagi,welder,jiwe","jiwe","n","5","html-keyboard-response","1195","n","jiwe","true","",""
"2755.9950000140816","","","","","5","html-slider-response","1196","","","","4",""
"11648","key","miaka,goma,ahos,chombo","chombo","n","5","html-keyboard-response","1197","n","chombo","true","",""
"3768.3800000231713","","","","","5","html-slider-response","1198","","","","4",""
"4002","door","tena,surali,soko,nyota","surali","v","5","html-keyboard-response","1199","n","nyota","false","",""
"2762.3999998904765","","","","","5","html-slider-response","1200","","","","5",""
"12963","wheel","punda,tawo,bafuni,baadaye","bafuni","j","5","html-keyboard-response","1201","j","bafuni","true","",""
"3414.474999997765","","","","","5","html-slider-response","1202","","","","4",""
"9454","basket","kumbuka,utepe,hasira,kumba","kumba","n","5","html-keyboard-response","1203","n","kumba","true","",""
"2432.2099999990314","","","","","5","html-slider-response","1204","","","","4",""
"3238","elephant","petye,pagduol,kito,suka","kito","j","5","html-keyboard-response","1205","j","kito","true","",""
"3220.770000014454","","","","","5","html-slider-response","1206","","","","4",""
"6199","office","hazini,yatima,kuna,leso","leso","n","5","html-keyboard-response","1207","j","kuna","false","",""
"2304.6099999919534","","","","","5","html-slider-response","1208","","","","4",""
"1651","music","mraba,baiski,mageho,tumbo","baiski","v","5","html-keyboard-response","1209","v","baiski","true","",""
"2573.365000076592","","","","","5","html-slider-response","1210","","","","5",""
"12825","tissue","lamigas,ugomvi,kisiwa,katika","ugomvi","v","5","html-keyboard-response","1211","v","ugomvi","true","",""
"4835.000000195578","","","","","5","html-slider-response","1212","","","","3",""
"14546","curtain","lisud,bulwawan,mchanga,chubani","mchanga","j","5","html-keyboard-response","1213","j","mchanga","true","",""
"2294.9200000148267","","","","","5","html-slider-response","1214","","","","4",""
"6173","flag","ndege,mkate,kawa,trekta","trekta","n","5","html-keyboard-response","1215","n","trekta","true","",""
"1944.069999968633","","","","","5","html-slider-response","1216","","","","4",""
"2923","dog","lubi,washia,kalamu,bahari","bahari","n","5","html-keyboard-response","1217","n","bahari","true","",""
"3516.3750001229346","","","","","5","html-slider-response","1218","","","","2",""
"2822","cup","dagat,matumai,shimoni,jeraha","matumai","v","5","html-keyboard-response","1219","n","jeraha","false","",""
"2894.33000003919","","","","","5","html-slider-response","1220","","","","2",""
"5980","sheet","juuya,bililhon,watu,kamantis","bililhon","v","5","html-keyboard-response","1221","j","watu","false","",""
"3988.910000072792","","","","","5","html-slider-response","1222","","","","3",""
"2100","spoon","betri,nzuri,ngazi,pagsulod","pagsulod","n","5","html-keyboard-response","1223","n","pagsulod","true","",""
"2427.285000216216","","","","","5","html-slider-response","1224","","","","4",""
"6952","flower","bega,tamasha,lobo,usiku","bega","f","5","html-keyboard-response","1225","f","bega","true","",""
"2640.015000011772","","","","","5","html-slider-response","1226","","","","4",""
"3567","picture","kubwa,silya,chaki,asin","kubwa","f","5","html-keyboard-response","1227","n","asin","false","",""
"2372.1099998801947","","","","","5","html-slider-response","1228","","","","2",""
"4149","puppet","mazishi,napulo,lamok,godoro","mazishi","f","5","html-keyboard-response","1229","f","mazishi","true","",""
"2297.9049999266863","","","","","5","html-slider-response","1230","","","","4",""
"7032","banana","kasamok,hagdan,twai,kazi","kazi","n","5","html-keyboard-response","1231","n","kazi","true","",""
"3054.0199999231845","","","","","5","html-slider-response","1232","","","","4",""
"7683","book","kuhesa,mali,picha,mara","mali","v","5","html-keyboard-response","1233","v","mali","true","",""
"2223.950000014156","","","","","5","html-slider-response","1234","","","","4",""
"3256","triangle","kihozi,kasadpan,bentaha,liog","kasadpan","v","5","html-keyboard-response","1235","v","kasadpan","true","",""
"3645.174999954179","","","","","5","html-slider-response","1236","","","","2",""
"9211","poster","nchi,madungog,fedha,kasuko","madungog","v","5","html-keyboard-response","1237","n","kasuko","false","",""
"3284.230000106618","","","","","5","html-slider-response","1238","","","","4",""
"3541","box","kuacha,adui,rafiki,kitande","adui","v","5","html-keyboard-response","1239","v","adui","true","",""
"4735.360000049695","","","","","5","html-slider-response","1240","","","","4",""
"3127","mosquito","isda,martilyo,taras,gutom","martilyo","v","5","html-keyboard-response","1241","j","taras","false","",""
"3957.6350001152605","","","","","5","html-slider-response","1242","","","","3",""
"6086","shelf","pamahaw,bungtod,kadaot,awit","pamahaw","f","5","html-keyboard-response","1243","n","awit","false","",""
"2526.1800000444055","","","","","5","html-slider-response","1244","","","","2",""
"3296","scissors","tanuri,duga,mtawa,suga","tanuri","f","5","html-keyboard-response","1245","j","mtawa","false","",""
"2369.3050001747906","","","","","5","html-slider-response","1246","","","","2",""
"2769","hammer","mekno,napakyas,kitovu,layag","napakyas","v","5","html-keyboard-response","1247","n","layag","false","",""
"2512.445000000298","","","","","5","html-slider-response","1248","","","","2",""
