"rt","en_word","options","swa_word","correct_answer","phase","trial_type","trial_index","input_answer","input_word","accuracy","certainty","amt_choices"
"1956","bonfire","goti,mwezi,mfuko,kusanya","goti","f","2","html-keyboard-response","106","f","goti","true","",""
"1454.7999999970198","","","","","2","html-slider-response","107","","","","5",""
"3430","flower","bega,tamasha,lobo,usiku","bega","f","2","html-keyboard-response","108","f","bega","true","",""
"3081.2999999970198","","","","","2","html-slider-response","109","","","","4",""
"3932","column","pundok,dila,ufagio,pala","ufagio","j","2","html-keyboard-response","110","j","ufagio","true","",""
"1586.5","","","","","2","html-slider-response","111","","","","4",""
"3285","music","mraba,mageho,tumbo,baiski","baiski","n","2","html-keyboard-response","112","n","baiski","true","",""
"1381.8999999985099","","","","","2","html-slider-response","113","","","","2",""
"5325","spider","bunyag,kamwe,mkboa,atop","kamwe","v","2","html-keyboard-response","114","j","mkboa","false","",""
"1614.4000000059605","","","","","2","html-slider-response","115","","","","2",""
"5338","fork","baboy,paghago,mgonjwa,gorisi","mgonjwa","j","2","html-keyboard-response","116","v","paghago","false","",""
"2439.6999999955297","","","","","2","html-slider-response","117","","","","1",""
"4216","mosquito","martilyo,isda,taras,gutom","martilyo","f","2","html-keyboard-response","118","f","martilyo","true","",""
"1033.2000000029802","","","","","2","html-slider-response","119","","","","4",""
"6593","banana","kasamok,hagdan,kazi,twai","kazi","j","2","html-keyboard-response","120","j","kazi","true","",""
"1310.1999999955297","","","","","2","html-slider-response","121","","","","5",""
"2976","cup","dagat,shimoni,matumai,jeraha","matumai","j","2","html-keyboard-response","122","f","dagat","false","",""
"1073.6000000014901","","","","","2","html-slider-response","123","","","","2",""
"2927","shop","samaki,nopya,kerida,ndezu","samaki","f","2","html-keyboard-response","124","f","samaki","true","",""
"1476.1000000014901","","","","","2","html-slider-response","125","","","","2",""
"1941","elephant","kito,petye,pagduol,suka","kito","f","2","html-keyboard-response","126","f","kito","true","",""
"1340","","","","","2","html-slider-response","127","","","","5",""
"4385","bucket","baga,ijayo,init,kiatu","kiatu","n","2","html-keyboard-response","128","n","kiatu","true","",""
"1141.7000000029802","","","","","2","html-slider-response","129","","","","2",""
"3876","book","kuhesa,mali,picha,mara","mali","v","2","html-keyboard-response","130","v","mali","true","",""
"1412.2999999970198","","","","","2","html-slider-response","131","","","","5",""
"3400","mirror","sulagma,rangi,kanding,furaha","sulagma","f","2","html-keyboard-response","132","f","sulagma","true","",""
"2583.3000000044703","","","","","2","html-slider-response","133","","","","4",""
"10325","office","hazini,yatima,leso,kuna","leso","j","2","html-keyboard-response","134","j","leso","true","",""
"1868.6000000014901","","","","","2","html-slider-response","135","","","","4",""
"3700","body","nyundu,jibini,tindashan,kununa","tindashan","j","2","html-keyboard-response","136","f","nyundu","false","",""
"1139.5","","","","","2","html-slider-response","137","","","","2",""
"3485","perfume","bino,katuyoan,sungura,ndogo","katuyoan","v","2","html-keyboard-response","138","f","bino","false","",""
"1150.7999999970198","","","","","2","html-slider-response","139","","","","2",""
"4381","olive","bata,siagi,welder,jiwe","jiwe","n","2","html-keyboard-response","140","f","bata","false","",""
"1146.6999999955297","","","","","2","html-slider-response","141","","","","1",""
"2180","magazine","gundi,mchawi,bahandi,kiti","kiti","n","2","html-keyboard-response","142","n","kiti","true","",""
"1234","","","","","2","html-slider-response","143","","","","5",""
"2890","bread","kaili,dizeli,bugas,dari","dari","n","2","html-keyboard-response","144","n","dari","true","",""
"1444.5","","","","","2","html-slider-response","145","","","","4",""
"3103","cave","ganti,kesho,maisha,nyundo","kesho","v","2","html-keyboard-response","146","n","nyundo","false","",""
"1060.3999999985099","","","","","2","html-slider-response","147","","","","2",""
"3085","ladder","pangalan,mashua,mwanga,kamba","pangalan","f","2","html-keyboard-response","148","f","pangalan","true","",""
"1227.2999999970198","","","","","2","html-slider-response","149","","","","4",""
"3610","human","tinapay,bado,kikapu,punguza","tinapay","f","2","html-keyboard-response","150","f","tinapay","true","",""
"1049.5","","","","","2","html-slider-response","151","","","","4",""
"4633","clock","mbwa,kartasi,abang,osha","mbwa","f","2","html-keyboard-response","152","j","abang","false","",""
"1102.8999999985099","","","","","2","html-slider-response","153","","","","2",""
"5936","shelf","pamahaw,bungtod,kadaot,awit","pamahaw","f","2","html-keyboard-response","154","n","awit","false","",""
"1255.2999999970198","","","","","2","html-slider-response","155","","","","1",""
"2580","salmon","mzungu,seri,baharia,sensilyo","sensilyo","n","2","html-keyboard-response","156","n","sensilyo","true","",""
"1476.6000000014901","","","","","2","html-slider-response","157","","","","4",""
"3943","coffin","kioo,barua,tubag,hulma","kioo","f","2","html-keyboard-response","158","f","kioo","true","",""
"1012.0999999940395","","","","","2","html-slider-response","159","","","","4",""
"10739","notebook","msitu,kemia,kila,mdudu","kemia","v","2","html-keyboard-response","160","v","kemia","true","",""
"1207.6000000014901","","","","","2","html-slider-response","161","","","","2",""
"4966","shoulder","mkuu,kelele,ndaniya,guruwe","mkuu","f","2","html-keyboard-response","162","f","mkuu","true","",""
"1466.2000000029802","","","","","2","html-slider-response","163","","","","2",""
"3401","park","bunifu,tambok,pwani,ihalas","bunifu","f","2","html-keyboard-response","164","f","bunifu","true","",""
"1195.8999999985099","","","","","2","html-slider-response","165","","","","1",""
"5318","number","shule,kengele,mundamo,choori","mundamo","j","2","html-keyboard-response","166","j","mundamo","true","",""
"1507.3000000044703","","","","","2","html-slider-response","167","","","","1",""
"4514","apple","ukame,estante,edad,kisu","kisu","n","2","html-keyboard-response","168","n","kisu","true","",""
"1493.8999999985099","","","","","2","html-slider-response","169","","","","1",""
"16382","letter","filimbi,kifua,chuma,uhuru","kifua","v","2","html-keyboard-response","170","v","kifua","true","",""
"1061.6000000014901","","","","","2","html-slider-response","171","","","","2",""
"3286","eel","ishara,msumari,kunywa,kabuang","msumari","v","2","html-keyboard-response","172","f","ishara","false","",""
"1257.2000000029802","","","","","2","html-slider-response","173","","","","2",""
"2429","cop","mechezo,bustani,jikoni,bakus","mechezo","f","2","html-keyboard-response","174","f","mechezo","true","",""
"1260.3999999985099","","","","","2","html-slider-response","175","","","","5",""
"3496","wolf","lugha,kaburi,ndizi,mchuzi","lugha","f","2","html-keyboard-response","176","n","mchuzi","false","",""
"1031.5","","","","","2","html-slider-response","177","","","","2",""
"2365","squirrel","mahugaw,hofu,ukweli,kichwa","hofu","v","2","html-keyboard-response","178","v","hofu","true","",""
"1146.3999999985099","","","","","2","html-slider-response","179","","","","5",""
"16013","nose","sehemu,gubat,kopa,kidole","sehemu","f","2","html-keyboard-response","180","j","kopa","false","",""
"1670.5","","","","","2","html-slider-response","181","","","","2",""
"5547","sock","ndoora,kimysa,mamba,mtirka","mamba","j","2","html-keyboard-response","182","j","mamba","true","",""
"1272.5","","","","","2","html-slider-response","183","","","","4",""
"4293","bank","kudhibi,tualya,ofisi,silingan","silingan","n","2","html-keyboard-response","184","n","silingan","true","",""
"1714.5","","","","","2","html-slider-response","185","","","","2",""
"3743","donkey","bloke,lalake,elfu,rombus","elfu","j","2","html-keyboard-response","186","j","elfu","true","",""
"1357.2000000029802","","","","","2","html-slider-response","187","","","","4",""
"2969","poster","nchi,fedha,kasuko,madungog","madungog","n","2","html-keyboard-response","188","n","madungog","true","",""
"1194.8000000044703","","","","","2","html-slider-response","189","","","","2",""
"4058","puppet","mazishi,napulo,lamok,godoro","mazishi","f","2","html-keyboard-response","190","f","mazishi","true","",""
"1043.9000000059605","","","","","2","html-slider-response","191","","","","4",""
"5717","hill","kushoto,matumbo,kukimba,sweta","matumbo","v","2","html-keyboard-response","192","j","kukimba","false","",""
"1256.5","","","","","2","html-slider-response","193","","","","2",""
"4062","tooth","kabalaka,kijiko,uadui,pahiyum","kabalaka","f","2","html-keyboard-response","194","f","kabalaka","true","",""
"1687.7999999970198","","","","","2","html-slider-response","195","","","","1",""
"1852","woman","pagtabon,bandari,bituin,kovuli","pagtabon","f","2","html-keyboard-response","196","f","pagtabon","true","",""
"1103.9000000059605","","","","","2","html-slider-response","197","","","","4",""
"5667","wheel","punda,bafuni,tawo,baadaye","bafuni","v","2","html-keyboard-response","198","v","bafuni","true","",""
"1231.6000000014901","","","","","2","html-slider-response","199","","","","2",""
"1821","mother","babaye,kahawa,mbuzi,jokofu","babaye","f","2","html-keyboard-response","200","f","babaye","true","",""
"919.3999999985099","","","","","2","html-slider-response","201","","","","4",""
"3614","bed","kalipay,haraka,starehe,mapintas","mapintas","n","2","html-keyboard-response","202","f","kalipay","false","",""
"3431","","","","","2","html-slider-response","203","","","","4",""
"7240","key","miaka,chombo,goma,ahos","chombo","v","2","html-keyboard-response","204","f","miaka","false","",""
"1181.2999999970198","","","","","2","html-slider-response","205","","","","2",""
"5123","page","wimbo,wakala,ishiri,skina","wimbo","f","2","html-keyboard-response","206","f","wimbo","true","",""
"1136.3000000044703","","","","","2","html-slider-response","207","","","","1",""
"4382","pants","pintal,chuki,haki,hari","haki","j","2","html-keyboard-response","208","n","hari","false","",""
"1531.1000000014901","","","","","2","html-slider-response","209","","","","2",""
"4207","sun","bendi,luha,basi,uongo","basi","j","2","html-keyboard-response","210","j","basi","true","",""
"1584.1000000014901","","","","","2","html-slider-response","211","","","","2",""
"4372","finger","simu,sufuria,lima,moyo","moyo","n","2","html-keyboard-response","212","f","simu","false","",""
"1098.8000000044703","","","","","2","html-slider-response","213","","","","2",""
"4838","shoe","nyeusi,hatua,kama,uyoga","uyoga","n","2","html-keyboard-response","214","j","kama","false","",""
"1306.8999999985099","","","","","2","html-slider-response","215","","","","1",""
"3651","giraffe","daraja,mahitabo,jumatu,hangyo","mahitabo","v","2","html-keyboard-response","216","v","mahitabo","true","",""
"1224.2999999970198","","","","","2","html-slider-response","217","","","","2",""
"3219","dog","lubi,bahari,washia,kalamu","bahari","v","2","html-keyboard-response","218","v","bahari","true","",""
"1695.2000000029802","","","","","2","html-slider-response","219","","","","2",""
"4909","box","adui,kuacha,rafiki,kitande","adui","f","2","html-keyboard-response","220","f","adui","true","",""
"1203.8000000044703","","","","","2","html-slider-response","221","","","","4",""
"5781","scissors","duga,mtawa,suga,tanuri","tanuri","n","2","html-keyboard-response","222","j","suga","false","",""
"2020","","","","","2","html-slider-response","223","","","","2",""
"5311","cat","neyemba,baki,akili,paghukom","paghukom","n","2","html-keyboard-response","224","n","paghukom","true","",""
"1570.5","","","","","2","html-slider-response","225","","","","2",""
"27171","basket","kumba,kumbuka,utepe,hasira","kumba","f","2","html-keyboard-response","226","f","kumba","true","",""
"1148.8000000044703","","","","","2","html-slider-response","227","","","","2",""
"5820","snake","jansa,karon,mvringo,pagtukod","pagtukod","n","2","html-keyboard-response","228","v","karon","false","",""
"1347.3999999985099","","","","","2","html-slider-response","229","","","","1",""
"3809","gift","baba,nyange,baso,pagtawag","pagtawag","n","2","html-keyboard-response","230","j","baso","false","",""
"2052.60000000149","","","","","2","html-slider-response","231","","","","1",""
"5265","train","sayari,itik,dakika,mungu","sayari","f","2","html-keyboard-response","232","f","sayari","true","",""
"1776.2999999970198","","","","","2","html-slider-response","233","","","","2",""
"4824","pudding","abug,mpishi,iring,aibu","aibu","n","2","html-keyboard-response","234","n","aibu","true","",""
"1823.7000000029802","","","","","2","html-slider-response","235","","","","1",""
"5288","tomato","chupi,mvua,chupa,takatak","mvua","v","2","html-keyboard-response","236","j","chupa","false","",""
"1182","","","","","2","html-slider-response","237","","","","1",""
"7731","stone","wingi,ulimwengu,mkasi,asili","wingi","f","2","html-keyboard-response","238","f","wingi","true","",""
"1103","","","","","2","html-slider-response","239","","","","2",""
"3489","hammer","mekno,napakyas,kitovu,layag","napakyas","v","2","html-keyboard-response","240","v","napakyas","true","",""
"1132","","","","","2","html-slider-response","241","","","","2",""
"5821","knee","mvuke,kubale,duka,bili","duka","j","2","html-keyboard-response","242","n","bili","false","",""
"1423.6000000014901","","","","","2","html-slider-response","243","","","","1",""
"28203","ceiling","kugita,kawaida,rayna,maua","maua","n","2","html-keyboard-response","244","v","kawaida","false","",""
"1575.2000000029802","","","","","2","html-slider-response","245","","","","1",""
"3556","spoon","betri,nzuri,ngazi,pagsulod","pagsulod","n","2","html-keyboard-response","246","f","betri","false","",""
"1717.5","","","","","2","html-slider-response","247","","","","2",""
"5272","marker","mapafu,salita,atay,maji","maji","n","2","html-keyboard-response","248","j","atay","false","",""
"1388","","","","","2","html-slider-response","249","","","","1",""
"3506","candle","gabi,farasi,geza,kupanda","geza","j","2","html-keyboard-response","250","f","gabi","false","",""
"1416.0999999940395","","","","","2","html-slider-response","251","","","","2",""
"3025","tissue","lamigas,ugomvi,kisiwa,katika","ugomvi","v","2","html-keyboard-response","252","v","ugomvi","true","",""
"1416.6000000014901","","","","","2","html-slider-response","253","","","","2",""
"2991","bridge","daima,ngono,sahani,panya","sahani","j","2","html-keyboard-response","254","j","sahani","true","",""
"1127.0999999940395","","","","","2","html-slider-response","255","","","","1",""
"4896","berry","kofia,abogado,nogozi,kinywa","kofia","f","2","html-keyboard-response","256","v","abogado","false","",""
"1565.5","","","","","2","html-slider-response","257","","","","1",""
"3445","triangle","kasadpan,kihozi,bentaha,liog","kasadpan","f","2","html-keyboard-response","258","f","kasadpan","true","",""
"1506","","","","","2","html-slider-response","259","","","","2",""
"4091","door","surali,tena,soko,nyota","surali","f","2","html-keyboard-response","260","f","surali","true","",""
"1171.5","","","","","2","html-slider-response","261","","","","4",""
"3382","fish","bala,baho,imani,buli","buli","n","2","html-keyboard-response","262","n","buli","true","",""
"1173.1000000014901","","","","","2","html-slider-response","263","","","","5",""
"21025","curtain","lisud,bulwawan,chubani,mchanga","mchanga","n","2","html-keyboard-response","264","n","mchanga","true","",""
"1091.1000000014901","","","","","2","html-slider-response","265","","","","2",""
"1807","flag","trekta,ndege,mkate,kawa","trekta","f","2","html-keyboard-response","266","f","trekta","true","",""
"1225.1999999955297","","","","","2","html-slider-response","267","","","","5",""
"2765","boat","hamsi,pombe,agalon,kitanda","agalon","j","2","html-keyboard-response","268","j","agalon","true","",""
"1467.6000000014901","","","","","2","html-slider-response","269","","","","4",""
"49482","rose","singizi,mwanake,amani,paghalad","paghalad","n","2","html-keyboard-response","270","j","amani","false","",""
"1577.1000000014901","","","","","2","html-slider-response","271","","","","1",""
"3657","lamp","daub,bilaska,afya,mbolea","afya","j","2","html-keyboard-response","272","v","bilaska","false","",""
"1195.3000000044703","","","","","2","html-slider-response","273","","","","2",""
"2284","cigar","adhabu,ndugu,kuta,mlango","adhabu","f","2","html-keyboard-response","274","n","mlango","false","",""
"1173.2999999970198","","","","","2","html-slider-response","275","","","","1",""
"2687","list","alizeti,wingu,kuzama,kaso","wingu","v","2","html-keyboard-response","276","n","kaso","false","",""
"1809.1999999955297","","","","","2","html-slider-response","277","","","","1",""
"3159","sheet","juuya,watu,kamantis,bililhon","bililhon","n","2","html-keyboard-response","278","j","kamantis","false","",""
"1158.8000000044703","","","","","2","html-slider-response","279","","","","1",""
"3599","picture","silya,chaki,kubwa,asin","kubwa","j","2","html-keyboard-response","280","f","silya","false","",""
"1143.6000000014901","","","","","2","html-slider-response","281","","","","2",""
"4676","towel","tembo,funzi,pagpalit,pito","pagpalit","j","2","html-keyboard-response","282","j","pagpalit","true","",""
"2636.39999999851","","","","","2","html-slider-response","283","","","","1",""
"4856","window","kweli,nanga,kujenga,umaga","kweli","f","2","html-keyboard-response","284","n","umaga","false","",""
"1142.7000000029802","","","","","2","html-slider-response","285","","","","1",""
"2888","box","kuacha,rafiki,kitande,adui","adui","n","3","html-keyboard-response","293","n","adui","true","","4"
"2136.89999999851","","","","","3","html-slider-response","294","","","","4",""
"1471","","","","","3","html-keyboard-response","295","","","","",""
"3061","pants","pintal,haki,chuki,hari","haki","v","3","html-keyboard-response","296","n","hari","false","","4"
"1061.3000000044703","","","","","3","html-slider-response","297","","","","2",""
"60078","","","","","3","html-keyboard-response","298","","","","",""
"4708","cup","dagat,matumai,shimoni,jeraha","matumai","v","3","html-keyboard-response","299","j","shimoni","false","","4"
"1405.2000000029802","","","","","3","html-slider-response","300","","","","1",""
"87784","","","","","3","html-keyboard-response","301","","","","",""
"4475","triangle","kihozi,bentaha,kasadpan,liog","kasadpan","j","3","html-keyboard-response","302","f","kihozi","false","","4"
"1283.2999999970198","","","","","3","html-slider-response","303","","","","1",""
"1848","","","","","3","html-keyboard-response","304","","","","",""
"5929","curtain","lisud,bulwawan,mchanga,chubani","mchanga","j","3","html-keyboard-response","305","v","bulwawan","false","","4"
"1601.6999999955297","","","","","3","html-slider-response","306","","","","2",""
"1271","","","","","3","html-keyboard-response","307","","","","",""
"4002","clock","mbwa,kartasi,abang,osha","mbwa","f","3","html-keyboard-response","308","j","abang","false","","4"
"1408.5","","","","","3","html-slider-response","309","","","","1",""
"1291","","","","","3","html-keyboard-response","310","","","","",""
"4982","mirror","rangi,sulagma,kanding,furaha","sulagma","v","3","html-keyboard-response","311","v","sulagma","true","","4"
"1236.3999999985099","","","","","3","html-slider-response","312","","","","4",""
"905","","","","","3","html-keyboard-response","313","","","","",""
"2933","coffin","barua,tubag,hulma,kioo","kioo","n","3","html-keyboard-response","314","n","kioo","true","","1"
"1885.1999999955297","","","","","3","html-slider-response","315","","","","5",""
"873","","","","","3","html-keyboard-response","316","","","","",""
"2174","magazine","gundi,mchawi,kiti,bahandi","kiti","j","3","html-keyboard-response","317","j","kiti","true","","4"
"1262.6000000014901","","","","","3","html-slider-response","318","","","","5",""
"620","","","","","3","html-keyboard-response","319","","","","",""
"1400","column","ufagio,pundok,dila,pala","ufagio","f","3","html-keyboard-response","320","f","ufagio","true","","1"
"1776.8999999985099","","","","","3","html-slider-response","321","","","","5",""
"597","","","","","3","html-keyboard-response","322","","","","",""
"4948","number","shule,kengele,choori,mundamo","mundamo","n","3","html-keyboard-response","323","j","choori","false","","4"
"1420.5","","","","","3","html-slider-response","324","","","","1",""
"884","","","","","3","html-keyboard-response","325","","","","",""
"5689","rose","singizi,paghalad,mwanake,amani","paghalad","v","3","html-keyboard-response","326","f","singizi","false","","4"
"972.1000000014901","","","","","3","html-slider-response","327","","","","1",""
"389","","","","","3","html-keyboard-response","328","","","","",""
"4322","eel","ishara,msumari,kunywa,kabuang","msumari","v","3","html-keyboard-response","329","v","msumari","true","","4"
"1400.5999999940395","","","","","3","html-slider-response","330","","","","1",""
"605","","","","","3","html-keyboard-response","331","","","","",""
"4720","gift","baba,nyange,pagtawag,baso","pagtawag","j","3","html-keyboard-response","332","j","pagtawag","true","","4"
"940.5","","","","","3","html-slider-response","333","","","","2",""
"955","","","","","3","html-keyboard-response","334","","","","",""
"1163","apple","ukame,estante,edad,kisu","kisu","n","3","html-keyboard-response","335","n","kisu","true","","1"
"1147.2999999970198","","","","","3","html-slider-response","336","","","","5",""
"731","","","","","3","html-keyboard-response","337","","","","",""
"1371","wheel","bafuni,punda,tawo,baadaye","bafuni","f","3","html-keyboard-response","338","f","bafuni","true","","1"
"1231.3999999985099","","","","","3","html-slider-response","339","","","","5",""
"545","","","","","3","html-keyboard-response","340","","","","",""
"105482","knee","mvuke,kubale,bili,duka","duka","n","3","html-keyboard-response","341","j","bili","false","","4"
"1726.2999999970198","","","","","3","html-slider-response","342","","","","2",""
"717","","","","","3","html-keyboard-response","343","","","","",""
"1475","basket","kumbuka,utepe,hasira,kumba","kumba","n","3","html-keyboard-response","344","n","kumba","true","","1"
"1289","","","","","3","html-slider-response","345","","","","5",""
"594","","","","","3","html-keyboard-response","346","","","","",""
"4348","park","tambok,pwani,bunifu,ihalas","bunifu","j","3","html-keyboard-response","347","v","pwani","false","","4"
"1557","","","","","3","html-slider-response","348","","","","1",""
"551","","","","","3","html-keyboard-response","349","","","","",""
"4071","finger","moyo,simu,sufuria,lima","moyo","f","3","html-keyboard-response","350","v","simu","false","","4"
"1135.5","","","","","3","html-slider-response","351","","","","2",""
"1079","","","","","3","html-keyboard-response","352","","","","",""
"2265","boat","hamsi,pombe,kitanda,agalon","agalon","n","3","html-keyboard-response","353","n","agalon","true","","4"
"967","","","","","3","html-slider-response","354","","","","4",""
"707","","","","","3","html-keyboard-response","355","","","","",""
"54301","hill","matumbo,kushoto,kukimba,sweta","matumbo","f","3","html-keyboard-response","356","f","matumbo","true","","4"
"1362","","","","","3","html-slider-response","357","","","","2",""
"520","","","","","3","html-keyboard-response","358","","","","",""
"3929","train","itik,dakika,mungu,sayari","sayari","n","3","html-keyboard-response","359","n","sayari","true","","4"
"1723.6000000014901","","","","","3","html-slider-response","360","","","","2",""
"491","","","","","3","html-keyboard-response","361","","","","",""
"33076","wolf","lugha,kaburi,ndizi,mchuzi","lugha","f","3","html-keyboard-response","362","n","mchuzi","false","","4"
"1650.2000000029802","","","","","3","html-slider-response","363","","","","1",""
"439","","","","","3","html-keyboard-response","364","","","","",""
"4735","snake","pagtukod,jansa,karon,mvringo","pagtukod","f","3","html-keyboard-response","365","f","pagtukod","true","","4"
"1491.6999999955297","","","","","3","html-slider-response","366","","","","2",""
"525","","","","","3","html-keyboard-response","367","","","","",""
"135698","tooth","kabalaka,kijiko,uadui,pahiyum","kabalaka","f","3","html-keyboard-response","368","v","kijiko","false","","4"
"1348.8000000044703","","","","","3","html-slider-response","369","","","","2",""
"390","","","","","3","html-keyboard-response","370","","","","",""
"3093","notebook","msitu,kila,kemia,mdudu","kemia","j","3","html-keyboard-response","371","n","mdudu","false","","4"
"1445.1000000014901","","","","","3","html-slider-response","372","","","","2",""
"547","","","","","3","html-keyboard-response","373","","","","",""
"18978","flag","ndege,mkate,trekta,kawa","trekta","j","3","html-keyboard-response","374","j","trekta","true","","4"
"2015","","","","","3","html-slider-response","375","","","","5",""
"728","","","","","3","html-keyboard-response","376","","","","",""
"2607","squirrel","mahugaw,ukweli,kichwa,hofu","hofu","n","3","html-keyboard-response","377","n","hofu","true","","4"
"1522.5","","","","","3","html-slider-response","378","","","","4",""
"496","","","","","3","html-keyboard-response","379","","","","",""
"4013","door","tena,soko,nyota,surali","surali","n","3","html-keyboard-response","380","n","surali","true","","4"
"1217.3999999985099","","","","","3","html-slider-response","381","","","","4",""
"413","","","","","3","html-keyboard-response","382","","","","",""
"2313","salmon","mzungu,seri,baharia,sensilyo","sensilyo","n","3","html-keyboard-response","383","n","sensilyo","true","","4"
"1227.2999999970198","","","","","3","html-slider-response","384","","","","5",""
"487","","","","","3","html-keyboard-response","385","","","","",""
"3529","shoulder","kelele,ndaniya,guruwe,mkuu","mkuu","n","3","html-keyboard-response","386","n","mkuu","true","","4"
"850.5999999940395","","","","","3","html-slider-response","387","","","","4",""
"308","","","","","3","html-keyboard-response","388","","","","",""
"4239","lamp","daub,bilaska,afya,mbolea","afya","j","3","html-keyboard-response","389","j","afya","true","","4"
"862.7000000029802","","","","","3","html-slider-response","390","","","","2",""
"374","","","","","3","html-keyboard-response","391","","","","",""
"1613","shelf","pamahaw,bungtod,kadaot,awit","pamahaw","f","3","html-keyboard-response","392","f","pamahaw","true","","1"
"1143.7000000029802","","","","","3","html-slider-response","393","","","","2",""
"830","","","","","3","html-keyboard-response","394","","","","",""
"3318","human","bado,kikapu,tinapay,punguza","tinapay","j","3","html-keyboard-response","395","j","tinapay","true","","4"
"1399","","","","","3","html-slider-response","396","","","","4",""
"229","","","","","3","html-keyboard-response","397","","","","",""
"72886","towel","tembo,funzi,pagpalit,pito","pagpalit","j","3","html-keyboard-response","398","j","pagpalit","true","","4"
"1630.3000000044703","","","","","3","html-slider-response","399","","","","2",""
"465","","","","","3","html-keyboard-response","400","","","","",""
"3741","cat","neyemba,baki,akili,paghukom","paghukom","n","3","html-keyboard-response","401","f","neyemba","false","","4"
"1536.5","","","","","3","html-slider-response","402","","","","2",""
"466","","","","","3","html-keyboard-response","403","","","","",""
"4084","spider","bunyag,kamwe,mkboa,atop","kamwe","v","3","html-keyboard-response","404","j","mkboa","false","","4"
"833.8000000044703","","","","","3","html-slider-response","405","","","","2",""
"261","","","","","3","html-keyboard-response","406","","","","",""
"220295","window","nanga,kujenga,umaga,kweli","kweli","n","3","html-keyboard-response","407","v","kujenga","false","","4"
"1427.6999999955297","","","","","3","html-slider-response","408","","","","2",""
"496","","","","","3","html-keyboard-response","409","","","","",""
"1543","woman","bandari,bituin,pagtabon,kovuli","pagtabon","j","3","html-keyboard-response","410","j","pagtabon","true","","1"
"1666","","","","","3","html-slider-response","411","","","","5",""
"277","","","","","3","html-keyboard-response","412","","","","",""
"106746","giraffe","daraja,jumatu,hangyo,mahitabo","mahitabo","n","3","html-keyboard-response","413","f","daraja","false","","4"
"1617.7999999970198","","","","","3","html-slider-response","414","","","","1",""
"230","","","","","3","html-keyboard-response","415","","","","",""
"4003","elephant","kito,petye,pagduol,suka","kito","f","3","html-keyboard-response","416","f","kito","true","","4"
"1021.6000000014901","","","","","3","html-slider-response","417","","","","4",""
"349","","","","","3","html-keyboard-response","418","","","","",""
"3313","cave","kesho,ganti,maisha,nyundo","kesho","f","3","html-keyboard-response","419","j","maisha","false","","4"
"1730.2999999970198","","","","","3","html-slider-response","420","","","","4",""
"447","","","","","3","html-keyboard-response","421","","","","",""
"3870","bread","dari,kaili,dizeli,bugas","dari","f","3","html-keyboard-response","422","f","dari","true","","4"
"1464.1000000014901","","","","","3","html-slider-response","423","","","","4",""
"544","","","","","3","html-keyboard-response","424","","","","",""
"4456","stone","ulimwengu,mkasi,wingi,asili","wingi","j","3","html-keyboard-response","425","n","asili","false","","4"
"1491.7000000029802","","","","","3","html-slider-response","426","","","","2",""
"299","","","","","3","html-keyboard-response","427","","","","",""
"1991","donkey","elfu,bloke,lalake,rombus","elfu","f","3","html-keyboard-response","428","j","lalake","false","","4"
"2174.4000000059605","","","","","3","html-slider-response","429","","","","1",""
"398","","","","","3","html-keyboard-response","430","","","","",""
"70964","bridge","daima,ngono,sahani,panya","sahani","j","3","html-keyboard-response","431","v","ngono","false","","4"
"1385.3999999985099","","","","","3","html-slider-response","432","","","","1",""
"1270","","","","","3","html-keyboard-response","433","","","","",""
"2145","bonfire","mwezi,goti,mfuko,kusanya","goti","v","3","html-keyboard-response","434","v","goti","true","","4"
"931.8000000044703","","","","","3","html-slider-response","435","","","","4",""
"305","","","","","3","html-keyboard-response","436","","","","",""
"2471","book","kuhesa,picha,mali,mara","mali","j","3","html-keyboard-response","437","j","mali","true","","4"
"968.2000000029802","","","","","3","html-slider-response","438","","","","4",""
"275","","","","","3","html-keyboard-response","439","","","","",""
"2076","fish","buli,bala,baho,imani","buli","f","3","html-keyboard-response","440","f","buli","true","","4"
"913","","","","","3","html-slider-response","441","","","","4",""
"476","","","","","3","html-keyboard-response","442","","","","",""
"3895","spoon","betri,nzuri,pagsulod,ngazi","pagsulod","j","3","html-keyboard-response","443","f","betri","false","","4"
"1673.7999999970198","","","","","3","html-slider-response","444","","","","2",""
"414","","","","","3","html-keyboard-response","445","","","","",""
"4839","scissors","tanuri,duga,mtawa,suga","tanuri","f","3","html-keyboard-response","446","n","suga","false","","4"
"1032","","","","","3","html-slider-response","447","","","","4",""
"965","","","","","3","html-keyboard-response","448","","","","",""
"64276","page","wakala,ishiri,wimbo,skina","wimbo","j","3","html-keyboard-response","449","j","wimbo","true","","4"
"1275.3000000044703","","","","","3","html-slider-response","450","","","","2",""
"471","","","","","3","html-keyboard-response","451","","","","",""
"1452","nose","gubat,kopa,sehemu,kidole","sehemu","j","3","html-keyboard-response","452","j","sehemu","true","","1"
"1332","","","","","3","html-slider-response","453","","","","5",""
"325","","","","","3","html-keyboard-response","454","","","","",""
"68919","ceiling","kugita,kawaida,maua,rayna","maua","j","3","html-keyboard-response","455","j","maua","true","","4"
"1567.7000000029802","","","","","3","html-slider-response","456","","","","2",""
"427","","","","","3","html-keyboard-response","457","","","","",""
"5046","bucket","kiatu,baga,ijayo,init","kiatu","f","3","html-keyboard-response","458","v","baga","false","","4"
"1260.5","","","","","3","html-slider-response","459","","","","2",""
"395","","","","","3","html-keyboard-response","460","","","","",""
"1401","berry","abogado,nogozi,kofia,kinywa","kofia","j","3","html-keyboard-response","461","j","kofia","true","","1"
"1870.2000000029802","","","","","3","html-slider-response","462","","","","5",""
"1064","","","","","3","html-keyboard-response","463","","","","",""
"1643","mother","kahawa,mbuzi,jokofu,babaye","babaye","n","3","html-keyboard-response","464","n","babaye","true","","1"
"1265.7999999970198","","","","","3","html-slider-response","465","","","","5",""
"206","","","","","3","html-keyboard-response","466","","","","",""
"4464","mosquito","isda,taras,gutom,martilyo","martilyo","n","3","html-keyboard-response","467","n","martilyo","true","","4"
"855.5","","","","","3","html-slider-response","468","","","","4",""
"387","","","","","3","html-keyboard-response","469","","","","",""
"3532","perfume","bino,sungura,katuyoan,ndogo","katuyoan","j","3","html-keyboard-response","470","j","katuyoan","true","","4"
"908.8999999985099","","","","","3","html-slider-response","471","","","","4",""
"575","","","","","3","html-keyboard-response","472","","","","",""
"80671","sheet","juuya,bililhon,watu,kamantis","bililhon","v","3","html-keyboard-response","473","v","bililhon","true","","4"
"1494","","","","","3","html-slider-response","474","","","","2",""
"256","","","","","3","html-keyboard-response","475","","","","",""
"2042","puppet","mazishi,napulo,lamok,godoro","mazishi","f","3","html-keyboard-response","476","f","mazishi","true","","1"
"1813.6999999955297","","","","","3","html-slider-response","477","","","","4",""
"387","","","","","3","html-keyboard-response","478","","","","",""
"3565","poster","nchi,fedha,madungog,kasuko","madungog","j","3","html-keyboard-response","479","j","madungog","true","","4"
"1014.7999999970198","","","","","3","html-slider-response","480","","","","2",""
"309","","","","","3","html-keyboard-response","481","","","","",""
"2939","music","mraba,baiski,mageho,tumbo","baiski","v","3","html-keyboard-response","482","j","mageho","false","","4"
"861.8999999985099","","","","","3","html-slider-response","483","","","","4",""
"360","","","","","3","html-keyboard-response","484","","","","",""
"3215","key","miaka,goma,ahos,chombo","chombo","n","3","html-keyboard-response","485","n","chombo","true","","4"
"866.3999999985099","","","","","3","html-slider-response","486","","","","4",""
"660","","","","","3","html-keyboard-response","487","","","","",""
"2831","sock","ndoora,kimysa,mamba,mtirka","mamba","j","3","html-keyboard-response","488","j","mamba","true","","4"
"1174.3000000044703","","","","","3","html-slider-response","489","","","","5",""
"413","","","","","3","html-keyboard-response","490","","","","",""
"3233","marker","mapafu,maji,salita,atay","maji","v","3","html-keyboard-response","491","n","atay","false","","4"
"1508.2999999970198","","","","","3","html-slider-response","492","","","","1",""
"1570","","","","","3","html-keyboard-response","493","","","","",""
"3244","office","hazini,yatima,kuna,leso","leso","n","3","html-keyboard-response","494","n","leso","true","","4"
"866","","","","","3","html-slider-response","495","","","","4",""
"467","","","","","3","html-keyboard-response","496","","","","",""
"200430","shoe","nyeusi,hatua,uyoga,kama","uyoga","j","3","html-keyboard-response","497","j","uyoga","true","","4"
"1669.1000000014901","","","","","3","html-slider-response","498","","","","2",""
"434","","","","","3","html-keyboard-response","499","","","","",""
"2348","cop","bustani,jikoni,mechezo,bakus","mechezo","j","3","html-keyboard-response","500","j","mechezo","true","","4"
"1830.1999999955297","","","","","3","html-slider-response","501","","","","4",""
"241","","","","","3","html-keyboard-response","502","","","","",""
"3839","bank","kudhibi,silingan,tualya,ofisi","silingan","v","3","html-keyboard-response","503","v","silingan","true","","4"
"1454.2999999970198","","","","","3","html-slider-response","504","","","","5",""
"400","","","","","3","html-keyboard-response","505","","","","",""
"1691","letter","kifua,filimbi,chuma,uhuru","kifua","f","3","html-keyboard-response","506","f","kifua","true","","1"
"1219.1999999955297","","","","","3","html-slider-response","507","","","","4",""
"321","","","","","3","html-keyboard-response","508","","","","",""
"1201","dog","lubi,bahari,washia,kalamu","bahari","v","3","html-keyboard-response","509","v","bahari","true","","1"
"922.2999999970198","","","","","3","html-slider-response","510","","","","5",""
"364","","","","","3","html-keyboard-response","511","","","","",""
"140463","shop","nopya,kerida,samaki,ndezu","samaki","j","3","html-keyboard-response","512","n","ndezu","false","","4"
"1111.2000000029802","","","","","3","html-slider-response","513","","","","2",""
"414","","","","","3","html-keyboard-response","514","","","","",""
"4075","flower","tamasha,lobo,usiku,bega","bega","n","3","html-keyboard-response","515","n","bega","true","","4"
"1131.3999999985099","","","","","3","html-slider-response","516","","","","2",""
"470","","","","","3","html-keyboard-response","517","","","","",""
"1390","cigar","adhabu,ndugu,kuta,mlango","adhabu","f","3","html-keyboard-response","518","f","adhabu","true","","1"
"1285.7000000029802","","","","","3","html-slider-response","519","","","","4",""
"332","","","","","3","html-keyboard-response","520","","","","",""
"3179","hammer","napakyas,mekno,kitovu,layag","napakyas","f","3","html-keyboard-response","521","f","napakyas","true","","4"
"1057.6000000014901","","","","","3","html-slider-response","522","","","","4",""
"377","","","","","3","html-keyboard-response","523","","","","",""
"68168","fork","baboy,paghago,mgonjwa,gorisi","mgonjwa","j","3","html-keyboard-response","524","f","baboy","false","","4"
"970","","","","","3","html-slider-response","525","","","","2",""
"380","","","","","3","html-keyboard-response","526","","","","",""
"3162","sun","bendi,luha,basi,uongo","basi","j","3","html-keyboard-response","527","j","basi","true","","1"
"1334.5999999940395","","","","","3","html-slider-response","528","","","","5",""
"503","","","","","3","html-keyboard-response","529","","","","",""
"4334","ladder","mashua,mwanga,kamba,pangalan","pangalan","n","3","html-keyboard-response","530","n","pangalan","true","","4"
"1134.4000000059605","","","","","3","html-slider-response","531","","","","4",""
"492","","","","","3","html-keyboard-response","532","","","","",""
"1790","banana","kazi,kasamok,hagdan,twai","kazi","f","3","html-keyboard-response","533","f","kazi","true","","1"
"1438.7999999970198","","","","","3","html-slider-response","534","","","","4",""
"390","","","","","3","html-keyboard-response","535","","","","",""
"3979","pudding","aibu,abug,mpishi,iring","aibu","f","3","html-keyboard-response","536","f","aibu","true","","4"
"1089.7999999970198","","","","","3","html-slider-response","537","","","","4",""
"366","","","","","3","html-keyboard-response","538","","","","",""
"3935","body","tindashan,nyundu,jibini,kununa","tindashan","f","3","html-keyboard-response","539","f","tindashan","true","","4"
"1037.7000000029802","","","","","3","html-slider-response","540","","","","2",""
"398","","","","","3","html-keyboard-response","541","","","","",""
"4050","bed","kalipay,mapintas,haraka,starehe","mapintas","v","3","html-keyboard-response","542","f","kalipay","false","","4"
"1125.2999999970198","","","","","3","html-slider-response","543","","","","4",""
"983","","","","","3","html-keyboard-response","544","","","","",""
"4357","tissue","ugomvi,lamigas,kisiwa,katika","ugomvi","f","3","html-keyboard-response","545","f","ugomvi","true","","4"
"888.1000000014901","","","","","3","html-slider-response","546","","","","1",""
"454","","","","","3","html-keyboard-response","547","","","","",""
"2397","candle","gabi,geza,farasi,kupanda","geza","v","3","html-keyboard-response","548","f","gabi","false","","4"
"2165.5","","","","","3","html-slider-response","549","","","","4",""
"72366","","","","","3","html-keyboard-response","550","","","","",""
"1487","tomato","chupi,chupa,takatak,mvua","mvua","n","3","html-keyboard-response","551","n","mvua","true","","1"
"1244.6000000014901","","","","","3","html-slider-response","552","","","","5",""
"1522","","","","","3","html-keyboard-response","553","","","","",""
"3897","list","alizeti,kuzama,wingu,kaso","wingu","j","3","html-keyboard-response","554","j","wingu","true","","4"
"1223.2999999970198","","","","","3","html-slider-response","555","","","","4",""
"426","","","","","3","html-keyboard-response","556","","","","",""
"44093","olive","bata,siagi,jiwe,welder","jiwe","j","3","html-keyboard-response","557","f","bata","false","","4"
"2501.5","","","","","3","html-slider-response","558","","","","2",""
"1618","","","","","3","html-keyboard-response","559","","","","",""
"1462","picture","silya,chaki,asin,kubwa","kubwa","n","3","html-keyboard-response","560","n","kubwa","true","","1"
"1227.5","","","","","3","html-slider-response","561","","","","5",""
"267","","","","","3","html-keyboard-response","562","","","","",""
"67295","page","wimbo,wakala,ishiri,skina","wimbo","f","4","html-keyboard-response","888","f","wimbo","true","",""
"1066.7999999970198","","","","","4","html-slider-response","889","","","","2",""
"7290","sheet","juuya,bililhon,watu,kamantis","bililhon","v","4","html-keyboard-response","890","v","bililhon","true","",""
"1147.4000000059605","","","","","4","html-slider-response","891","","","","2",""
"2569","ladder","pangalan,mashua,mwanga,kamba","pangalan","f","4","html-keyboard-response","892","j","mwanga","false","",""
"1223.3000000044703","","","","","4","html-slider-response","893","","","","4",""
"139990","door","tena,soko,surali,nyota","surali","j","4","html-keyboard-response","894","f","tena","false","",""
"1143.8999999985099","","","","","4","html-slider-response","895","","","","2",""
"3398","spider","kamwe,bunyag,mkboa,atop","kamwe","f","4","html-keyboard-response","896","f","kamwe","true","",""
"1972.8999999985099","","","","","4","html-slider-response","897","","","","2",""
"3782","picture","silya,chaki,kubwa,asin","kubwa","j","4","html-keyboard-response","898","j","kubwa","true","",""
"1297.6000000014901","","","","","4","html-slider-response","899","","","","2",""
"1862","boat","hamsi,pombe,kitanda,agalon","agalon","n","4","html-keyboard-response","900","n","agalon","true","",""
"868.2000000029802","","","","","4","html-slider-response","901","","","","4",""
"2927","donkey","bloke,lalake,elfu,rombus","elfu","j","4","html-keyboard-response","902","j","elfu","true","",""
"919.8999999985099","","","","","4","html-slider-response","903","","","","4",""
"1754","book","kuhesa,picha,mali,mara","mali","j","4","html-keyboard-response","904","j","mali","true","",""
"1031.5","","","","","4","html-slider-response","905","","","","4",""
"95788","cup","dagat,shimoni,matumai,jeraha","matumai","j","4","html-keyboard-response","906","j","matumai","true","",""
"1197.5","","","","","4","html-slider-response","907","","","","2",""
"1779","sun","bendi,luha,uongo,basi","basi","n","4","html-keyboard-response","908","n","basi","true","",""
"1160","","","","","4","html-slider-response","909","","","","4",""
"2461","pudding","abug,mpishi,iring,aibu","aibu","n","4","html-keyboard-response","910","n","aibu","true","",""
"771.9000000059605","","","","","4","html-slider-response","911","","","","4",""
"1732","human","bado,kikapu,tinapay,punguza","tinapay","j","4","html-keyboard-response","912","j","tinapay","true","",""
"805.7000000029802","","","","","4","html-slider-response","913","","","","4",""
"1642","squirrel","hofu,mahugaw,ukweli,kichwa","hofu","f","4","html-keyboard-response","914","f","hofu","true","",""
"1004.2000000029802","","","","","4","html-slider-response","915","","","","4",""
"4120","park","tambok,pwani,bunifu,ihalas","bunifu","j","4","html-keyboard-response","916","f","tambok","false","",""
"1014.7999999970198","","","","","4","html-slider-response","917","","","","2",""
"2841","poster","nchi,fedha,madungog,kasuko","madungog","j","4","html-keyboard-response","918","j","madungog","true","",""
"1227.2000000029802","","","","","4","html-slider-response","919","","","","1",""
"2559","wolf","kaburi,ndizi,lugha,mchuzi","lugha","j","4","html-keyboard-response","920","n","mchuzi","false","",""
"1023.2000000029802","","","","","4","html-slider-response","921","","","","2",""
"3524","cat","neyemba,baki,paghukom,akili","paghukom","j","4","html-keyboard-response","922","j","paghukom","true","",""
"1010.8999999985099","","","","","4","html-slider-response","923","","","","4",""
"1948","fish","bala,baho,imani,buli","buli","n","4","html-keyboard-response","924","n","buli","true","",""
"834.6999999955297","","","","","4","html-slider-response","925","","","","4",""
"3851","tooth","kabalaka,kijiko,uadui,pahiyum","kabalaka","f","4","html-keyboard-response","926","n","pahiyum","false","",""
"914.2999999970198","","","","","4","html-slider-response","927","","","","4",""
"3286","cave","ganti,maisha,kesho,nyundo","kesho","j","4","html-keyboard-response","928","f","ganti","false","",""
"1016.1000000014901","","","","","4","html-slider-response","929","","","","4",""
"3721","lamp","afya,daub,bilaska,mbolea","afya","f","4","html-keyboard-response","930","j","bilaska","false","",""
"884.7999999970198","","","","","4","html-slider-response","931","","","","2",""
"5416","banana","kasamok,hagdan,twai,kazi","kazi","n","4","html-keyboard-response","932","n","kazi","true","",""
"915.1000000014901","","","","","4","html-slider-response","933","","","","4",""
"1423","bonfire","goti,mwezi,mfuko,kusanya","goti","f","4","html-keyboard-response","934","f","goti","true","",""
"888.8000000044703","","","","","4","html-slider-response","935","","","","4",""
"2462","cop","bustani,mechezo,jikoni,bakus","mechezo","v","4","html-keyboard-response","936","v","mechezo","true","",""
"758","","","","","4","html-slider-response","937","","","","4",""
"2795","marker","maji,mapafu,salita,atay","maji","f","4","html-keyboard-response","938","f","maji","true","",""
"1708.1000000014901","","","","","4","html-slider-response","939","","","","4",""
"234306","window","nanga,kweli,kujenga,umaga","kweli","v","4","html-keyboard-response","940","n","umaga","false","",""
"1146.8999999985099","","","","","4","html-slider-response","941","","","","1",""
"3403","body","nyundu,jibini,tindashan,kununa","tindashan","j","4","html-keyboard-response","942","j","tindashan","true","",""
"929.5999999940395","","","","","4","html-slider-response","943","","","","2",""
"4054","apple","ukame,kisu,estante,edad","kisu","v","4","html-keyboard-response","944","v","kisu","true","",""
"1431","","","","","4","html-slider-response","945","","","","1",""
"1763","salmon","mzungu,seri,baharia,sensilyo","sensilyo","n","4","html-keyboard-response","946","n","sensilyo","true","",""
"1470.8999999985099","","","","","4","html-slider-response","947","","","","4",""
"3054","bed","kalipay,haraka,mapintas,starehe","mapintas","j","4","html-keyboard-response","948","f","kalipay","false","",""
"1305.6000000014901","","","","","4","html-slider-response","949","","","","4",""
"2487","berry","abogado,nogozi,kinywa,kofia","kofia","n","4","html-keyboard-response","950","n","kofia","true","",""
"1270","","","","","4","html-slider-response","951","","","","2",""
"3556","mirror","sulagma,rangi,kanding,furaha","sulagma","f","4","html-keyboard-response","952","f","sulagma","true","",""
"1193.3999999985099","","","","","4","html-slider-response","953","","","","4",""
"2017","flag","ndege,mkate,kawa,trekta","trekta","n","4","html-keyboard-response","954","n","trekta","true","",""
"1170.6000000014901","","","","","4","html-slider-response","955","","","","5",""
"3661","shoulder","kelele,ndaniya,mkuu,guruwe","mkuu","j","4","html-keyboard-response","956","j","mkuu","true","",""
"1098.7000000029802","","","","","4","html-slider-response","957","","","","4",""
"3624","tissue","lamigas,ugomvi,kisiwa,katika","ugomvi","v","4","html-keyboard-response","958","n","katika","false","",""
"1311.5","","","","","4","html-slider-response","959","","","","2",""
"32693","notebook","msitu,kila,kemia,mdudu","kemia","j","4","html-keyboard-response","960","n","mdudu","false","",""
"1570.7000000029802","","","","","4","html-slider-response","961","","","","2",""
"124051","snake","pagtukod,jansa,karon,mvringo","pagtukod","f","4","html-keyboard-response","962","f","pagtukod","true","",""
"1236.2999999970198","","","","","4","html-slider-response","963","","","","1",""
"58340","finger","simu,moyo,sufuria,lima","moyo","v","4","html-keyboard-response","964","f","simu","false","",""
"1249.1000000089407","","","","","4","html-slider-response","965","","","","2",""
"3663","basket","kumbuka,kumba,utepe,hasira","kumba","v","4","html-keyboard-response","966","n","hasira","false","",""
"855.4000000059605","","","","","4","html-slider-response","967","","","","2",""
"2667","curtain","lisud,mchanga,bulwawan,chubani","mchanga","v","4","html-keyboard-response","968","v","mchanga","true","",""
"1316.6000000089407","","","","","4","html-slider-response","969","","","","4",""
"3441","perfume","bino,katuyoan,sungura,ndogo","katuyoan","v","4","html-keyboard-response","970","f","bino","false","",""
"1285.5999999940395","","","","","4","html-slider-response","971","","","","1",""
"1951","key","miaka,goma,chombo,ahos","chombo","j","4","html-keyboard-response","972","j","chombo","true","",""
"925.5","","","","","4","html-slider-response","973","","","","4",""
"2020","olive","bata,jiwe,siagi,welder","jiwe","v","4","html-keyboard-response","974","v","jiwe","true","",""
"1089.4000000059605","","","","","4","html-slider-response","975","","","","4",""
"3243","rose","singizi,mwanake,amani,paghalad","paghalad","n","4","html-keyboard-response","976","n","paghalad","true","",""
"2039.300000011921","","","","","4","html-slider-response","977","","","","1",""
"16413","bridge","sahani,daima,ngono,panya","sahani","f","4","html-keyboard-response","978","n","panya","false","",""
"1037.9000000059605","","","","","4","html-slider-response","979","","","","1",""
"65862","hill","kushoto,matumbo,kukimba,sweta","matumbo","v","4","html-keyboard-response","980","v","matumbo","true","",""
"1797.2999999970198","","","","","4","html-slider-response","981","","","","2",""
"4025","letter","filimbi,chuma,kifua,uhuru","kifua","j","4","html-keyboard-response","982","v","chuma","false","",""
"1937.5999999940395","","","","","4","html-slider-response","983","","","","1",""
"2233","sock","ndoora,mamba,kimysa,mtirka","mamba","v","4","html-keyboard-response","984","v","mamba","true","",""
"1155.7999999970198","","","","","4","html-slider-response","985","","","","4",""
"2187","fork","baboy,mgonjwa,paghago,gorisi","mgonjwa","v","4","html-keyboard-response","986","f","baboy","false","",""
"1308.1000000089407","","","","","4","html-slider-response","987","","","","4",""
"2444","box","kuacha,adui,rafiki,kitande","adui","v","4","html-keyboard-response","988","v","adui","true","",""
"1207.300000011921","","","","","4","html-slider-response","989","","","","1",""
"3968","gift","baba,nyange,baso,pagtawag","pagtawag","n","4","html-keyboard-response","990","j","baso","false","",""
"1168.3999999910593","","","","","4","html-slider-response","991","","","","4",""
"4407","bucket","kiatu,baga,ijayo,init","kiatu","f","4","html-keyboard-response","992","f","kiatu","true","",""
"1141.6000000089407","","","","","4","html-slider-response","993","","","","2",""
"2736","shop","nopya,samaki,kerida,ndezu","samaki","v","4","html-keyboard-response","994","n","ndezu","false","",""
"1682","","","","","4","html-slider-response","995","","","","1",""
"2045","puppet","napulo,mazishi,lamok,godoro","mazishi","v","4","html-keyboard-response","996","v","mazishi","true","",""
"1000.7999999970198","","","","","4","html-slider-response","997","","","","4",""
"17745","nose","gubat,kopa,kidole,sehemu","sehemu","n","4","html-keyboard-response","998","f","gubat","false","",""
"1267.800000011921","","","","","4","html-slider-response","999","","","","1",""
"3819","music","mraba,mageho,baiski,tumbo","baiski","j","4","html-keyboard-response","1000","j","baiski","true","",""
"1295.2999999970198","","","","","4","html-slider-response","1001","","","","2",""
"3176","dog","lubi,washia,kalamu,bahari","bahari","n","4","html-keyboard-response","1002","n","bahari","true","",""
"1372.6000000089407","","","","","4","html-slider-response","1003","","","","2",""
"2239","eel","ishara,kunywa,kabuang,msumari","msumari","n","4","html-keyboard-response","1004","n","msumari","true","",""
"983.9000000059605","","","","","4","html-slider-response","1005","","","","1",""
"2290","number","shule,mundamo,kengele,choori","mundamo","v","4","html-keyboard-response","1006","n","choori","false","",""
"1236.9000000059605","","","","","4","html-slider-response","1007","","","","4",""
"2167","tomato","chupi,chupa,takatak,mvua","mvua","n","4","html-keyboard-response","1008","j","takatak","false","",""
"1049.9000000059605","","","","","4","html-slider-response","1009","","","","1",""
"1824","coffin","kioo,barua,tubag,hulma","kioo","f","4","html-keyboard-response","1010","f","kioo","true","",""
"1013.9000000059605","","","","","4","html-slider-response","1011","","","","5",""
"3615","knee","duka,mvuke,kubale,bili","duka","f","4","html-keyboard-response","1012","f","duka","true","",""
"811","","","","","4","html-slider-response","1013","","","","4",""
"1699","woman","pagtabon,bandari,bituin,kovuli","pagtabon","f","4","html-keyboard-response","1014","f","pagtabon","true","",""
"773.2999999970198","","","","","4","html-slider-response","1015","","","","4",""
"2993","stone","ulimwengu,wingi,mkasi,asili","wingi","v","4","html-keyboard-response","1016","j","mkasi","false","",""
"845.0999999940395","","","","","4","html-slider-response","1017","","","","4",""
"1788","bread","dari,kaili,dizeli,bugas","dari","f","4","html-keyboard-response","1018","f","dari","true","",""
"1142.0999999940395","","","","","4","html-slider-response","1019","","","","5",""
"2662","triangle","kihozi,bentaha,kasadpan,liog","kasadpan","j","4","html-keyboard-response","1020","j","kasadpan","true","",""
"1283.5","","","","","4","html-slider-response","1021","","","","2",""
"3980","scissors","duga,tanuri,mtawa,suga","tanuri","v","4","html-keyboard-response","1022","v","tanuri","true","",""
"1279.800000011921","","","","","4","html-slider-response","1023","","","","4",""
"1618","giraffe","mahitabo,daraja,jumatu,hangyo","mahitabo","f","4","html-keyboard-response","1024","f","mahitabo","true","",""
"1318","","","","","4","html-slider-response","1025","","","","1",""
"3088","flower","tamasha,lobo,bega,usiku","bega","j","4","html-keyboard-response","1026","j","bega","true","",""
"1212.5","","","","","4","html-slider-response","1027","","","","2",""
"2437","candle","gabi,farasi,geza,kupanda","geza","j","4","html-keyboard-response","1028","j","geza","true","",""
"1222.5","","","","","4","html-slider-response","1029","","","","4",""
"1720","mother","babaye,kahawa,mbuzi,jokofu","babaye","f","4","html-keyboard-response","1030","f","babaye","true","",""
"1395.7000000029802","","","","","4","html-slider-response","1031","","","","5",""
"3368","towel","tembo,funzi,pagpalit,pito","pagpalit","j","4","html-keyboard-response","1032","f","tembo","false","",""
"1189.5","","","","","4","html-slider-response","1033","","","","1",""
"2497","elephant","petye,pagduol,kito,suka","kito","j","4","html-keyboard-response","1034","j","kito","true","",""
"1161.2000000029802","","","","","4","html-slider-response","1035","","","","5",""
"2879","shelf","bungtod,pamahaw,kadaot,awit","pamahaw","v","4","html-keyboard-response","1036","f","bungtod","false","",""
"1075.0999999940395","","","","","4","html-slider-response","1037","","","","2",""
"2164","mosquito","martilyo,isda,taras,gutom","martilyo","f","4","html-keyboard-response","1038","f","martilyo","true","",""
"1075.4000000059605","","","","","4","html-slider-response","1039","","","","4",""
"2803","column","pundok,dila,pala,ufagio","ufagio","n","4","html-keyboard-response","1040","n","ufagio","true","",""
"1128.7999999970198","","","","","4","html-slider-response","1041","","","","4",""
"3974","pants","pintal,chuki,hari,haki","haki","n","4","html-keyboard-response","1042","n","haki","true","",""
"1275.2999999970198","","","","","4","html-slider-response","1043","","","","5",""
"2264","list","alizeti,kuzama,kaso,wingu","wingu","n","4","html-keyboard-response","1044","j","kaso","false","",""
"1087.2000000029802","","","","","4","html-slider-response","1045","","","","1",""
"2779","bank","kudhibi,silingan,tualya,ofisi","silingan","v","4","html-keyboard-response","1046","v","silingan","true","",""
"1034.7999999970198","","","","","4","html-slider-response","1047","","","","4",""
"189959","clock","kartasi,mbwa,abang,osha","mbwa","v","4","html-keyboard-response","1048","f","kartasi","false","",""
"1837.0999999940395","","","","","4","html-slider-response","1049","","","","1",""
"3021","ceiling","kugita,maua,kawaida,rayna","maua","v","4","html-keyboard-response","1050","f","kugita","false","",""
"846","","","","","4","html-slider-response","1051","","","","2",""
"2067","train","sayari,itik,dakika,mungu","sayari","f","4","html-keyboard-response","1052","f","sayari","true","",""
"1068.699999988079","","","","","4","html-slider-response","1053","","","","4",""
"2219","magazine","gundi,mchawi,bahandi,kiti","kiti","n","4","html-keyboard-response","1054","n","kiti","true","",""
"1091.2999999970198","","","","","4","html-slider-response","1055","","","","5",""
"3464","office","hazini,yatima,kuna,leso","leso","n","4","html-keyboard-response","1056","n","leso","true","",""
"1324","","","","","4","html-slider-response","1057","","","","4",""
"2736","wheel","punda,bafuni,tawo,baadaye","bafuni","v","4","html-keyboard-response","1058","v","bafuni","true","",""
"1031.8999999910593","","","","","4","html-slider-response","1059","","","","1",""
"4070","spoon","betri,nzuri,ngazi,pagsulod","pagsulod","n","4","html-keyboard-response","1060","f","betri","false","",""
"940.8999999910593","","","","","4","html-slider-response","1061","","","","2",""
"1971","hammer","mekno,kitovu,napakyas,layag","napakyas","j","4","html-keyboard-response","1062","j","napakyas","true","",""
"1214.5999999940395","","","","","4","html-slider-response","1063","","","","2",""
"3721","cigar","ndugu,kuta,mlango,adhabu","adhabu","n","4","html-keyboard-response","1064","n","adhabu","true","",""
"1438.4000000059605","","","","","4","html-slider-response","1065","","","","1",""
"2957","shoe","uyoga,nyeusi,hatua,kama","uyoga","f","4","html-keyboard-response","1066","n","kama","false","",""
"927.2999999970198","","","","","4","html-slider-response","1067","","","","1",""
"4347","list","alizeti,wingu,kuzama,kaso","wingu","v","5","html-keyboard-response","1069","n","kaso","false","",""
"1372.5","","","","","5","html-slider-response","1070","","","","1",""
"2415","number","mundamo,shule,kengele,choori","mundamo","f","5","html-keyboard-response","1071","n","choori","false","",""
"1312.5","","","","","5","html-slider-response","1072","","","","2",""
"2366","apple","ukame,estante,kisu,edad","kisu","j","5","html-keyboard-response","1073","j","kisu","true","",""
"952.2000000029802","","","","","5","html-slider-response","1074","","","","2",""
"3447","knee","mvuke,kubale,duka,bili","duka","j","5","html-keyboard-response","1075","j","duka","true","",""
"1947","","","","","5","html-slider-response","1076","","","","4",""
"2794","tooth","kijiko,uadui,kabalaka,pahiyum","kabalaka","j","5","html-keyboard-response","1077","j","kabalaka","true","",""
"1400.2000000029802","","","","","5","html-slider-response","1078","","","","1",""
"2597","berry","abogado,nogozi,kinywa,kofia","kofia","n","5","html-keyboard-response","1079","n","kofia","true","",""
"928.2000000029802","","","","","5","html-slider-response","1080","","","","2",""
"2705","bridge","daima,ngono,panya,sahani","sahani","n","5","html-keyboard-response","1081","n","sahani","true","",""
"901.2000000029802","","","","","5","html-slider-response","1082","","","","2",""
"57998","perfume","bino,katuyoan,sungura,ndogo","katuyoan","v","5","html-keyboard-response","1083","f","bino","false","",""
"1113.3999999910593","","","","","5","html-slider-response","1084","","","","2",""
"1861","ladder","pangalan,mashua,mwanga,kamba","pangalan","f","5","html-keyboard-response","1085","f","pangalan","true","",""
"1511.3999999910593","","","","","5","html-slider-response","1086","","","","2",""
"2843","pants","pintal,haki,chuki,hari","haki","v","5","html-keyboard-response","1087","v","haki","true","",""
"1551.2000000029802","","","","","5","html-slider-response","1088","","","","4",""
"1558","salmon","mzungu,seri,baharia,sensilyo","sensilyo","n","5","html-keyboard-response","1089","n","sensilyo","true","",""
"1349.7000000029802","","","","","5","html-slider-response","1090","","","","5",""
"33066","coffin","kioo,barua,tubag,hulma","kioo","f","5","html-keyboard-response","1091","f","kioo","true","",""
"2686.7000000029802","","","","","5","html-slider-response","1092","","","","4",""
"21173","park","tambok,pwani,ihalas,bunifu","bunifu","n","5","html-keyboard-response","1093","f","tambok","false","",""
"1328.2000000029802","","","","","5","html-slider-response","1094","","","","2",""
"4225","giraffe","daraja,jumatu,hangyo,mahitabo","mahitabo","n","5","html-keyboard-response","1095","n","mahitabo","true","",""
"1432.7000000029802","","","","","5","html-slider-response","1096","","","","4",""
"4682","mirror","rangi,sulagma,kanding,furaha","sulagma","v","5","html-keyboard-response","1097","v","sulagma","true","",""
"980.8999999910593","","","","","5","html-slider-response","1098","","","","4",""
"27497","ceiling","maua,kugita,kawaida,rayna","maua","f","5","html-keyboard-response","1099","j","kawaida","false","",""
"1399","","","","","5","html-slider-response","1100","","","","2",""
"2099","marker","mapafu,salita,atay,maji","maji","n","5","html-keyboard-response","1101","n","maji","true","",""
"1148","","","","","5","html-slider-response","1102","","","","4",""
"1701","sock","mamba,ndoora,kimysa,mtirka","mamba","f","5","html-keyboard-response","1103","f","mamba","true","",""
"844","","","","","5","html-slider-response","1104","","","","4",""
"1933","cop","mechezo,bustani,jikoni,bakus","mechezo","f","5","html-keyboard-response","1105","f","mechezo","true","",""
"936.2999999970198","","","","","5","html-slider-response","1106","","","","4",""
"3807","gift","baba,nyange,pagtawag,baso","pagtawag","j","5","html-keyboard-response","1107","n","baso","false","",""
"1317.2999999970198","","","","","5","html-slider-response","1108","","","","4",""
"4619","notebook","msitu,kila,mdudu,kemia","kemia","n","5","html-keyboard-response","1109","j","mdudu","false","",""
"1122.5","","","","","5","html-slider-response","1110","","","","5",""
"119687","bank","kudhibi,tualya,ofisi,silingan","silingan","n","5","html-keyboard-response","1111","n","silingan","true","",""
"1092.2000000029802","","","","","5","html-slider-response","1112","","","","4",""
"3966","letter","filimbi,chuma,kifua,uhuru","kifua","j","5","html-keyboard-response","1113","n","uhuru","false","",""
"1002.6000000089407","","","","","5","html-slider-response","1114","","","","2",""
"2429","candle","geza,gabi,farasi,kupanda","geza","f","5","html-keyboard-response","1115","f","geza","true","",""
"1247.7000000029802","","","","","5","html-slider-response","1116","","","","5",""
"2697","bread","dari,kaili,dizeli,bugas","dari","f","5","html-keyboard-response","1117","f","dari","true","",""
"1131.8999999910593","","","","","5","html-slider-response","1118","","","","4",""
"4832","snake","jansa,karon,pagtukod,mvringo","pagtukod","j","5","html-keyboard-response","1119","v","karon","false","",""
"1311.7000000029802","","","","","5","html-slider-response","1120","","","","4",""
"2090","rose","singizi,mwanake,paghalad,amani","paghalad","j","5","html-keyboard-response","1121","n","amani","false","",""
"1653.4000000059605","","","","","5","html-slider-response","1122","","","","1",""
"4344","hill","matumbo,kushoto,kukimba,sweta","matumbo","f","5","html-keyboard-response","1123","f","matumbo","true","",""
"1545.199999988079","","","","","5","html-slider-response","1124","","","","1",""
"2216","train","itik,dakika,mungu,sayari","sayari","n","5","html-keyboard-response","1125","n","sayari","true","",""
"877.4000000059605","","","","","5","html-slider-response","1126","","","","2",""
"2892","shop","nopya,kerida,samaki,ndezu","samaki","j","5","html-keyboard-response","1127","j","samaki","true","",""
"860.2000000029802","","","","","5","html-slider-response","1128","","","","2",""
"3947","nose","gubat,kopa,sehemu,kidole","sehemu","j","5","html-keyboard-response","1129","v","kopa","false","",""
"1182","","","","","5","html-slider-response","1130","","","","2",""
"2821","boat","hamsi,pombe,agalon,kitanda","agalon","j","5","html-keyboard-response","1131","j","agalon","true","",""
"3012.5","","","","","5","html-slider-response","1132","","","","4",""
"3082","body","nyundu,jibini,kununa,tindashan","tindashan","n","5","html-keyboard-response","1133","n","tindashan","true","",""
"1079.1000000089407","","","","","5","html-slider-response","1134","","","","4",""
"1650","bed","kalipay,mapintas,haraka,starehe","mapintas","v","5","html-keyboard-response","1135","f","kalipay","false","",""
"1198","","","","","5","html-slider-response","1136","","","","5",""
"1723","squirrel","mahugaw,hofu,ukweli,kichwa","hofu","v","5","html-keyboard-response","1137","v","hofu","true","",""
"1484.9000000059605","","","","","5","html-slider-response","1138","","","","5",""
"2190","window","nanga,kujenga,kweli,umaga","kweli","j","5","html-keyboard-response","1139","v","kujenga","false","",""
"1050.9000000059605","","","","","5","html-slider-response","1140","","","","2",""
"1594","bonfire","mwezi,mfuko,kusanya,goti","goti","n","5","html-keyboard-response","1141","n","goti","true","",""
"895.2000000029802","","","","","5","html-slider-response","1142","","","","5",""
"1268","fish","bala,baho,imani,buli","buli","n","5","html-keyboard-response","1143","n","buli","true","",""
"827.1000000089407","","","","","5","html-slider-response","1144","","","","5",""
"2663","cat","neyemba,paghukom,baki,akili","paghukom","v","5","html-keyboard-response","1145","v","paghukom","true","",""
"950.4000000059605","","","","","5","html-slider-response","1146","","","","4",""
"3435","spider","bunyag,kamwe,mkboa,atop","kamwe","v","5","html-keyboard-response","1147","v","kamwe","true","",""
"1121.699999988079","","","","","5","html-slider-response","1148","","","","2",""
"2381","eel","msumari,ishara,kunywa,kabuang","msumari","f","5","html-keyboard-response","1149","v","ishara","false","",""
"1060.0999999940395","","","","","5","html-slider-response","1150","","","","1",""
"2871","woman","bandari,bituin,kovuli,pagtabon","pagtabon","n","5","html-keyboard-response","1151","n","pagtabon","true","",""
"1104.2999999970198","","","","","5","html-slider-response","1152","","","","4",""
"1788","magazine","gundi,mchawi,kiti,bahandi","kiti","j","5","html-keyboard-response","1153","j","kiti","true","",""
"928.5","","","","","5","html-slider-response","1154","","","","4",""
"1920","pudding","abug,mpishi,iring,aibu","aibu","n","5","html-keyboard-response","1155","n","aibu","true","",""
"1110.5999999940395","","","","","5","html-slider-response","1156","","","","5",""
"1931","lamp","daub,afya,bilaska,mbolea","afya","v","5","html-keyboard-response","1157","v","afya","true","",""
"1084.699999988079","","","","","5","html-slider-response","1158","","","","1",""
"1905","cave","ganti,maisha,kesho,nyundo","kesho","j","5","html-keyboard-response","1159","f","ganti","false","",""
"1655.7000000029802","","","","","5","html-slider-response","1160","","","","2",""
"2307","shoulder","kelele,ndaniya,guruwe,mkuu","mkuu","n","5","html-keyboard-response","1161","n","mkuu","true","",""
"1065.7000000029802","","","","","5","html-slider-response","1162","","","","4",""
"7818","stone","ulimwengu,mkasi,asili,wingi","wingi","n","5","html-keyboard-response","1163","v","mkasi","false","",""
"1181.800000011921","","","","","5","html-slider-response","1164","","","","2",""
"2346","column","pundok,ufagio,dila,pala","ufagio","v","5","html-keyboard-response","1165","v","ufagio","true","",""
"1103.4000000059605","","","","","5","html-slider-response","1166","","","","4",""
"2182","page","wakala,ishiri,skina,wimbo","wimbo","n","5","html-keyboard-response","1167","n","wimbo","true","",""
"1215.5","","","","","5","html-slider-response","1168","","","","2",""
"40831","shoe","nyeusi,uyoga,hatua,kama","uyoga","v","5","html-keyboard-response","1169","v","uyoga","true","",""
"912.3999999910593","","","","","5","html-slider-response","1170","","","","2",""
"2397","clock","kartasi,abang,osha,mbwa","mbwa","n","5","html-keyboard-response","1171","n","mbwa","true","",""
"1099.7000000029802","","","","","5","html-slider-response","1172","","","","2",""
"2049","towel","tembo,pagpalit,funzi,pito","pagpalit","v","5","html-keyboard-response","1173","f","tembo","false","",""
"1052.0999999940395","","","","","5","html-slider-response","1174","","","","2",""
"2899","tomato","chupi,chupa,mvua,takatak","mvua","j","5","html-keyboard-response","1175","j","mvua","true","",""
"1047.2000000029802","","","","","5","html-slider-response","1176","","","","2",""
"3712","bucket","baga,kiatu,ijayo,init","kiatu","v","5","html-keyboard-response","1177","f","baga","false","",""
"862","","","","","5","html-slider-response","1178","","","","4",""
"2281","finger","moyo,simu,sufuria,lima","moyo","f","5","html-keyboard-response","1179","v","simu","false","",""
"1215.800000011921","","","","","5","html-slider-response","1180","","","","2",""
"2439","mother","kahawa,babaye,mbuzi,jokofu","babaye","v","5","html-keyboard-response","1181","v","babaye","true","",""
"1421.7000000029802","","","","","5","html-slider-response","1182","","","","5",""
"1486","human","tinapay,bado,kikapu,punguza","tinapay","f","5","html-keyboard-response","1183","f","tinapay","true","",""
"887.7999999970198","","","","","5","html-slider-response","1184","","","","5",""
"1605","sun","bendi,luha,basi,uongo","basi","j","5","html-keyboard-response","1185","j","basi","true","",""
"1130","","","","","5","html-slider-response","1186","","","","5",""
"2337","fork","baboy,paghago,mgonjwa,gorisi","mgonjwa","j","5","html-keyboard-response","1187","f","baboy","false","",""
"1221.699999988079","","","","","5","html-slider-response","1188","","","","2",""
"2082","donkey","bloke,lalake,elfu,rombus","elfu","j","5","html-keyboard-response","1189","j","elfu","true","",""
"1143.7999999970198","","","","","5","html-slider-response","1190","","","","5",""
"3089","wolf","kaburi,ndizi,lugha,mchuzi","lugha","j","5","html-keyboard-response","1191","n","mchuzi","false","",""
"1360.5999999940395","","","","","5","html-slider-response","1192","","","","1",""
"2404","cigar","ndugu,adhabu,kuta,mlango","adhabu","v","5","html-keyboard-response","1193","v","adhabu","true","",""
"883.9000000059605","","","","","5","html-slider-response","1194","","","","2",""
"2076","olive","jiwe,bata,siagi,welder","jiwe","f","5","html-keyboard-response","1195","f","jiwe","true","",""
"1815.4000000059605","","","","","5","html-slider-response","1196","","","","4",""
"1944","key","chombo,miaka,goma,ahos","chombo","f","5","html-keyboard-response","1197","f","chombo","true","",""
"1027.2999999970198","","","","","5","html-slider-response","1198","","","","5",""
"2347","door","surali,tena,soko,nyota","surali","f","5","html-keyboard-response","1199","f","surali","true","",""
"1265","","","","","5","html-slider-response","1200","","","","1",""
"3798","wheel","punda,tawo,baadaye,bafuni","bafuni","n","5","html-keyboard-response","1201","j","baadaye","false","",""
"1209.7000000029802","","","","","5","html-slider-response","1202","","","","2",""
"17980","basket","kumba,kumbuka,utepe,hasira","kumba","f","5","html-keyboard-response","1203","f","kumba","true","",""
"1124.7000000029802","","","","","5","html-slider-response","1204","","","","2",""
"2025","elephant","petye,kito,pagduol,suka","kito","v","5","html-keyboard-response","1205","v","kito","true","",""
"1488","","","","","5","html-slider-response","1206","","","","5",""
"2035","office","hazini,yatima,kuna,leso","leso","n","5","html-keyboard-response","1207","n","leso","true","",""
"1298.3999999910593","","","","","5","html-slider-response","1208","","","","4",""
"3801","music","baiski,mraba,mageho,tumbo","baiski","f","5","html-keyboard-response","1209","f","baiski","true","",""
"1059.1000000089407","","","","","5","html-slider-response","1210","","","","4",""
"23140","tissue","lamigas,kisiwa,ugomvi,katika","ugomvi","j","5","html-keyboard-response","1211","n","katika","false","",""
"1330.9000000059605","","","","","5","html-slider-response","1212","","","","1",""
"2919","curtain","lisud,bulwawan,mchanga,chubani","mchanga","j","5","html-keyboard-response","1213","j","mchanga","true","",""
"1211.7999999970198","","","","","5","html-slider-response","1214","","","","4",""
"1950","flag","ndege,mkate,kawa,trekta","trekta","n","5","html-keyboard-response","1215","n","trekta","true","",""
"849.8000000119209","","","","","5","html-slider-response","1216","","","","5",""
"5919","dog","bahari,lubi,washia,kalamu","bahari","f","5","html-keyboard-response","1217","f","bahari","true","",""
"1873.7999999970198","","","","","5","html-slider-response","1218","","","","2",""
"2748","cup","dagat,shimoni,matumai,jeraha","matumai","j","5","html-keyboard-response","1219","f","dagat","false","",""
"994.2999999970198","","","","","5","html-slider-response","1220","","","","1",""
"1791","sheet","juuya,watu,bililhon,kamantis","bililhon","j","5","html-keyboard-response","1221","j","bililhon","true","",""
"1491.2000000029802","","","","","5","html-slider-response","1222","","","","4",""
"3581","spoon","betri,nzuri,ngazi,pagsulod","pagsulod","n","5","html-keyboard-response","1223","f","betri","false","",""
"1013.9000000059605","","","","","5","html-slider-response","1224","","","","2",""
"2927","flower","tamasha,lobo,bega,usiku","bega","j","5","html-keyboard-response","1225","j","bega","true","",""
"1150","","","","","5","html-slider-response","1226","","","","1",""
"3535","picture","silya,chaki,kubwa,asin","kubwa","j","5","html-keyboard-response","1227","f","silya","false","",""
"914.5","","","","","5","html-slider-response","1228","","","","1",""
"1706","puppet","mazishi,napulo,lamok,godoro","mazishi","f","5","html-keyboard-response","1229","f","mazishi","true","",""
"1102.5","","","","","5","html-slider-response","1230","","","","5",""
"3016","banana","kasamok,kazi,hagdan,twai","kazi","v","5","html-keyboard-response","1231","v","kazi","true","",""
"1462.1000000089407","","","","","5","html-slider-response","1232","","","","5",""
"2959","book","kuhesa,picha,mali,mara","mali","j","5","html-keyboard-response","1233","j","mali","true","",""
"1528","","","","","5","html-slider-response","1234","","","","5",""
"2193","triangle","kihozi,bentaha,liog,kasadpan","kasadpan","n","5","html-keyboard-response","1235","n","kasadpan","true","",""
"931.5999999940395","","","","","5","html-slider-response","1236","","","","4",""
"3429","poster","nchi,fedha,kasuko,madungog","madungog","n","5","html-keyboard-response","1237","n","madungog","true","",""
"1529.7000000029802","","","","","5","html-slider-response","1238","","","","2",""
"166789","box","kuacha,adui,rafiki,kitande","adui","v","5","html-keyboard-response","1239","v","adui","true","",""
"1125.5","","","","","5","html-slider-response","1240","","","","1",""
"1778","mosquito","isda,taras,gutom,martilyo","martilyo","n","5","html-keyboard-response","1241","n","martilyo","true","",""
"960","","","","","5","html-slider-response","1242","","","","4",""
"3493","shelf","pamahaw,bungtod,kadaot,awit","pamahaw","f","5","html-keyboard-response","1243","n","awit","false","",""
"1553.5999999940395","","","","","5","html-slider-response","1244","","","","2",""
"22448","scissors","tanuri,duga,mtawa,suga","tanuri","f","5","html-keyboard-response","1245","v","duga","false","",""
"1394.3999999910593","","","","","5","html-slider-response","1246","","","","2",""
"1838","hammer","mekno,kitovu,layag,napakyas","napakyas","n","5","html-keyboard-response","1247","n","napakyas","true","",""
"1209.0999999940395","","","","","5","html-slider-response","1248","","","","2",""
