"rt","en_word","options","swa_word","correct_answer","phase","trial_type","trial_index","input_answer","input_word","accuracy","certainty","amt_choices"
"4338","bonfire","goti,mwezi,mfuko,kusanya","goti","f","2","html-keyboard-response","106","f","goti","true","",""
"2961.2999999523163","","","","","2","html-slider-response","107","","","","1",""
"3465","flower","tamasha,bega,lobo,usiku","bega","v","2","html-keyboard-response","108","v","bega","true","",""
"2023.2999999523163","","","","","2","html-slider-response","109","","","","1",""
"3828","column","ufagio,pundok,dila,pala","ufagio","f","2","html-keyboard-response","110","f","ufagio","true","",""
"1908.7999999523163","","","","","2","html-slider-response","111","","","","2",""
"5046","music","mraba,baiski,mageho,tumbo","baiski","v","2","html-keyboard-response","112","j","mageho","false","",""
"1792.2000000476837","","","","","2","html-slider-response","113","","","","1",""
"3624","spider","bunyag,mkboa,kamwe,atop","kamwe","j","2","html-keyboard-response","114","v","mkboa","false","",""
"2252.7999999523163","","","","","2","html-slider-response","115","","","","1",""
"4527","fork","baboy,paghago,gorisi,mgonjwa","mgonjwa","n","2","html-keyboard-response","116","f","baboy","false","",""
"1883.8999998569489","","","","","2","html-slider-response","117","","","","1",""
"4635","mosquito","isda,taras,martilyo,gutom","martilyo","j","2","html-keyboard-response","118","j","martilyo","true","",""
"6965.5","","","","","2","html-slider-response","119","","","","3",""
"10333","banana","kasamok,hagdan,kazi,twai","kazi","j","2","html-keyboard-response","120","v","hagdan","false","",""
"5177","","","","","2","html-slider-response","121","","","","3",""
"7073","cup","matumai,dagat,shimoni,jeraha","matumai","f","2","html-keyboard-response","122","f","matumai","true","",""
"1963.8999998569489","","","","","2","html-slider-response","123","","","","2",""
"3493","shop","samaki,nopya,kerida,ndezu","samaki","f","2","html-keyboard-response","124","f","samaki","true","",""
"2525.4000000953674","","","","","2","html-slider-response","125","","","","2",""
"5333","elephant","kito,petye,pagduol,suka","kito","f","2","html-keyboard-response","126","f","kito","true","",""
"2197.4000000953674","","","","","2","html-slider-response","127","","","","4",""
"4684","bucket","kiatu,baga,ijayo,init","kiatu","f","2","html-keyboard-response","128","f","kiatu","true","",""
"2845","","","","","2","html-slider-response","129","","","","3",""
"2996","book","kuhesa,picha,mali,mara","mali","j","2","html-keyboard-response","130","j","mali","true","",""
"2153.199999809265","","","","","2","html-slider-response","131","","","","2",""
"4022","mirror","sulagma,rangi,kanding,furaha","sulagma","f","2","html-keyboard-response","132","n","furaha","false","",""
"2980.9000000953674","","","","","2","html-slider-response","133","","","","2",""
"7837","office","hazini,yatima,kuna,leso","leso","n","2","html-keyboard-response","134","n","leso","true","",""
"2216.5","","","","","2","html-slider-response","135","","","","4",""
"9492","body","nyundu,jibini,kununa,tindashan","tindashan","n","2","html-keyboard-response","136","f","nyundu","false","",""
"2835.199999809265","","","","","2","html-slider-response","137","","","","3",""
"4853","perfume","bino,sungura,katuyoan,ndogo","katuyoan","j","2","html-keyboard-response","138","j","katuyoan","true","",""
"2308.4000000953674","","","","","2","html-slider-response","139","","","","1",""
"13642","olive","bata,siagi,jiwe,welder","jiwe","j","2","html-keyboard-response","140","j","jiwe","true","",""
"2203.4000000953674","","","","","2","html-slider-response","141","","","","4",""
"2048","magazine","gundi,mchawi,bahandi,kiti","kiti","n","2","html-keyboard-response","142","n","kiti","true","",""
"2541.4000000953674","","","","","2","html-slider-response","143","","","","5",""
"4341","bread","dari,kaili,dizeli,bugas","dari","f","2","html-keyboard-response","144","f","dari","true","",""
"3715.4000000953674","","","","","2","html-slider-response","145","","","","5",""
"3678","cave","ganti,maisha,nyundo,kesho","kesho","n","2","html-keyboard-response","146","n","kesho","true","",""
"1662.5","","","","","2","html-slider-response","147","","","","5",""
"3663","ladder","pangalan,mashua,mwanga,kamba","pangalan","f","2","html-keyboard-response","148","n","kamba","false","",""
"1754.8000001907349","","","","","2","html-slider-response","149","","","","1",""
"4749","human","tinapay,bado,kikapu,punguza","tinapay","f","2","html-keyboard-response","150","n","punguza","false","",""
"2500.5","","","","","2","html-slider-response","151","","","","2",""
"3638","clock","kartasi,abang,mbwa,osha","mbwa","j","2","html-keyboard-response","152","j","mbwa","true","",""
"1824.6000001430511","","","","","2","html-slider-response","153","","","","1",""
"5592","shelf","pamahaw,bungtod,kadaot,awit","pamahaw","f","2","html-keyboard-response","154","f","pamahaw","true","",""
"4524.600000143051","","","","","2","html-slider-response","155","","","","3",""
"6229","salmon","sensilyo,mzungu,seri,baharia","sensilyo","f","2","html-keyboard-response","156","f","sensilyo","true","",""
"2755.9000000953674","","","","","2","html-slider-response","157","","","","4",""
"28116","coffin","barua,tubag,kioo,hulma","kioo","j","2","html-keyboard-response","158","j","kioo","true","",""
"2673.5","","","","","2","html-slider-response","159","","","","2",""
"3943","notebook","msitu,kila,mdudu,kemia","kemia","n","2","html-keyboard-response","160","n","kemia","true","",""
"1632.2999999523163","","","","","2","html-slider-response","161","","","","2",""
"3917","shoulder","kelele,mkuu,ndaniya,guruwe","mkuu","v","2","html-keyboard-response","162","f","kelele","false","",""
"2151.7000000476837","","","","","2","html-slider-response","163","","","","2",""
"2843","park","tambok,pwani,bunifu,ihalas","bunifu","j","2","html-keyboard-response","164","v","pwani","false","",""
"1657.5","","","","","2","html-slider-response","165","","","","1",""
"2988","number","shule,mundamo,kengele,choori","mundamo","v","2","html-keyboard-response","166","n","choori","false","",""
"3744.5","","","","","2","html-slider-response","167","","","","3",""
"5517","apple","ukame,estante,kisu,edad","kisu","j","2","html-keyboard-response","168","j","kisu","true","",""
"2880.600000143051","","","","","2","html-slider-response","169","","","","3",""
"6009","letter","filimbi,chuma,uhuru,kifua","kifua","n","2","html-keyboard-response","170","j","uhuru","false","",""
"1955.7000000476837","","","","","2","html-slider-response","171","","","","2",""
"8871","eel","ishara,msumari,kunywa,kabuang","msumari","v","2","html-keyboard-response","172","v","msumari","true","",""
"1914.5","","","","","2","html-slider-response","173","","","","5",""
"3762","cop","bustani,jikoni,mechezo,bakus","mechezo","j","2","html-keyboard-response","174","j","mechezo","true","",""
"2711.899999856949","","","","","2","html-slider-response","175","","","","5",""
"11826","wolf","kaburi,ndizi,lugha,mchuzi","lugha","j","2","html-keyboard-response","176","f","kaburi","false","",""
"2053","","","","","2","html-slider-response","177","","","","2",""
"9709","squirrel","mahugaw,ukweli,hofu,kichwa","hofu","j","2","html-keyboard-response","178","j","hofu","true","",""
"2011.2999999523163","","","","","2","html-slider-response","179","","","","1",""
"4846","nose","gubat,kopa,kidole,sehemu","sehemu","n","2","html-keyboard-response","180","f","gubat","false","",""
"1708.2000000476837","","","","","2","html-slider-response","181","","","","1",""
"5396","sock","ndoora,kimysa,mtirka,mamba","mamba","n","2","html-keyboard-response","182","n","mamba","true","",""
"4875.099999904633","","","","","2","html-slider-response","183","","","","3",""
"2974","bank","silingan,kudhibi,tualya,ofisi","silingan","f","2","html-keyboard-response","184","j","tualya","false","",""
"1857.2000000476837","","","","","2","html-slider-response","185","","","","1",""
"4014","donkey","bloke,lalake,elfu,rombus","elfu","j","2","html-keyboard-response","186","j","elfu","true","",""
"1658.4000000953674","","","","","2","html-slider-response","187","","","","2",""
"3396","poster","nchi,fedha,kasuko,madungog","madungog","n","2","html-keyboard-response","188","n","madungog","true","",""
"1822.6000001430511","","","","","2","html-slider-response","189","","","","4",""
"7740","puppet","napulo,lamok,mazishi,godoro","mazishi","j","2","html-keyboard-response","190","j","mazishi","true","",""
"2185.7000000476837","","","","","2","html-slider-response","191","","","","4",""
"4087","hill","kushoto,matumbo,kukimba,sweta","matumbo","v","2","html-keyboard-response","192","v","matumbo","true","",""
"1963.7000000476837","","","","","2","html-slider-response","193","","","","1",""
"9390","tooth","kijiko,uadui,pahiyum,kabalaka","kabalaka","n","2","html-keyboard-response","194","n","kabalaka","true","",""
"1992.5","","","","","2","html-slider-response","195","","","","5",""
"2467","woman","pagtabon,bandari,bituin,kovuli","pagtabon","f","2","html-keyboard-response","196","f","pagtabon","true","",""
"1815.4000000953674","","","","","2","html-slider-response","197","","","","5",""
"5011","wheel","punda,tawo,bafuni,baadaye","bafuni","j","2","html-keyboard-response","198","j","bafuni","true","",""
"1752","","","","","2","html-slider-response","199","","","","2",""
"2066","mother","kahawa,babaye,mbuzi,jokofu","babaye","v","2","html-keyboard-response","200","v","babaye","true","",""
"1652.5999999046326","","","","","2","html-slider-response","201","","","","5",""
"3627","bed","kalipay,mapintas,haraka,starehe","mapintas","v","2","html-keyboard-response","202","f","kalipay","false","",""
"1576.7999999523163","","","","","2","html-slider-response","203","","","","2",""
"3256","key","miaka,goma,ahos,chombo","chombo","n","2","html-keyboard-response","204","v","goma","false","",""
"1640.9000000953674","","","","","2","html-slider-response","205","","","","2",""
"5333","page","wakala,ishiri,wimbo,skina","wimbo","j","2","html-keyboard-response","206","v","ishiri","false","",""
"1653.8000001907349","","","","","2","html-slider-response","207","","","","2",""
"2596","pants","pintal,chuki,haki,hari","haki","j","2","html-keyboard-response","208","j","haki","true","",""
"2122.100000143051","","","","","2","html-slider-response","209","","","","5",""
"2437","sun","basi,bendi,luha,uongo","basi","f","2","html-keyboard-response","210","f","basi","true","",""
"1845.2000000476837","","","","","2","html-slider-response","211","","","","5",""
"3279","finger","simu,sufuria,moyo,lima","moyo","j","2","html-keyboard-response","212","n","lima","false","",""
"1732.7999999523163","","","","","2","html-slider-response","213","","","","2",""
"2755","shoe","uyoga,nyeusi,hatua,kama","uyoga","f","2","html-keyboard-response","214","f","uyoga","true","",""
"1738","","","","","2","html-slider-response","215","","","","1",""
"13283","giraffe","daraja,jumatu,mahitabo,hangyo","mahitabo","j","2","html-keyboard-response","216","f","daraja","false","",""
"2030","","","","","2","html-slider-response","217","","","","2",""
"4450","dog","bahari,lubi,washia,kalamu","bahari","f","2","html-keyboard-response","218","f","bahari","true","",""
"2174.2999999523163","","","","","2","html-slider-response","219","","","","3",""
"4558","box","kuacha,rafiki,adui,kitande","adui","j","2","html-keyboard-response","220","v","rafiki","false","",""
"1585.4000000953674","","","","","2","html-slider-response","221","","","","2",""
"9827","scissors","tanuri,duga,mtawa,suga","tanuri","f","2","html-keyboard-response","222","n","suga","false","",""
"1545","","","","","2","html-slider-response","223","","","","2",""
"4261","cat","neyemba,baki,paghukom,akili","paghukom","j","2","html-keyboard-response","224","j","paghukom","true","",""
"1711.7000000476837","","","","","2","html-slider-response","225","","","","2",""
"4486","basket","kumbuka,utepe,kumba,hasira","kumba","j","2","html-keyboard-response","226","f","kumbuka","false","",""
"2150.4000000953674","","","","","2","html-slider-response","227","","","","1",""
"4021","snake","jansa,karon,mvringo,pagtukod","pagtukod","n","2","html-keyboard-response","228","n","pagtukod","true","",""
"1951.2000000476837","","","","","2","html-slider-response","229","","","","2",""
"8285","gift","baba,nyange,pagtawag,baso","pagtawag","j","2","html-keyboard-response","230","j","pagtawag","true","",""
"1754","","","","","2","html-slider-response","231","","","","4",""
"2441","train","sayari,itik,dakika,mungu","sayari","f","2","html-keyboard-response","232","n","mungu","false","",""
"1663.9000000953674","","","","","2","html-slider-response","233","","","","1",""
"4242","pudding","aibu,abug,mpishi,iring","aibu","f","2","html-keyboard-response","234","j","mpishi","false","",""
"2248.9000000953674","","","","","2","html-slider-response","235","","","","2",""
"4100","tomato","mvua,chupi,chupa,takatak","mvua","f","2","html-keyboard-response","236","n","takatak","false","",""
"1582.6000001430511","","","","","2","html-slider-response","237","","","","4",""
"4489","stone","ulimwengu,mkasi,asili,wingi","wingi","n","2","html-keyboard-response","238","j","asili","false","",""
"1637.7999999523163","","","","","2","html-slider-response","239","","","","1",""
"3723","hammer","mekno,kitovu,layag,napakyas","napakyas","n","2","html-keyboard-response","240","f","mekno","false","",""
"2134.7000000476837","","","","","2","html-slider-response","241","","","","1",""
"39849","knee","duka,mvuke,kubale,bili","duka","f","2","html-keyboard-response","242","j","kubale","false","",""
"2562.199999809265","","","","","2","html-slider-response","243","","","","3",""
"4463","ceiling","kugita,kawaida,rayna,maua","maua","n","2","html-keyboard-response","244","n","maua","true","",""
"1458.2999999523163","","","","","2","html-slider-response","245","","","","4",""
"6730","spoon","betri,nzuri,pagsulod,ngazi","pagsulod","j","2","html-keyboard-response","246","v","nzuri","false","",""
"2243.100000143051","","","","","2","html-slider-response","247","","","","2",""
"4668","marker","maji,mapafu,salita,atay","maji","f","2","html-keyboard-response","248","f","maji","true","",""
"1992.0999999046326","","","","","2","html-slider-response","249","","","","2",""
"3636","candle","gabi,geza,farasi,kupanda","geza","v","2","html-keyboard-response","250","f","gabi","false","",""
"1649","","","","","2","html-slider-response","251","","","","2",""
"3279","tissue","lamigas,ugomvi,kisiwa,katika","ugomvi","v","2","html-keyboard-response","252","j","kisiwa","false","",""
"2337.2000000476837","","","","","2","html-slider-response","253","","","","2",""
"4437","bridge","daima,sahani,ngono,panya","sahani","v","2","html-keyboard-response","254","f","daima","false","",""
"2061.399999856949","","","","","2","html-slider-response","255","","","","3",""
"5347","berry","kofia,abogado,nogozi,kinywa","kofia","f","2","html-keyboard-response","256","f","kofia","true","",""
"1781.2999999523163","","","","","2","html-slider-response","257","","","","4",""
"10166","triangle","kihozi,kasadpan,bentaha,liog","kasadpan","v","2","html-keyboard-response","258","v","kasadpan","true","",""
"2224.0999999046326","","","","","2","html-slider-response","259","","","","2",""
"5010","door","tena,soko,nyota,surali","surali","n","2","html-keyboard-response","260","f","tena","false","",""
"2045.5999999046326","","","","","2","html-slider-response","261","","","","1",""
"3916","fish","bala,baho,imani,buli","buli","n","2","html-keyboard-response","262","v","baho","false","",""
"2404.9000000953674","","","","","2","html-slider-response","263","","","","2",""
"9020","curtain","lisud,bulwawan,chubani,mchanga","mchanga","n","2","html-keyboard-response","264","n","mchanga","true","",""
"3845","","","","","2","html-slider-response","265","","","","3",""
"5041","flag","ndege,trekta,mkate,kawa","trekta","v","2","html-keyboard-response","266","j","mkate","false","",""
"2014.2999999523163","","","","","2","html-slider-response","267","","","","1",""
"2898","boat","hamsi,pombe,kitanda,agalon","agalon","n","2","html-keyboard-response","268","f","hamsi","false","",""
"1827.5","","","","","2","html-slider-response","269","","","","2",""
"4427","rose","paghalad,singizi,mwanake,amani","paghalad","f","2","html-keyboard-response","270","n","amani","false","",""
"1704.2000000476837","","","","","2","html-slider-response","271","","","","1",""
"4484","lamp","daub,bilaska,afya,mbolea","afya","j","2","html-keyboard-response","272","j","afya","true","",""
"2145.2999999523163","","","","","2","html-slider-response","273","","","","2",""
"3049","cigar","ndugu,kuta,mlango,adhabu","adhabu","n","2","html-keyboard-response","274","n","adhabu","true","",""
"3065.9000000953674","","","","","2","html-slider-response","275","","","","2",""
"2909","list","alizeti,kuzama,wingu,kaso","wingu","j","2","html-keyboard-response","276","j","wingu","true","",""
"1686.2999999523163","","","","","2","html-slider-response","277","","","","2",""
"7935","sheet","juuya,watu,kamantis,bililhon","bililhon","n","2","html-keyboard-response","278","v","watu","false","",""
"1621.0999999046326","","","","","2","html-slider-response","279","","","","1",""
"2752","picture","silya,kubwa,chaki,asin","kubwa","v","2","html-keyboard-response","280","f","silya","false","",""
"1812.3999998569489","","","","","2","html-slider-response","281","","","","1",""
"2615","towel","tembo,funzi,pito,pagpalit","pagpalit","n","2","html-keyboard-response","282","v","funzi","false","",""
"2346.2000000476837","","","","","2","html-slider-response","283","","","","2",""
"3694","window","kweli,nanga,kujenga,umaga","kweli","f","2","html-keyboard-response","284","f","kweli","true","",""
"2044.7999999523163","","","","","2","html-slider-response","285","","","","2",""
"6605","box","kuacha,rafiki,adui,kitande","adui","j","3","html-keyboard-response","293","n","kitande","false","","4"
"3507","","","","","3","html-slider-response","294","","","","1",""
"12524","","","","","3","html-keyboard-response","295","","","","",""
"5269","pants","pintal,chuki,hari,haki","haki","n","3","html-keyboard-response","296","n","haki","true","","4"
"7243.700000047684","","","","","3","html-slider-response","297","","","","5",""
"4050","","","","","3","html-keyboard-response","298","","","","",""
"9173","cup","matumai,dagat,shimoni,jeraha","matumai","f","3","html-keyboard-response","299","v","dagat","false","","4"
"2106.5","","","","","3","html-slider-response","300","","","","1",""
"4929","","","","","3","html-keyboard-response","301","","","","",""
"3828","triangle","kasadpan,kihozi,bentaha,liog","kasadpan","f","3","html-keyboard-response","302","n","liog","false","","4"
"1733.6000001430511","","","","","3","html-slider-response","303","","","","1",""
"7870","","","","","3","html-keyboard-response","304","","","","",""
"7777","curtain","lisud,mchanga,bulwawan,chubani","mchanga","v","3","html-keyboard-response","305","f","lisud","false","","4"
"2267.2999999523163","","","","","3","html-slider-response","306","","","","1",""
"4640","","","","","3","html-keyboard-response","307","","","","",""
"7005","clock","kartasi,mbwa,abang,osha","mbwa","v","3","html-keyboard-response","308","n","osha","false","","4"
"2180.7000000476837","","","","","3","html-slider-response","309","","","","3",""
"7389","","","","","3","html-keyboard-response","310","","","","",""
"6297","mirror","rangi,kanding,sulagma,furaha","sulagma","j","3","html-keyboard-response","311","j","sulagma","true","","4"
"2593","","","","","3","html-slider-response","312","","","","2",""
"6724","","","","","3","html-keyboard-response","313","","","","",""
"7719","coffin","barua,tubag,hulma,kioo","kioo","n","3","html-keyboard-response","314","n","kioo","true","","1"
"3274.5","","","","","3","html-slider-response","315","","","","5",""
"1997","","","","","3","html-keyboard-response","316","","","","",""
"7059","magazine","gundi,mchawi,bahandi,kiti","kiti","n","3","html-keyboard-response","317","n","kiti","true","","4"
"2174.4000000953674","","","","","3","html-slider-response","318","","","","5",""
"1933","","","","","3","html-keyboard-response","319","","","","",""
"8825","column","pundok,ufagio,dila,pala","ufagio","v","3","html-keyboard-response","320","v","ufagio","true","","1"
"2150.100000143051","","","","","3","html-slider-response","321","","","","5",""
"1168","","","","","3","html-keyboard-response","322","","","","",""
"8376","number","shule,kengele,choori,mundamo","mundamo","n","3","html-keyboard-response","323","n","mundamo","true","","4"
"2593.2000000476837","","","","","3","html-slider-response","324","","","","5",""
"2933","","","","","3","html-keyboard-response","325","","","","",""
"7117","rose","singizi,paghalad,mwanake,amani","paghalad","v","3","html-keyboard-response","326","f","singizi","false","","4"
"2163.2999999523163","","","","","3","html-slider-response","327","","","","1",""
"6504","","","","","3","html-keyboard-response","328","","","","",""
"7885","eel","ishara,kunywa,kabuang,msumari","msumari","n","3","html-keyboard-response","329","n","msumari","true","","4"
"1922.7000000476837","","","","","3","html-slider-response","330","","","","4",""
"2653","","","","","3","html-keyboard-response","331","","","","",""
"8799","gift","baba,nyange,pagtawag,baso","pagtawag","j","3","html-keyboard-response","332","n","baso","false","","4"
"3123.9000000953674","","","","","3","html-slider-response","333","","","","3",""
"8198","","","","","3","html-keyboard-response","334","","","","",""
"4977","apple","kisu,ukame,estante,edad","kisu","f","3","html-keyboard-response","335","f","kisu","true","","1"
"1977.8000001907349","","","","","3","html-slider-response","336","","","","5",""
"1568","","","","","3","html-keyboard-response","337","","","","",""
"9452","wheel","punda,tawo,baadaye,bafuni","bafuni","n","3","html-keyboard-response","338","n","bafuni","true","","1"
"1719.7000000476837","","","","","3","html-slider-response","339","","","","5",""
"962","","","","","3","html-keyboard-response","340","","","","",""
"8399","knee","duka,mvuke,kubale,bili","duka","f","3","html-keyboard-response","341","j","kubale","false","","4"
"2081.7000000476837","","","","","3","html-slider-response","342","","","","2",""
"3367","","","","","3","html-keyboard-response","343","","","","",""
"6761","basket","kumbuka,utepe,kumba,hasira","kumba","j","3","html-keyboard-response","344","j","kumba","true","","1"
"2039.8999998569489","","","","","3","html-slider-response","345","","","","5",""
"1301","","","","","3","html-keyboard-response","346","","","","",""
"5460","park","tambok,bunifu,pwani,ihalas","bunifu","v","3","html-keyboard-response","347","f","tambok","false","","4"
"1537.5999999046326","","","","","3","html-slider-response","348","","","","1",""
"5432","","","","","3","html-keyboard-response","349","","","","",""
"5711","finger","simu,moyo,sufuria,lima","moyo","v","3","html-keyboard-response","350","n","lima","false","","4"
"1814.6000001430511","","","","","3","html-slider-response","351","","","","1",""
"3787","","","","","3","html-keyboard-response","352","","","","",""
"3145","boat","hamsi,pombe,kitanda,agalon","agalon","n","3","html-keyboard-response","353","f","hamsi","false","","4"
"2643.7000000476837","","","","","3","html-slider-response","354","","","","1",""
"6342","","","","","3","html-keyboard-response","355","","","","",""
"3696","hill","kushoto,matumbo,kukimba,sweta","matumbo","v","3","html-keyboard-response","356","n","sweta","false","","4"
"2417.800000190735","","","","","3","html-slider-response","357","","","","2",""
"4328","","","","","3","html-keyboard-response","358","","","","",""
"4485","train","itik,dakika,mungu,sayari","sayari","n","3","html-keyboard-response","359","n","sayari","true","","4"
"2247.9000000953674","","","","","3","html-slider-response","360","","","","1",""
"2756","","","","","3","html-keyboard-response","361","","","","",""
"8343","wolf","lugha,kaburi,ndizi,mchuzi","lugha","f","3","html-keyboard-response","362","f","lugha","true","","4"
"1895.7999999523163","","","","","3","html-slider-response","363","","","","4",""
"3395","","","","","3","html-keyboard-response","364","","","","",""
"5737","snake","jansa,karon,mvringo,pagtukod","pagtukod","n","3","html-keyboard-response","365","n","pagtukod","true","","4"
"2594.300000190735","","","","","3","html-slider-response","366","","","","3",""
"6471","","","","","3","html-keyboard-response","367","","","","",""
"6204","tooth","kijiko,uadui,pahiyum,kabalaka","kabalaka","n","3","html-keyboard-response","368","j","pahiyum","false","","4"
"2219.7999999523163","","","","","3","html-slider-response","369","","","","2",""
"7250","","","","","3","html-keyboard-response","370","","","","",""
"8334","notebook","msitu,kemia,kila,mdudu","kemia","v","3","html-keyboard-response","371","f","msitu","false","","4"
"2196.7999999523163","","","","","3","html-slider-response","372","","","","2",""
"3085","","","","","3","html-keyboard-response","373","","","","",""
"4747","flag","ndege,trekta,mkate,kawa","trekta","v","3","html-keyboard-response","374","f","ndege","false","","4"
"1729.7999999523163","","","","","3","html-slider-response","375","","","","1",""
"5989","","","","","3","html-keyboard-response","376","","","","",""
"4591","squirrel","mahugaw,ukweli,kichwa,hofu","hofu","n","3","html-keyboard-response","377","j","kichwa","false","","4"
"2562.2000000476837","","","","","3","html-slider-response","378","","","","2",""
"4382","","","","","3","html-keyboard-response","379","","","","",""
"4819","door","tena,soko,nyota,surali","surali","n","3","html-keyboard-response","380","v","soko","false","","4"
"2172.7000000476837","","","","","3","html-slider-response","381","","","","2",""
"3047","","","","","3","html-keyboard-response","382","","","","",""
"9751","salmon","mzungu,seri,baharia,sensilyo","sensilyo","n","3","html-keyboard-response","383","n","sensilyo","true","","4"
"1919.2999999523163","","","","","3","html-slider-response","384","","","","5",""
"2444","","","","","3","html-keyboard-response","385","","","","",""
"7784","shoulder","mkuu,kelele,ndaniya,guruwe","mkuu","f","3","html-keyboard-response","386","f","mkuu","true","","4"
"2039.6000001430511","","","","","3","html-slider-response","387","","","","5",""
"935","","","","","3","html-keyboard-response","388","","","","",""
"9430","lamp","daub,afya,bilaska,mbolea","afya","v","3","html-keyboard-response","389","f","daub","false","","4"
"1707.7000000476837","","","","","3","html-slider-response","390","","","","2",""
"3835","","","","","3","html-keyboard-response","391","","","","",""
"8572","shelf","bungtod,kadaot,awit,pamahaw","pamahaw","n","3","html-keyboard-response","392","n","pamahaw","true","","1"
"1906.2999999523163","","","","","3","html-slider-response","393","","","","5",""
"816","","","","","3","html-keyboard-response","394","","","","",""
"5620","human","bado,tinapay,kikapu,punguza","tinapay","v","3","html-keyboard-response","395","f","bado","false","","4"
"2181.600000143051","","","","","3","html-slider-response","396","","","","2",""
"3658","","","","","3","html-keyboard-response","397","","","","",""
"7846","towel","tembo,funzi,pagpalit,pito","pagpalit","j","3","html-keyboard-response","398","v","funzi","false","","4"
"1666.4000000953674","","","","","3","html-slider-response","399","","","","4",""
"5639","","","","","3","html-keyboard-response","400","","","","",""
"5276","cat","neyemba,baki,akili,paghukom","paghukom","n","3","html-keyboard-response","401","n","paghukom","true","","4"
"2636.2000000476837","","","","","3","html-slider-response","402","","","","2",""
"6362","","","","","3","html-keyboard-response","403","","","","",""
"6554","spider","bunyag,kamwe,mkboa,atop","kamwe","v","3","html-keyboard-response","404","v","kamwe","true","","4"
"2875.4000000953674","","","","","3","html-slider-response","405","","","","1",""
"4590","","","","","3","html-keyboard-response","406","","","","",""
"4577","window","nanga,kujenga,umaga,kweli","kweli","n","3","html-keyboard-response","407","f","nanga","false","","4"
"1967.5999999046326","","","","","3","html-slider-response","408","","","","2",""
"5724","","","","","3","html-keyboard-response","409","","","","",""
"6576","woman","bandari,bituin,kovuli,pagtabon","pagtabon","n","3","html-keyboard-response","410","n","pagtabon","true","","1"
"2099.899999856949","","","","","3","html-slider-response","411","","","","5",""
"1494","","","","","3","html-keyboard-response","412","","","","",""
"5366","giraffe","daraja,mahitabo,jumatu,hangyo","mahitabo","v","3","html-keyboard-response","413","n","hangyo","false","","4"
"1739.5999999046326","","","","","3","html-slider-response","414","","","","2",""
"5734","","","","","3","html-keyboard-response","415","","","","",""
"7614","elephant","petye,kito,pagduol,suka","kito","v","3","html-keyboard-response","416","v","kito","true","","4"
"1480","","","","","3","html-slider-response","417","","","","5",""
"1801","","","","","3","html-keyboard-response","418","","","","",""
"6900","cave","ganti,maisha,nyundo,kesho","kesho","n","3","html-keyboard-response","419","n","kesho","true","","4"
"1765.6999998092651","","","","","3","html-slider-response","420","","","","5",""
"1121","","","","","3","html-keyboard-response","421","","","","",""
"6038","bread","kaili,dari,dizeli,bugas","dari","v","3","html-keyboard-response","422","v","dari","true","","4"
"3545.9000000953674","","","","","3","html-slider-response","423","","","","4",""
"3500","","","","","3","html-keyboard-response","424","","","","",""
"6035","stone","wingi,ulimwengu,mkasi,asili","wingi","f","3","html-keyboard-response","425","v","ulimwengu","false","","4"
"2676.7000000476837","","","","","3","html-slider-response","426","","","","1",""
"3012","","","","","3","html-keyboard-response","427","","","","",""
"6442","donkey","bloke,lalake,elfu,rombus","elfu","j","3","html-keyboard-response","428","j","elfu","true","","4"
"1702.7999999523163","","","","","3","html-slider-response","429","","","","4",""
"3067","","","","","3","html-keyboard-response","430","","","","",""
"7573","bridge","daima,ngono,panya,sahani","sahani","n","3","html-keyboard-response","431","f","daima","false","","4"
"1742.7999999523163","","","","","3","html-slider-response","432","","","","4",""
"5698","","","","","3","html-keyboard-response","433","","","","",""
"5346","bonfire","mwezi,mfuko,goti,kusanya","goti","j","3","html-keyboard-response","434","j","goti","true","","4"
"1648.5","","","","","3","html-slider-response","435","","","","2",""
"2819","","","","","3","html-keyboard-response","436","","","","",""
"6073","book","kuhesa,mali,picha,mara","mali","v","3","html-keyboard-response","437","v","mali","true","","4"
"2438.800000190735","","","","","3","html-slider-response","438","","","","3",""
"2029","","","","","3","html-keyboard-response","439","","","","",""
"6538","fish","bala,baho,buli,imani","buli","j","3","html-keyboard-response","440","v","baho","false","","4"
"2453","","","","","3","html-slider-response","441","","","","3",""
"3768","","","","","3","html-keyboard-response","442","","","","",""
"5432","spoon","betri,nzuri,ngazi,pagsulod","pagsulod","n","3","html-keyboard-response","443","v","nzuri","false","","4"
"2138.100000143051","","","","","3","html-slider-response","444","","","","2",""
"5740","","","","","3","html-keyboard-response","445","","","","",""
"5957","scissors","tanuri,duga,mtawa,suga","tanuri","f","3","html-keyboard-response","446","j","mtawa","false","","4"
"1437.0999999046326","","","","","3","html-slider-response","447","","","","4",""
"4190","","","","","3","html-keyboard-response","448","","","","",""
"5886","page","wakala,ishiri,skina,wimbo","wimbo","n","3","html-keyboard-response","449","j","skina","false","","4"
"1671.5999999046326","","","","","3","html-slider-response","450","","","","1",""
"4152","","","","","3","html-keyboard-response","451","","","","",""
"7391","nose","gubat,kopa,kidole,sehemu","sehemu","n","3","html-keyboard-response","452","n","sehemu","true","","1"
"2179.100000143051","","","","","3","html-slider-response","453","","","","5",""
"2044","","","","","3","html-keyboard-response","454","","","","",""
"5740","ceiling","kugita,maua,kawaida,rayna","maua","v","3","html-keyboard-response","455","v","maua","true","","4"
"1792.7000000476837","","","","","3","html-slider-response","456","","","","5",""
"2552","","","","","3","html-keyboard-response","457","","","","",""
"5079","bucket","baga,ijayo,kiatu,init","kiatu","j","3","html-keyboard-response","458","f","baga","false","","4"
"2510.9000000953674","","","","","3","html-slider-response","459","","","","2",""
"3074","","","","","3","html-keyboard-response","460","","","","",""
"5705","berry","abogado,nogozi,kinywa,kofia","kofia","n","3","html-keyboard-response","461","n","kofia","true","","1"
"2082.7999999523163","","","","","3","html-slider-response","462","","","","5",""
"2151","","","","","3","html-keyboard-response","463","","","","",""
"7062","mother","kahawa,mbuzi,babaye,jokofu","babaye","j","3","html-keyboard-response","464","j","babaye","true","","1"
"2427.300000190735","","","","","3","html-slider-response","465","","","","5",""
"1030","","","","","3","html-keyboard-response","466","","","","",""
"9118","mosquito","isda,martilyo,taras,gutom","martilyo","v","3","html-keyboard-response","467","v","martilyo","true","","4"
"2387","","","","","3","html-slider-response","468","","","","2",""
"5352","","","","","3","html-keyboard-response","469","","","","",""
"6474","perfume","bino,sungura,ndogo,katuyoan","katuyoan","n","3","html-keyboard-response","470","v","sungura","false","","4"
"2058.5","","","","","3","html-slider-response","471","","","","2",""
"5019","","","","","3","html-keyboard-response","472","","","","",""
"5885","sheet","juuya,watu,bililhon,kamantis","bililhon","j","3","html-keyboard-response","473","f","juuya","false","","4"
"1996.5","","","","","3","html-slider-response","474","","","","2",""
"3966","","","","","3","html-keyboard-response","475","","","","",""
"6682","puppet","napulo,mazishi,lamok,godoro","mazishi","v","3","html-keyboard-response","476","v","mazishi","true","","1"
"1812.9000000953674","","","","","3","html-slider-response","477","","","","5",""
"1081","","","","","3","html-keyboard-response","478","","","","",""
"12954","poster","nchi,madungog,fedha,kasuko","madungog","v","3","html-keyboard-response","479","v","madungog","true","","4"
"1460.6000001430511","","","","","3","html-slider-response","480","","","","4",""
"1757","","","","","3","html-keyboard-response","481","","","","",""
"4775","music","mraba,baiski,mageho,tumbo","baiski","v","3","html-keyboard-response","482","j","mageho","false","","4"
"1535.2999999523163","","","","","3","html-slider-response","483","","","","2",""
"4365","","","","","3","html-keyboard-response","484","","","","",""
"4557","key","chombo,miaka,goma,ahos","chombo","f","3","html-keyboard-response","485","v","miaka","false","","4"
"1483.8999998569489","","","","","3","html-slider-response","486","","","","1",""
"2776","","","","","3","html-keyboard-response","487","","","","",""
"4402","sock","ndoora,kimysa,mtirka,mamba","mamba","n","3","html-keyboard-response","488","n","mamba","true","","4"
"2061.2000000476837","","","","","3","html-slider-response","489","","","","4",""
"2493","","","","","3","html-keyboard-response","490","","","","",""
"7445","marker","maji,mapafu,salita,atay","maji","f","3","html-keyboard-response","491","f","maji","true","","4"
"1704.9000000953674","","","","","3","html-slider-response","492","","","","2",""
"2354","","","","","3","html-keyboard-response","493","","","","",""
"5530","office","hazini,leso,yatima,kuna","leso","v","3","html-keyboard-response","494","v","leso","true","","4"
"2184.5999999046326","","","","","3","html-slider-response","495","","","","5",""
"1377","","","","","3","html-keyboard-response","496","","","","",""
"8974","shoe","nyeusi,hatua,uyoga,kama","uyoga","j","3","html-keyboard-response","497","n","kama","false","","4"
"1826.3000001907349","","","","","3","html-slider-response","498","","","","1",""
"4619","","","","","3","html-keyboard-response","499","","","","",""
"7135","cop","bustani,jikoni,bakus,mechezo","mechezo","n","3","html-keyboard-response","500","n","mechezo","true","","4"
"1699.8999998569489","","","","","3","html-slider-response","501","","","","5",""
"762","","","","","3","html-keyboard-response","502","","","","",""
"6420","bank","silingan,kudhibi,tualya,ofisi","silingan","f","3","html-keyboard-response","503","n","ofisi","false","","4"
"1895.5","","","","","3","html-slider-response","504","","","","1",""
"4923","","","","","3","html-keyboard-response","505","","","","",""
"5258","letter","kifua,filimbi,chuma,uhuru","kifua","f","3","html-keyboard-response","506","f","kifua","true","","1"
"1749.4000000953674","","","","","3","html-slider-response","507","","","","5",""
"882","","","","","3","html-keyboard-response","508","","","","",""
"7058","dog","lubi,washia,kalamu,bahari","bahari","n","3","html-keyboard-response","509","n","bahari","true","","1"
"1863.9000000953674","","","","","3","html-slider-response","510","","","","5",""
"734","","","","","3","html-keyboard-response","511","","","","",""
"5405","shop","samaki,nopya,kerida,ndezu","samaki","f","3","html-keyboard-response","512","v","nopya","false","","4"
"1804.1000001430511","","","","","3","html-slider-response","513","","","","1",""
"3527","","","","","3","html-keyboard-response","514","","","","",""
"6860","flower","bega,tamasha,lobo,usiku","bega","f","3","html-keyboard-response","515","f","bega","true","","4"
"1733.6000001430511","","","","","3","html-slider-response","516","","","","2",""
"2561","","","","","3","html-keyboard-response","517","","","","",""
"5172","cigar","adhabu,ndugu,kuta,mlango","adhabu","f","3","html-keyboard-response","518","f","adhabu","true","","1"
"2096","","","","","3","html-slider-response","519","","","","5",""
"887","","","","","3","html-keyboard-response","520","","","","",""
"6011","hammer","napakyas,mekno,kitovu,layag","napakyas","f","3","html-keyboard-response","521","v","mekno","false","","4"
"1561.0999999046326","","","","","3","html-slider-response","522","","","","2",""
"5778","","","","","3","html-keyboard-response","523","","","","",""
"4264","fork","baboy,mgonjwa,paghago,gorisi","mgonjwa","v","3","html-keyboard-response","524","v","mgonjwa","true","","4"
"1456.3999998569489","","","","","3","html-slider-response","525","","","","2",""
"6096","","","","","3","html-keyboard-response","526","","","","",""
"4118","sun","bendi,luha,uongo,basi","basi","n","3","html-keyboard-response","527","n","basi","true","","1"
"1801.5","","","","","3","html-slider-response","528","","","","5",""
"793","","","","","3","html-keyboard-response","529","","","","",""
"5340","ladder","mashua,mwanga,kamba,pangalan","pangalan","n","3","html-keyboard-response","530","v","mwanga","false","","4"
"1897.7999999523163","","","","","3","html-slider-response","531","","","","1",""
"3001","","","","","3","html-keyboard-response","532","","","","",""
"5008","banana","kazi,kasamok,hagdan,twai","kazi","f","3","html-keyboard-response","533","f","kazi","true","","1"
"2348.5","","","","","3","html-slider-response","534","","","","5",""
"1612","","","","","3","html-keyboard-response","535","","","","",""
"6797","pudding","abug,mpishi,iring,aibu","aibu","n","3","html-keyboard-response","536","f","abug","false","","4"
"2720.0999999046326","","","","","3","html-slider-response","537","","","","1",""
"4326","","","","","3","html-keyboard-response","538","","","","",""
"3975","body","tindashan,nyundu,jibini,kununa","tindashan","f","3","html-keyboard-response","539","j","jibini","false","","4"
"1653.6000001430511","","","","","3","html-slider-response","540","","","","1",""
"3976","","","","","3","html-keyboard-response","541","","","","",""
"7345","bed","kalipay,mapintas,haraka,starehe","mapintas","v","3","html-keyboard-response","542","f","kalipay","false","","4"
"1673.6000001430511","","","","","3","html-slider-response","543","","","","2",""
"4344","","","","","3","html-keyboard-response","544","","","","",""
"6152","tissue","ugomvi,lamigas,kisiwa,katika","ugomvi","f","3","html-keyboard-response","545","j","kisiwa","false","","4"
"1642.5999999046326","","","","","3","html-slider-response","546","","","","2",""
"4153","","","","","3","html-keyboard-response","547","","","","",""
"5738","candle","gabi,farasi,kupanda,geza","geza","n","3","html-keyboard-response","548","v","farasi","false","","4"
"2157.7000000476837","","","","","3","html-slider-response","549","","","","1",""
"2437","","","","","3","html-keyboard-response","550","","","","",""
"4377","tomato","chupi,mvua,chupa,takatak","mvua","v","3","html-keyboard-response","551","v","mvua","true","","1"
"1438.2999999523163","","","","","3","html-slider-response","552","","","","5",""
"970","","","","","3","html-keyboard-response","553","","","","",""
"3857","list","alizeti,kuzama,wingu,kaso","wingu","j","3","html-keyboard-response","554","n","kaso","false","","4"
"1571.1000001430511","","","","","3","html-slider-response","555","","","","2",""
"3590","","","","","3","html-keyboard-response","556","","","","",""
"7402","olive","bata,jiwe,siagi,welder","jiwe","v","3","html-keyboard-response","557","v","jiwe","true","","4"
"1693.4000000953674","","","","","3","html-slider-response","558","","","","5",""
"713","","","","","3","html-keyboard-response","559","","","","",""
"6573","picture","silya,chaki,asin,kubwa","kubwa","n","3","html-keyboard-response","560","n","kubwa","true","","1"
"1781.6000001430511","","","","","3","html-slider-response","561","","","","5",""
"730","","","","","3","html-keyboard-response","562","","","","",""
"9571","page","wakala,ishiri,skina,wimbo","wimbo","n","4","html-keyboard-response","888","n","wimbo","true","",""
"1996","","","","","4","html-slider-response","889","","","","4",""
"3545","sheet","juuya,bililhon,watu,kamantis","bililhon","v","4","html-keyboard-response","890","v","bililhon","true","",""
"2029.8999998569489","","","","","4","html-slider-response","891","","","","4",""
"5184","ladder","mashua,mwanga,kamba,pangalan","pangalan","n","4","html-keyboard-response","892","n","pangalan","true","",""
"2031.2000000476837","","","","","4","html-slider-response","893","","","","2",""
"3675","door","tena,soko,nyota,surali","surali","n","4","html-keyboard-response","894","n","surali","true","",""
"2010.2000000476837","","","","","4","html-slider-response","895","","","","5",""
"3696","spider","bunyag,kamwe,mkboa,atop","kamwe","v","4","html-keyboard-response","896","v","kamwe","true","",""
"1655.8000001907349","","","","","4","html-slider-response","897","","","","5",""
"4025","picture","silya,chaki,asin,kubwa","kubwa","n","4","html-keyboard-response","898","n","kubwa","true","",""
"1968.1000001430511","","","","","4","html-slider-response","899","","","","2",""
"3674","boat","hamsi,pombe,agalon,kitanda","agalon","j","4","html-keyboard-response","900","j","agalon","true","",""
"2427.2000000476837","","","","","4","html-slider-response","901","","","","4",""
"5854","donkey","bloke,lalake,elfu,rombus","elfu","j","4","html-keyboard-response","902","j","elfu","true","",""
"1782","","","","","4","html-slider-response","903","","","","5",""
"4914","book","kuhesa,picha,mara,mali","mali","n","4","html-keyboard-response","904","n","mali","true","",""
"1910.5","","","","","4","html-slider-response","905","","","","4",""
"5490","cup","dagat,shimoni,jeraha,matumai","matumai","n","4","html-keyboard-response","906","f","dagat","false","",""
"1803.5","","","","","4","html-slider-response","907","","","","1",""
"2156","sun","bendi,basi,luha,uongo","basi","v","4","html-keyboard-response","908","v","basi","true","",""
"1681.2999999523163","","","","","4","html-slider-response","909","","","","5",""
"5348","pudding","abug,aibu,mpishi,iring","aibu","v","4","html-keyboard-response","910","v","aibu","true","",""
"2150.600000143051","","","","","4","html-slider-response","911","","","","4",""
"3249","human","bado,kikapu,tinapay,punguza","tinapay","j","4","html-keyboard-response","912","j","tinapay","true","",""
"2343.4000000953674","","","","","4","html-slider-response","913","","","","4",""
"9513","squirrel","mahugaw,ukweli,kichwa,hofu","hofu","n","4","html-keyboard-response","914","n","hofu","true","",""
"2184.7999999523163","","","","","4","html-slider-response","915","","","","2",""
"14530","park","tambok,pwani,bunifu,ihalas","bunifu","j","4","html-keyboard-response","916","j","bunifu","true","",""
"1900.1000001430511","","","","","4","html-slider-response","917","","","","4",""
"9618","poster","madungog,nchi,fedha,kasuko","madungog","f","4","html-keyboard-response","918","f","madungog","true","",""
"1726.7999999523163","","","","","4","html-slider-response","919","","","","5",""
"3728","wolf","kaburi,ndizi,lugha,mchuzi","lugha","j","4","html-keyboard-response","920","j","lugha","true","",""
"2226.2999999523163","","","","","4","html-slider-response","921","","","","3",""
"9183","cat","neyemba,baki,akili,paghukom","paghukom","n","4","html-keyboard-response","922","n","paghukom","true","",""
"1727.7000000476837","","","","","4","html-slider-response","923","","","","5",""
"7052","fish","bala,baho,imani,buli","buli","n","4","html-keyboard-response","924","n","buli","true","",""
"1781.9000000953674","","","","","4","html-slider-response","925","","","","4",""
"2546","tooth","kijiko,uadui,pahiyum,kabalaka","kabalaka","n","4","html-keyboard-response","926","j","pahiyum","false","",""
"1744.2000000476837","","","","","4","html-slider-response","927","","","","5",""
"2026","cave","ganti,maisha,kesho,nyundo","kesho","j","4","html-keyboard-response","928","j","kesho","true","",""
"1671.7000000476837","","","","","4","html-slider-response","929","","","","5",""
"16291","lamp","daub,afya,bilaska,mbolea","afya","v","4","html-keyboard-response","930","f","daub","false","",""
"1442.9000000953674","","","","","4","html-slider-response","931","","","","2",""
"5343","banana","kasamok,hagdan,twai,kazi","kazi","n","4","html-keyboard-response","932","n","kazi","true","",""
"2030.0999999046326","","","","","4","html-slider-response","933","","","","4",""
"6253","bonfire","goti,mwezi,mfuko,kusanya","goti","f","4","html-keyboard-response","934","f","goti","true","",""
"1988.5","","","","","4","html-slider-response","935","","","","2",""
"1865","cop","mechezo,bustani,jikoni,bakus","mechezo","f","4","html-keyboard-response","936","f","mechezo","true","",""
"2002.8999998569489","","","","","4","html-slider-response","937","","","","5",""
"3574","marker","maji,mapafu,salita,atay","maji","f","4","html-keyboard-response","938","f","maji","true","",""
"1561.2999999523163","","","","","4","html-slider-response","939","","","","4",""
"3350","window","nanga,kujenga,kweli,umaga","kweli","j","4","html-keyboard-response","940","j","kweli","true","",""
"3472.600000143051","","","","","4","html-slider-response","941","","","","3",""
"10027","body","nyundu,tindashan,jibini,kununa","tindashan","v","4","html-keyboard-response","942","v","tindashan","true","",""
"2153.7999999523163","","","","","4","html-slider-response","943","","","","5",""
"1799","apple","ukame,estante,edad,kisu","kisu","n","4","html-keyboard-response","944","n","kisu","true","",""
"1875.7999999523163","","","","","4","html-slider-response","945","","","","5",""
"2584","salmon","mzungu,seri,sensilyo,baharia","sensilyo","j","4","html-keyboard-response","946","j","sensilyo","true","",""
"2052.7000000476837","","","","","4","html-slider-response","947","","","","5",""
"10930","bed","kalipay,mapintas,haraka,starehe","mapintas","v","4","html-keyboard-response","948","f","kalipay","false","",""
"2213.5","","","","","4","html-slider-response","949","","","","2",""
"1683","berry","abogado,nogozi,kinywa,kofia","kofia","n","4","html-keyboard-response","950","n","kofia","true","",""
"1456","","","","","4","html-slider-response","951","","","","5",""
"6582","mirror","sulagma,rangi,kanding,furaha","sulagma","f","4","html-keyboard-response","952","f","sulagma","true","",""
"1531.1000001430511","","","","","4","html-slider-response","953","","","","4",""
"3374","flag","ndege,mkate,trekta,kawa","trekta","j","4","html-keyboard-response","954","j","trekta","true","",""
"1584.2999999523163","","","","","4","html-slider-response","955","","","","4",""
"2527","shoulder","kelele,ndaniya,mkuu,guruwe","mkuu","j","4","html-keyboard-response","956","j","mkuu","true","",""
"1686.7000000476837","","","","","4","html-slider-response","957","","","","5",""
"6613","tissue","ugomvi,lamigas,kisiwa,katika","ugomvi","f","4","html-keyboard-response","958","f","ugomvi","true","",""
"2163","","","","","4","html-slider-response","959","","","","5",""
"2329","notebook","msitu,kemia,kila,mdudu","kemia","v","4","html-keyboard-response","960","v","kemia","true","",""
"2017.1000001430511","","","","","4","html-slider-response","961","","","","5",""
"6543","snake","pagtukod,jansa,karon,mvringo","pagtukod","f","4","html-keyboard-response","962","f","pagtukod","true","",""
"1721.5999999046326","","","","","4","html-slider-response","963","","","","4",""
"12337","finger","simu,sufuria,lima,moyo","moyo","n","4","html-keyboard-response","964","n","moyo","true","",""
"1814.6000001430511","","","","","4","html-slider-response","965","","","","2",""
"5984","basket","kumba,kumbuka,utepe,hasira","kumba","f","4","html-keyboard-response","966","f","kumba","true","",""
"1861.5999999046326","","","","","4","html-slider-response","967","","","","2",""
"3074","curtain","lisud,bulwawan,mchanga,chubani","mchanga","j","4","html-keyboard-response","968","j","mchanga","true","",""
"2396.4000000953674","","","","","4","html-slider-response","969","","","","5",""
"5809","perfume","bino,sungura,ndogo,katuyoan","katuyoan","n","4","html-keyboard-response","970","n","katuyoan","true","",""
"1560.0999999046326","","","","","4","html-slider-response","971","","","","2",""
"9254","key","miaka,chombo,goma,ahos","chombo","v","4","html-keyboard-response","972","f","miaka","false","",""
"1904.0999999046326","","","","","4","html-slider-response","973","","","","4",""
"1949","olive","bata,siagi,jiwe,welder","jiwe","j","4","html-keyboard-response","974","j","jiwe","true","",""
"1496.7000000476837","","","","","4","html-slider-response","975","","","","5",""
"5736","rose","singizi,mwanake,amani,paghalad","paghalad","n","4","html-keyboard-response","976","n","paghalad","true","",""
"1775.0999999046326","","","","","4","html-slider-response","977","","","","4",""
"5444","bridge","daima,ngono,panya,sahani","sahani","n","4","html-keyboard-response","978","n","sahani","true","",""
"2367.800000190735","","","","","4","html-slider-response","979","","","","4",""
"3213","hill","kushoto,kukimba,matumbo,sweta","matumbo","j","4","html-keyboard-response","980","n","sweta","false","",""
"2163.2999999523163","","","","","4","html-slider-response","981","","","","2",""
"5415","letter","filimbi,chuma,kifua,uhuru","kifua","j","4","html-keyboard-response","982","j","kifua","true","",""
"2342.7000000476837","","","","","4","html-slider-response","983","","","","3",""
"5124","sock","ndoora,kimysa,mamba,mtirka","mamba","j","4","html-keyboard-response","984","j","mamba","true","",""
"1613.3000001907349","","","","","4","html-slider-response","985","","","","5",""
"6915","fork","baboy,mgonjwa,paghago,gorisi","mgonjwa","v","4","html-keyboard-response","986","j","paghago","false","",""
"2395.0999999046326","","","","","4","html-slider-response","987","","","","1",""
"4611","box","adui,kuacha,rafiki,kitande","adui","f","4","html-keyboard-response","988","f","adui","true","",""
"1454.7000000476837","","","","","4","html-slider-response","989","","","","4",""
"4820","gift","pagtawag,baba,nyange,baso","pagtawag","f","4","html-keyboard-response","990","f","pagtawag","true","",""
"1463.6000001430511","","","","","4","html-slider-response","991","","","","5",""
"4758","bucket","baga,kiatu,ijayo,init","kiatu","v","4","html-keyboard-response","992","v","kiatu","true","",""
"1881.8999998569489","","","","","4","html-slider-response","993","","","","2",""
"7704","shop","samaki,nopya,kerida,ndezu","samaki","f","4","html-keyboard-response","994","f","samaki","true","",""
"2011.2000000476837","","","","","4","html-slider-response","995","","","","2",""
"6705","puppet","napulo,mazishi,lamok,godoro","mazishi","v","4","html-keyboard-response","996","j","lamok","false","",""
"1527.2999999523163","","","","","4","html-slider-response","997","","","","2",""
"4718","nose","gubat,kopa,kidole,sehemu","sehemu","n","4","html-keyboard-response","998","n","sehemu","true","",""
"1877.4000000953674","","","","","4","html-slider-response","999","","","","5",""
"7470","music","mraba,mageho,tumbo,baiski","baiski","n","4","html-keyboard-response","1000","n","baiski","true","",""
"1672","","","","","4","html-slider-response","1001","","","","4",""
"7098","dog","lubi,washia,kalamu,bahari","bahari","n","4","html-keyboard-response","1002","n","bahari","true","",""
"1658","","","","","4","html-slider-response","1003","","","","5",""
"3651","eel","msumari,ishara,kunywa,kabuang","msumari","f","4","html-keyboard-response","1004","f","msumari","true","",""
"2610.7000000476837","","","","","4","html-slider-response","1005","","","","5",""
"1762","number","shule,mundamo,kengele,choori","mundamo","v","4","html-keyboard-response","1006","v","mundamo","true","",""
"1900.4000000953674","","","","","4","html-slider-response","1007","","","","5",""
"6822","tomato","chupi,chupa,mvua,takatak","mvua","j","4","html-keyboard-response","1008","j","mvua","true","",""
"1568.2999999523163","","","","","4","html-slider-response","1009","","","","5",""
"6571","coffin","kioo,barua,tubag,hulma","kioo","f","4","html-keyboard-response","1010","j","tubag","false","",""
"1757.7999999523163","","","","","4","html-slider-response","1011","","","","1",""
"4953","knee","duka,mvuke,kubale,bili","duka","f","4","html-keyboard-response","1012","f","duka","true","",""
"2039.5","","","","","4","html-slider-response","1013","","","","4",""
"1347","woman","pagtabon,bandari,bituin,kovuli","pagtabon","f","4","html-keyboard-response","1014","f","pagtabon","true","",""
"2153.9000000953674","","","","","4","html-slider-response","1015","","","","5",""
"4187","stone","ulimwengu,wingi,mkasi,asili","wingi","v","4","html-keyboard-response","1016","f","ulimwengu","false","",""
"1645","","","","","4","html-slider-response","1017","","","","2",""
"3365","bread","dari,kaili,dizeli,bugas","dari","f","4","html-keyboard-response","1018","f","dari","true","",""
"2193.0999999046326","","","","","4","html-slider-response","1019","","","","5",""
"5089","triangle","kasadpan,kihozi,bentaha,liog","kasadpan","f","4","html-keyboard-response","1020","f","kasadpan","true","",""
"1785.5999999046326","","","","","4","html-slider-response","1021","","","","5",""
"3451","scissors","duga,tanuri,mtawa,suga","tanuri","v","4","html-keyboard-response","1022","j","mtawa","false","",""
"1556.4000000953674","","","","","4","html-slider-response","1023","","","","4",""
"13034","giraffe","daraja,jumatu,hangyo,mahitabo","mahitabo","n","4","html-keyboard-response","1024","j","hangyo","false","",""
"1610.5","","","","","4","html-slider-response","1025","","","","2",""
"5034","flower","tamasha,lobo,bega,usiku","bega","j","4","html-keyboard-response","1026","j","bega","true","",""
"1884.7000000476837","","","","","4","html-slider-response","1027","","","","4",""
"4891","candle","gabi,farasi,kupanda,geza","geza","n","4","html-keyboard-response","1028","n","geza","true","",""
"1736.2000000476837","","","","","4","html-slider-response","1029","","","","5",""
"2127","mother","kahawa,babaye,mbuzi,jokofu","babaye","v","4","html-keyboard-response","1030","v","babaye","true","",""
"1928.2999999523163","","","","","4","html-slider-response","1031","","","","5",""
"6165","towel","tembo,pagpalit,funzi,pito","pagpalit","v","4","html-keyboard-response","1032","v","pagpalit","true","",""
"1972.2000000476837","","","","","4","html-slider-response","1033","","","","3",""
"3036","elephant","petye,pagduol,suka,kito","kito","n","4","html-keyboard-response","1034","n","kito","true","",""
"1881.6000001430511","","","","","4","html-slider-response","1035","","","","5",""
"8227","shelf","bungtod,kadaot,awit,pamahaw","pamahaw","n","4","html-keyboard-response","1036","n","pamahaw","true","",""
"2260.0999999046326","","","","","4","html-slider-response","1037","","","","3",""
"5620","mosquito","isda,taras,gutom,martilyo","martilyo","n","4","html-keyboard-response","1038","n","martilyo","true","",""
"3198.9000000953674","","","","","4","html-slider-response","1039","","","","3",""
"5885","column","pundok,dila,pala,ufagio","ufagio","n","4","html-keyboard-response","1040","n","ufagio","true","",""
"2158.899999856949","","","","","4","html-slider-response","1041","","","","2",""
"1956","pants","pintal,chuki,hari,haki","haki","n","4","html-keyboard-response","1042","n","haki","true","",""
"2300.5999999046326","","","","","4","html-slider-response","1043","","","","5",""
"6798","list","wingu,alizeti,kuzama,kaso","wingu","f","4","html-keyboard-response","1044","f","wingu","true","",""
"2506.5","","","","","4","html-slider-response","1045","","","","2",""
"5629","bank","kudhibi,tualya,silingan,ofisi","silingan","j","4","html-keyboard-response","1046","j","silingan","true","",""
"2339.899999856949","","","","","4","html-slider-response","1047","","","","4",""
"2781","clock","kartasi,abang,mbwa,osha","mbwa","j","4","html-keyboard-response","1048","j","mbwa","true","",""
"1935.2000000476837","","","","","4","html-slider-response","1049","","","","5",""
"3120","ceiling","kugita,kawaida,rayna,maua","maua","n","4","html-keyboard-response","1050","n","maua","true","",""
"1721.7000000476837","","","","","4","html-slider-response","1051","","","","5",""
"6089","train","itik,sayari,dakika,mungu","sayari","v","4","html-keyboard-response","1052","v","sayari","true","",""
"2113.2999999523163","","","","","4","html-slider-response","1053","","","","4",""
"1897","magazine","kiti,gundi,mchawi,bahandi","kiti","f","4","html-keyboard-response","1054","f","kiti","true","",""
"1525.5999999046326","","","","","4","html-slider-response","1055","","","","5",""
"1745","office","hazini,leso,yatima,kuna","leso","v","4","html-keyboard-response","1056","v","leso","true","",""
"3039.7999999523163","","","","","4","html-slider-response","1057","","","","5",""
"6800","wheel","punda,tawo,bafuni,baadaye","bafuni","j","4","html-keyboard-response","1058","j","bafuni","true","",""
"2050.5999999046326","","","","","4","html-slider-response","1059","","","","1",""
"2978","spoon","betri,pagsulod,nzuri,ngazi","pagsulod","v","4","html-keyboard-response","1060","v","pagsulod","true","",""
"2243.7999999523163","","","","","4","html-slider-response","1061","","","","2",""
"6801","hammer","mekno,kitovu,layag,napakyas","napakyas","n","4","html-keyboard-response","1062","n","napakyas","true","",""
"1496","","","","","4","html-slider-response","1063","","","","2",""
"13402","cigar","ndugu,kuta,mlango,adhabu","adhabu","n","4","html-keyboard-response","1064","n","adhabu","true","",""
"1968.2000000476837","","","","","4","html-slider-response","1065","","","","3",""
"15548","shoe","nyeusi,uyoga,hatua,kama","uyoga","v","4","html-keyboard-response","1066","v","uyoga","true","",""
"1481.2000000476837","","","","","4","html-slider-response","1067","","","","4",""
"4269","list","alizeti,kuzama,kaso,wingu","wingu","n","5","html-keyboard-response","1069","n","wingu","true","",""
"1821.9000000953674","","","","","5","html-slider-response","1070","","","","4",""
"1834","number","shule,kengele,mundamo,choori","mundamo","j","5","html-keyboard-response","1071","j","mundamo","true","",""
"2146.4000000953674","","","","","5","html-slider-response","1072","","","","5",""
"3871","apple","kisu,ukame,estante,edad","kisu","f","5","html-keyboard-response","1073","f","kisu","true","",""
"2189.9000000953674","","","","","5","html-slider-response","1074","","","","4",""
"5228","knee","mvuke,kubale,bili,duka","duka","n","5","html-keyboard-response","1075","n","duka","true","",""
"1857.5","","","","","5","html-slider-response","1076","","","","2",""
"4293","tooth","kijiko,kabalaka,uadui,pahiyum","kabalaka","v","5","html-keyboard-response","1077","n","pahiyum","false","",""
"1695.1999998092651","","","","","5","html-slider-response","1078","","","","5",""
"1544","berry","abogado,nogozi,kinywa,kofia","kofia","n","5","html-keyboard-response","1079","n","kofia","true","",""
"1472.2000000476837","","","","","5","html-slider-response","1080","","","","5",""
"3824","bridge","sahani,daima,ngono,panya","sahani","f","5","html-keyboard-response","1081","f","sahani","true","",""
"2412.7000000476837","","","","","5","html-slider-response","1082","","","","3",""
"8560","perfume","bino,sungura,ndogo,katuyoan","katuyoan","n","5","html-keyboard-response","1083","n","katuyoan","true","",""
"1615.1999998092651","","","","","5","html-slider-response","1084","","","","2",""
"4462","ladder","mashua,pangalan,mwanga,kamba","pangalan","v","5","html-keyboard-response","1085","v","pangalan","true","",""
"1320.5","","","","","5","html-slider-response","1086","","","","2",""
"2437","pants","pintal,haki,chuki,hari","haki","v","5","html-keyboard-response","1087","v","haki","true","",""
"1419.7999999523163","","","","","5","html-slider-response","1088","","","","5",""
"1983","salmon","mzungu,sensilyo,seri,baharia","sensilyo","v","5","html-keyboard-response","1089","v","sensilyo","true","",""
"1709.9000000953674","","","","","5","html-slider-response","1090","","","","5",""
"5722","coffin","barua,tubag,hulma,kioo","kioo","n","5","html-keyboard-response","1091","n","kioo","true","",""
"1662.2999999523163","","","","","5","html-slider-response","1092","","","","1",""
"3308","park","bunifu,tambok,pwani,ihalas","bunifu","f","5","html-keyboard-response","1093","f","bunifu","true","",""
"1554","","","","","5","html-slider-response","1094","","","","4",""
"3502","giraffe","mahitabo,daraja,jumatu,hangyo","mahitabo","f","5","html-keyboard-response","1095","n","hangyo","false","",""
"2015.5999999046326","","","","","5","html-slider-response","1096","","","","3",""
"6806","mirror","rangi,sulagma,kanding,furaha","sulagma","v","5","html-keyboard-response","1097","v","sulagma","true","",""
"2041.5999999046326","","","","","5","html-slider-response","1098","","","","4",""
"2167","ceiling","kugita,maua,kawaida,rayna","maua","v","5","html-keyboard-response","1099","v","maua","true","",""
"1443.9000000953674","","","","","5","html-slider-response","1100","","","","5",""
"7854","marker","maji,mapafu,salita,atay","maji","f","5","html-keyboard-response","1101","f","maji","true","",""
"1430.7999999523163","","","","","5","html-slider-response","1102","","","","4",""
"3222","sock","ndoora,kimysa,mamba,mtirka","mamba","j","5","html-keyboard-response","1103","j","mamba","true","",""
"2133.2000000476837","","","","","5","html-slider-response","1104","","","","5",""
"1364","cop","mechezo,bustani,jikoni,bakus","mechezo","f","5","html-keyboard-response","1105","f","mechezo","true","",""
"1840.8999998569489","","","","","5","html-slider-response","1106","","","","5",""
"1725","gift","pagtawag,baba,nyange,baso","pagtawag","f","5","html-keyboard-response","1107","f","pagtawag","true","",""
"1691.7000000476837","","","","","5","html-slider-response","1108","","","","5",""
"2495","notebook","msitu,kila,mdudu,kemia","kemia","n","5","html-keyboard-response","1109","n","kemia","true","",""
"1428.2000000476837","","","","","5","html-slider-response","1110","","","","5",""
"1922","bank","kudhibi,silingan,tualya,ofisi","silingan","v","5","html-keyboard-response","1111","v","silingan","true","",""
"1466.7999999523163","","","","","5","html-slider-response","1112","","","","4",""
"4244","letter","filimbi,chuma,kifua,uhuru","kifua","j","5","html-keyboard-response","1113","n","uhuru","false","",""
"2579.5","","","","","5","html-slider-response","1114","","","","1",""
"1757","candle","gabi,farasi,kupanda,geza","geza","n","5","html-keyboard-response","1115","n","geza","true","",""
"1463.7000000476837","","","","","5","html-slider-response","1116","","","","4",""
"1546","bread","kaili,dizeli,dari,bugas","dari","j","5","html-keyboard-response","1117","j","dari","true","",""
"1745.7000000476837","","","","","5","html-slider-response","1118","","","","5",""
"2428","snake","jansa,karon,pagtukod,mvringo","pagtukod","j","5","html-keyboard-response","1119","j","pagtukod","true","",""
"2104.5999999046326","","","","","5","html-slider-response","1120","","","","4",""
"10921","rose","singizi,mwanake,paghalad,amani","paghalad","j","5","html-keyboard-response","1121","j","paghalad","true","",""
"2239.0999999046326","","","","","5","html-slider-response","1122","","","","2",""
"6955","hill","kushoto,kukimba,matumbo,sweta","matumbo","j","5","html-keyboard-response","1123","j","matumbo","true","",""
"1454.5","","","","","5","html-slider-response","1124","","","","1",""
"3088","train","sayari,itik,dakika,mungu","sayari","f","5","html-keyboard-response","1125","f","sayari","true","",""
"4163.699999809265","","","","","5","html-slider-response","1126","","","","3",""
"4941","shop","nopya,kerida,samaki,ndezu","samaki","j","5","html-keyboard-response","1127","j","samaki","true","",""
"1431.8999998569489","","","","","5","html-slider-response","1128","","","","4",""
"2370","nose","sehemu,gubat,kopa,kidole","sehemu","f","5","html-keyboard-response","1129","f","sehemu","true","",""
"1707.7999999523163","","","","","5","html-slider-response","1130","","","","5",""
"7178","boat","hamsi,pombe,kitanda,agalon","agalon","n","5","html-keyboard-response","1131","n","agalon","true","",""
"1524.1999998092651","","","","","5","html-slider-response","1132","","","","4",""
"4273","body","nyundu,tindashan,jibini,kununa","tindashan","v","5","html-keyboard-response","1133","v","tindashan","true","",""
"1917","","","","","5","html-slider-response","1134","","","","2",""
"8455","bed","kalipay,haraka,mapintas,starehe","mapintas","j","5","html-keyboard-response","1135","j","mapintas","true","",""
"1557.0999999046326","","","","","5","html-slider-response","1136","","","","2",""
"2213","squirrel","hofu,mahugaw,ukweli,kichwa","hofu","f","5","html-keyboard-response","1137","f","hofu","true","",""
"1799.1000001430511","","","","","5","html-slider-response","1138","","","","2",""
"2811","window","nanga,kujenga,umaga,kweli","kweli","n","5","html-keyboard-response","1139","j","umaga","false","",""
"1711.5999999046326","","","","","5","html-slider-response","1140","","","","2",""
"5537","bonfire","mwezi,goti,mfuko,kusanya","goti","v","5","html-keyboard-response","1141","v","goti","true","",""
"1296.9000000953674","","","","","5","html-slider-response","1142","","","","4",""
"2594","fish","bala,buli,baho,imani","buli","v","5","html-keyboard-response","1143","v","buli","true","",""
"1903.7000000476837","","","","","5","html-slider-response","1144","","","","4",""
"1608","cat","neyemba,baki,akili,paghukom","paghukom","n","5","html-keyboard-response","1145","n","paghukom","true","",""
"1896.2000000476837","","","","","5","html-slider-response","1146","","","","5",""
"6683","spider","kamwe,bunyag,mkboa,atop","kamwe","f","5","html-keyboard-response","1147","f","kamwe","true","",""
"1967.7999999523163","","","","","5","html-slider-response","1148","","","","2",""
"2274","eel","ishara,kunywa,kabuang,msumari","msumari","n","5","html-keyboard-response","1149","n","msumari","true","",""
"1593.2000000476837","","","","","5","html-slider-response","1150","","","","5",""
"1368","woman","pagtabon,bandari,bituin,kovuli","pagtabon","f","5","html-keyboard-response","1151","f","pagtabon","true","",""
"1659.6000001430511","","","","","5","html-slider-response","1152","","","","5",""
"1696","magazine","gundi,mchawi,bahandi,kiti","kiti","n","5","html-keyboard-response","1153","n","kiti","true","",""
"1541.5","","","","","5","html-slider-response","1154","","","","5",""
"5370","pudding","aibu,abug,mpishi,iring","aibu","f","5","html-keyboard-response","1155","f","aibu","true","",""
"1958.2000000476837","","","","","5","html-slider-response","1156","","","","5",""
"6058","lamp","daub,bilaska,afya,mbolea","afya","j","5","html-keyboard-response","1157","j","afya","true","",""
"1398.8000001907349","","","","","5","html-slider-response","1158","","","","2",""
"2115","cave","kesho,ganti,maisha,nyundo","kesho","f","5","html-keyboard-response","1159","f","kesho","true","",""
"1622.7000000476837","","","","","5","html-slider-response","1160","","","","5",""
"1700","shoulder","kelele,ndaniya,mkuu,guruwe","mkuu","j","5","html-keyboard-response","1161","j","mkuu","true","",""
"1568.8999998569489","","","","","5","html-slider-response","1162","","","","5",""
"6068","stone","ulimwengu,wingi,mkasi,asili","wingi","v","5","html-keyboard-response","1163","v","wingi","true","",""
"1616.5","","","","","5","html-slider-response","1164","","","","1",""
"6104","column","pundok,dila,ufagio,pala","ufagio","j","5","html-keyboard-response","1165","j","ufagio","true","",""
"1310.7000000476837","","","","","5","html-slider-response","1166","","","","2",""
"3826","page","wakala,ishiri,wimbo,skina","wimbo","j","5","html-keyboard-response","1167","j","wimbo","true","",""
"1714.8000001907349","","","","","5","html-slider-response","1168","","","","1",""
"6694","shoe","nyeusi,uyoga,hatua,kama","uyoga","v","5","html-keyboard-response","1169","v","uyoga","true","",""
"1370.2000000476837","","","","","5","html-slider-response","1170","","","","1",""
"1676","clock","kartasi,abang,mbwa,osha","mbwa","j","5","html-keyboard-response","1171","j","mbwa","true","",""
"1656.1000001430511","","","","","5","html-slider-response","1172","","","","5",""
"7203","towel","tembo,funzi,pito,pagpalit","pagpalit","n","5","html-keyboard-response","1173","n","pagpalit","true","",""
"2461.4000000953674","","","","","5","html-slider-response","1174","","","","3",""
"7438","tomato","chupi,chupa,takatak,mvua","mvua","n","5","html-keyboard-response","1175","n","mvua","true","",""
"2081.0999999046326","","","","","5","html-slider-response","1176","","","","3",""
"4802","bucket","baga,ijayo,init,kiatu","kiatu","n","5","html-keyboard-response","1177","n","kiatu","true","",""
"1723.7000000476837","","","","","5","html-slider-response","1178","","","","2",""
"2599","finger","simu,moyo,sufuria,lima","moyo","v","5","html-keyboard-response","1179","v","moyo","true","",""
"1502","","","","","5","html-slider-response","1180","","","","4",""
"1552","mother","kahawa,babaye,mbuzi,jokofu","babaye","v","5","html-keyboard-response","1181","v","babaye","true","",""
"1847.2999999523163","","","","","5","html-slider-response","1182","","","","5",""
"4402","human","bado,kikapu,tinapay,punguza","tinapay","j","5","html-keyboard-response","1183","j","tinapay","true","",""
"1905.8999998569489","","","","","5","html-slider-response","1184","","","","3",""
"1472","sun","basi,bendi,luha,uongo","basi","f","5","html-keyboard-response","1185","f","basi","true","",""
"1985.7000000476837","","","","","5","html-slider-response","1186","","","","5",""
"5524","fork","baboy,paghago,mgonjwa,gorisi","mgonjwa","j","5","html-keyboard-response","1187","j","mgonjwa","true","",""
"1593.7999999523163","","","","","5","html-slider-response","1188","","","","4",""
"2000","donkey","bloke,lalake,rombus,elfu","elfu","n","5","html-keyboard-response","1189","n","elfu","true","",""
"1790.6999998092651","","","","","5","html-slider-response","1190","","","","5",""
"5349","wolf","lugha,kaburi,ndizi,mchuzi","lugha","f","5","html-keyboard-response","1191","f","lugha","true","",""
"1852.5999999046326","","","","","5","html-slider-response","1192","","","","5",""
"10915","cigar","ndugu,kuta,adhabu,mlango","adhabu","j","5","html-keyboard-response","1193","n","mlango","false","",""
"1797.7999999523163","","","","","5","html-slider-response","1194","","","","1",""
"2621","olive","jiwe,bata,siagi,welder","jiwe","f","5","html-keyboard-response","1195","f","jiwe","true","",""
"1554","","","","","5","html-slider-response","1196","","","","5",""
"4437","key","miaka,chombo,goma,ahos","chombo","v","5","html-keyboard-response","1197","v","chombo","true","",""
"1517","","","","","5","html-slider-response","1198","","","","4",""
"2483","door","tena,soko,surali,nyota","surali","j","5","html-keyboard-response","1199","j","surali","true","",""
"1868.5999999046326","","","","","5","html-slider-response","1200","","","","4",""
"4544","wheel","bafuni,punda,tawo,baadaye","bafuni","f","5","html-keyboard-response","1201","f","bafuni","true","",""
"1498.0999999046326","","","","","5","html-slider-response","1202","","","","2",""
"12184","basket","kumbuka,utepe,hasira,kumba","kumba","n","5","html-keyboard-response","1203","f","kumbuka","false","",""
"1560.8999998569489","","","","","5","html-slider-response","1204","","","","4",""
"6317","elephant","petye,pagduol,suka,kito","kito","n","5","html-keyboard-response","1205","n","kito","true","",""
"1567.5","","","","","5","html-slider-response","1206","","","","5",""
"1394","office","hazini,yatima,kuna,leso","leso","n","5","html-keyboard-response","1207","n","leso","true","",""
"1390.2999999523163","","","","","5","html-slider-response","1208","","","","5",""
"4097","music","baiski,mraba,mageho,tumbo","baiski","f","5","html-keyboard-response","1209","f","baiski","true","",""
"1839.5","","","","","5","html-slider-response","1210","","","","4",""
"7566","tissue","lamigas,ugomvi,kisiwa,katika","ugomvi","v","5","html-keyboard-response","1211","v","ugomvi","true","",""
"1939.7000000476837","","","","","5","html-slider-response","1212","","","","4",""
"2667","curtain","lisud,bulwawan,chubani,mchanga","mchanga","n","5","html-keyboard-response","1213","n","mchanga","true","",""
"2152.5999999046326","","","","","5","html-slider-response","1214","","","","5",""
"4886","flag","trekta,ndege,mkate,kawa","trekta","f","5","html-keyboard-response","1215","f","trekta","true","",""
"1495.7000000476837","","","","","5","html-slider-response","1216","","","","5",""
"4683","dog","lubi,washia,bahari,kalamu","bahari","j","5","html-keyboard-response","1217","j","bahari","true","",""
"2152.100000143051","","","","","5","html-slider-response","1218","","","","5",""
"5693","cup","dagat,shimoni,jeraha,matumai","matumai","n","5","html-keyboard-response","1219","n","matumai","true","",""
"2022.1000001430511","","","","","5","html-slider-response","1220","","","","2",""
"7811","sheet","bililhon,juuya,watu,kamantis","bililhon","f","5","html-keyboard-response","1221","v","juuya","false","",""
"1520.7999999523163","","","","","5","html-slider-response","1222","","","","1",""
"2864","spoon","pagsulod,betri,nzuri,ngazi","pagsulod","f","5","html-keyboard-response","1223","f","pagsulod","true","",""
"1998.9000000953674","","","","","5","html-slider-response","1224","","","","4",""
"2277","flower","tamasha,bega,lobo,usiku","bega","v","5","html-keyboard-response","1225","v","bega","true","",""
"2092","","","","","5","html-slider-response","1226","","","","4",""
"4452","picture","silya,chaki,asin,kubwa","kubwa","n","5","html-keyboard-response","1227","n","kubwa","true","",""
"1582.7000000476837","","","","","5","html-slider-response","1228","","","","4",""
"6401","puppet","mazishi,napulo,lamok,godoro","mazishi","f","5","html-keyboard-response","1229","f","mazishi","true","",""
"2570.100000143051","","","","","5","html-slider-response","1230","","","","3",""
"5270","banana","kasamok,hagdan,kazi,twai","kazi","j","5","html-keyboard-response","1231","j","kazi","true","",""
"1567.3999998569489","","","","","5","html-slider-response","1232","","","","4",""
"2279","book","kuhesa,mali,picha,mara","mali","v","5","html-keyboard-response","1233","v","mali","true","",""
"1772.8999998569489","","","","","5","html-slider-response","1234","","","","5",""
"2468","triangle","kihozi,bentaha,kasadpan,liog","kasadpan","j","5","html-keyboard-response","1235","f","kihozi","false","",""
"3631.2999999523163","","","","","5","html-slider-response","1236","","","","1",""
"5097","poster","madungog,nchi,fedha,kasuko","madungog","f","5","html-keyboard-response","1237","f","madungog","true","",""
"1471.3999998569489","","","","","5","html-slider-response","1238","","","","4",""
"2204","box","kuacha,rafiki,kitande,adui","adui","n","5","html-keyboard-response","1239","n","adui","true","",""
"1760.3000001907349","","","","","5","html-slider-response","1240","","","","4",""
"4722","mosquito","isda,taras,gutom,martilyo","martilyo","n","5","html-keyboard-response","1241","n","martilyo","true","",""
"1535.4000000953674","","","","","5","html-slider-response","1242","","","","5",""
"5545","shelf","bungtod,kadaot,pamahaw,awit","pamahaw","j","5","html-keyboard-response","1243","j","pamahaw","true","",""
"1628.0999999046326","","","","","5","html-slider-response","1244","","","","2",""
"6926","scissors","tanuri,duga,mtawa,suga","tanuri","f","5","html-keyboard-response","1245","f","tanuri","true","",""
"1565.0999999046326","","","","","5","html-slider-response","1246","","","","2",""
"4757","hammer","mekno,napakyas,kitovu,layag","napakyas","v","5","html-keyboard-response","1247","v","napakyas","true","",""
"1980.7000000476837","","","","","5","html-slider-response","1248","","","","3",""
