"rt","en_word","options","swa_word","correct_answer","phase","trial_type","trial_index","input_answer","input_word","accuracy","certainty","amt_choices"
"5804","bonfire","goti,mwezi,mfuko,kusanya","goti","f","2","html-keyboard-response","106","f","goti","true","",""
"1631.3000000044703","","","","","2","html-slider-response","107","","","","2",""
"3997","flower","tamasha,lobo,bega,usiku","bega","j","2","html-keyboard-response","108","n","usiku","false","",""
"1934.4000000059605","","","","","2","html-slider-response","109","","","","2",""
"5570","column","pundok,ufagio,dila,pala","ufagio","v","2","html-keyboard-response","110","j","dila","false","",""
"1764","","","","","2","html-slider-response","111","","","","1",""
"3394","music","mraba,baiski,mageho,tumbo","baiski","v","2","html-keyboard-response","112","n","tumbo","false","",""
"2947.1999999955297","","","","","2","html-slider-response","113","","","","1",""
"5336","spider","bunyag,mkboa,kamwe,atop","kamwe","j","2","html-keyboard-response","114","v","mkboa","false","",""
"1962","","","","","2","html-slider-response","115","","","","1",""
"3978","fork","baboy,paghago,mgonjwa,gorisi","mgonjwa","j","2","html-keyboard-response","116","j","mgonjwa","true","",""
"1836.1000000014901","","","","","2","html-slider-response","117","","","","1",""
"3915","mosquito","isda,taras,martilyo,gutom","martilyo","j","2","html-keyboard-response","118","j","martilyo","true","",""
"2358.10000000149","","","","","2","html-slider-response","119","","","","4",""
"3231","banana","kasamok,hagdan,twai,kazi","kazi","n","2","html-keyboard-response","120","n","kazi","true","",""
"1519.0999999940395","","","","","2","html-slider-response","121","","","","4",""
"4155","cup","matumai,dagat,shimoni,jeraha","matumai","f","2","html-keyboard-response","122","f","matumai","true","",""
"2144.89999999851","","","","","2","html-slider-response","123","","","","1",""
"4126","shop","nopya,kerida,samaki,ndezu","samaki","j","2","html-keyboard-response","124","v","kerida","false","",""
"1771.8000000044703","","","","","2","html-slider-response","125","","","","1",""
"4887","elephant","petye,pagduol,kito,suka","kito","j","2","html-keyboard-response","126","f","petye","false","",""
"1687.0999999940395","","","","","2","html-slider-response","127","","","","1",""
"8328","bucket","baga,ijayo,kiatu,init","kiatu","j","2","html-keyboard-response","128","j","kiatu","true","",""
"1395","","","","","2","html-slider-response","129","","","","2",""
"3658","book","kuhesa,mali,picha,mara","mali","v","2","html-keyboard-response","130","f","kuhesa","false","",""
"1656.0999999940395","","","","","2","html-slider-response","131","","","","1",""
"4730","mirror","rangi,kanding,sulagma,furaha","sulagma","j","2","html-keyboard-response","132","j","sulagma","true","",""
"1736.1000000014901","","","","","2","html-slider-response","133","","","","1",""
"3926","office","hazini,yatima,leso,kuna","leso","j","2","html-keyboard-response","134","n","kuna","false","",""
"1690","","","","","2","html-slider-response","135","","","","1",""
"7741","body","nyundu,jibini,kununa,tindashan","tindashan","n","2","html-keyboard-response","136","n","tindashan","true","",""
"3114.89999999851","","","","","2","html-slider-response","137","","","","2",""
"4104","perfume","bino,katuyoan,sungura,ndogo","katuyoan","v","2","html-keyboard-response","138","v","katuyoan","true","",""
"1831.1000000014901","","","","","2","html-slider-response","139","","","","1",""
"7199","olive","bata,siagi,welder,jiwe","jiwe","n","2","html-keyboard-response","140","n","jiwe","true","",""
"1909.9000000059605","","","","","2","html-slider-response","141","","","","1",""
"3743","magazine","gundi,kiti,mchawi,bahandi","kiti","v","2","html-keyboard-response","142","j","mchawi","false","",""
"1858","","","","","2","html-slider-response","143","","","","1",""
"7053","bread","dari,kaili,dizeli,bugas","dari","f","2","html-keyboard-response","144","n","bugas","false","",""
"1654.1000000014901","","","","","2","html-slider-response","145","","","","1",""
"3411","cave","ganti,kesho,maisha,nyundo","kesho","v","2","html-keyboard-response","146","n","nyundo","false","",""
"1767","","","","","2","html-slider-response","147","","","","1",""
"4992","ladder","mashua,mwanga,kamba,pangalan","pangalan","n","2","html-keyboard-response","148","f","mashua","false","",""
"1534.8999999985099","","","","","2","html-slider-response","149","","","","1",""
"3452","human","bado,kikapu,tinapay,punguza","tinapay","j","2","html-keyboard-response","150","f","bado","false","",""
"1573.1000000014901","","","","","2","html-slider-response","151","","","","1",""
"3375","clock","kartasi,abang,mbwa,osha","mbwa","j","2","html-keyboard-response","152","v","abang","false","",""
"1560.2000000029802","","","","","2","html-slider-response","153","","","","1",""
"3660","shelf","bungtod,kadaot,awit,pamahaw","pamahaw","n","2","html-keyboard-response","154","f","bungtod","false","",""
"1842.1000000014901","","","","","2","html-slider-response","155","","","","1",""
"3770","salmon","sensilyo,mzungu,seri,baharia","sensilyo","f","2","html-keyboard-response","156","j","seri","false","",""
"1457.8999999985099","","","","","2","html-slider-response","157","","","","1",""
"2558","coffin","kioo,barua,tubag,hulma","kioo","f","2","html-keyboard-response","158","f","kioo","true","",""
"2410.5","","","","","2","html-slider-response","159","","","","4",""
"2904","notebook","kemia,msitu,kila,mdudu","kemia","f","2","html-keyboard-response","160","n","mdudu","false","",""
"3234.39999999851","","","","","2","html-slider-response","161","","","","1",""
"3036","shoulder","kelele,ndaniya,mkuu,guruwe","mkuu","j","2","html-keyboard-response","162","n","guruwe","false","",""
"1414","","","","","2","html-slider-response","163","","","","1",""
"6423","park","tambok,pwani,bunifu,ihalas","bunifu","j","2","html-keyboard-response","164","j","bunifu","true","",""
"3557.5","","","","","2","html-slider-response","165","","","","3",""
"5439","number","shule,kengele,choori,mundamo","mundamo","n","2","html-keyboard-response","166","j","choori","false","",""
"1833.2999999970198","","","","","2","html-slider-response","167","","","","1",""
"6832","apple","ukame,kisu,estante,edad","kisu","v","2","html-keyboard-response","168","f","ukame","false","",""
"3524.10000000149","","","","","2","html-slider-response","169","","","","1",""
"4843","letter","kifua,filimbi,chuma,uhuru","kifua","f","2","html-keyboard-response","170","f","kifua","true","",""
"1195.1999999955297","","","","","2","html-slider-response","171","","","","2",""
"4919","eel","ishara,kunywa,msumari,kabuang","msumari","j","2","html-keyboard-response","172","f","ishara","false","",""
"1545.8999999985099","","","","","2","html-slider-response","173","","","","1",""
"4640","cop","bustani,mechezo,jikoni,bakus","mechezo","v","2","html-keyboard-response","174","n","bakus","false","",""
"1639.1999999955297","","","","","2","html-slider-response","175","","","","1",""
"3133","wolf","lugha,kaburi,ndizi,mchuzi","lugha","f","2","html-keyboard-response","176","v","kaburi","false","",""
"1438.8999999985099","","","","","2","html-slider-response","177","","","","1",""
"2481","squirrel","mahugaw,ukweli,hofu,kichwa","hofu","j","2","html-keyboard-response","178","j","hofu","true","",""
"1850.6999999955297","","","","","2","html-slider-response","179","","","","5",""
"3535","nose","sehemu,gubat,kopa,kidole","sehemu","f","2","html-keyboard-response","180","f","sehemu","true","",""
"1706.1000000014901","","","","","2","html-slider-response","181","","","","1",""
"1795","sock","mamba,ndoora,kimysa,mtirka","mamba","f","2","html-keyboard-response","182","f","mamba","true","",""
"3161.2999999970198","","","","","2","html-slider-response","183","","","","5",""
"5680","bank","silingan,kudhibi,tualya,ofisi","silingan","f","2","html-keyboard-response","184","f","silingan","true","",""
"1794.0999999940395","","","","","2","html-slider-response","185","","","","1",""
"3463","donkey","bloke,lalake,elfu,rombus","elfu","j","2","html-keyboard-response","186","j","elfu","true","",""
"2025.1999999955297","","","","","2","html-slider-response","187","","","","1",""
"3399","poster","nchi,madungog,fedha,kasuko","madungog","v","2","html-keyboard-response","188","n","kasuko","false","",""
"1626.7999999970198","","","","","2","html-slider-response","189","","","","1",""
"3380","puppet","napulo,lamok,godoro,mazishi","mazishi","n","2","html-keyboard-response","190","v","lamok","false","",""
"1500.5","","","","","2","html-slider-response","191","","","","1",""
"3036","hill","kushoto,matumbo,kukimba,sweta","matumbo","v","2","html-keyboard-response","192","v","matumbo","true","",""
"1596.5","","","","","2","html-slider-response","193","","","","1",""
"2732","tooth","kabalaka,kijiko,uadui,pahiyum","kabalaka","f","2","html-keyboard-response","194","v","kijiko","false","",""
"3811.10000000149","","","","","2","html-slider-response","195","","","","1",""
"5191","woman","bandari,bituin,pagtabon,kovuli","pagtabon","j","2","html-keyboard-response","196","f","bandari","false","",""
"1525.1000000014901","","","","","2","html-slider-response","197","","","","1",""
"3048","wheel","punda,tawo,baadaye,bafuni","bafuni","n","2","html-keyboard-response","198","f","punda","false","",""
"1463.8999999985099","","","","","2","html-slider-response","199","","","","1",""
"4631","mother","kahawa,mbuzi,jokofu,babaye","babaye","n","2","html-keyboard-response","200","v","mbuzi","false","",""
"1855.3000000044703","","","","","2","html-slider-response","201","","","","1",""
"3268","bed","kalipay,haraka,starehe,mapintas","mapintas","n","2","html-keyboard-response","202","v","haraka","false","",""
"1329.1000000014901","","","","","2","html-slider-response","203","","","","1",""
"3531","key","miaka,chombo,goma,ahos","chombo","v","2","html-keyboard-response","204","f","miaka","false","",""
"1553.3000000044703","","","","","2","html-slider-response","205","","","","1",""
"3901","page","wimbo,wakala,ishiri,skina","wimbo","f","2","html-keyboard-response","206","n","skina","false","",""
"1408.3000000044703","","","","","2","html-slider-response","207","","","","1",""
"4215","pants","haki,pintal,chuki,hari","haki","f","2","html-keyboard-response","208","j","chuki","false","",""
"1693.8000000044703","","","","","2","html-slider-response","209","","","","1",""
"3347","sun","bendi,luha,basi,uongo","basi","j","2","html-keyboard-response","210","j","basi","true","",""
"1600","","","","","2","html-slider-response","211","","","","1",""
"3440","finger","moyo,simu,sufuria,lima","moyo","f","2","html-keyboard-response","212","v","simu","false","",""
"1541.7000000029802","","","","","2","html-slider-response","213","","","","1",""
"4137","shoe","nyeusi,uyoga,hatua,kama","uyoga","v","2","html-keyboard-response","214","f","nyeusi","false","",""
"1443.8999999985099","","","","","2","html-slider-response","215","","","","1",""
"2718","giraffe","daraja,jumatu,mahitabo,hangyo","mahitabo","j","2","html-keyboard-response","216","n","hangyo","false","",""
"1452.8000000044703","","","","","2","html-slider-response","217","","","","1",""
"4159","dog","lubi,washia,bahari,kalamu","bahari","j","2","html-keyboard-response","218","j","bahari","true","",""
"1844.1000000014901","","","","","2","html-slider-response","219","","","","1",""
"3370","box","kuacha,rafiki,adui,kitande","adui","j","2","html-keyboard-response","220","v","rafiki","false","",""
"1558.5","","","","","2","html-slider-response","221","","","","1",""
"4218","scissors","duga,mtawa,suga,tanuri","tanuri","n","2","html-keyboard-response","222","f","duga","false","",""
"1807","","","","","2","html-slider-response","223","","","","1",""
"3070","cat","paghukom,neyemba,baki,akili","paghukom","f","2","html-keyboard-response","224","j","baki","false","",""
"1461.1000000014901","","","","","2","html-slider-response","225","","","","1",""
"2109","basket","kumbuka,utepe,hasira,kumba","kumba","n","2","html-keyboard-response","226","f","kumbuka","false","",""
"1644.2000000029802","","","","","2","html-slider-response","227","","","","1",""
"6252","snake","jansa,karon,pagtukod,mvringo","pagtukod","j","2","html-keyboard-response","228","n","mvringo","false","",""
"1602.5","","","","","2","html-slider-response","229","","","","1",""
"3381","gift","pagtawag,baba,nyange,baso","pagtawag","f","2","html-keyboard-response","230","f","pagtawag","true","",""
"2015.7999999970198","","","","","2","html-slider-response","231","","","","1",""
"2822","train","itik,dakika,mungu,sayari","sayari","n","2","html-keyboard-response","232","v","dakika","false","",""
"1409.6000000014901","","","","","2","html-slider-response","233","","","","1",""
"2636","pudding","abug,mpishi,iring,aibu","aibu","n","2","html-keyboard-response","234","j","iring","false","",""
"1495.1000000014901","","","","","2","html-slider-response","235","","","","1",""
"3977","tomato","chupi,mvua,chupa,takatak","mvua","v","2","html-keyboard-response","236","n","takatak","false","",""
"1845","","","","","2","html-slider-response","237","","","","1",""
"4113","stone","wingi,ulimwengu,mkasi,asili","wingi","f","2","html-keyboard-response","238","f","wingi","true","",""
"1954","","","","","2","html-slider-response","239","","","","1",""
"3439","hammer","mekno,kitovu,napakyas,layag","napakyas","j","2","html-keyboard-response","240","j","napakyas","true","",""
"1534.8999999985099","","","","","2","html-slider-response","241","","","","1",""
"5085","knee","mvuke,duka,kubale,bili","duka","v","2","html-keyboard-response","242","n","bili","false","",""
"1847.5","","","","","2","html-slider-response","243","","","","1",""
"2731","ceiling","kugita,kawaida,rayna,maua","maua","n","2","html-keyboard-response","244","v","kawaida","false","",""
"1837.7999999970198","","","","","2","html-slider-response","245","","","","1",""
"4395","spoon","betri,nzuri,pagsulod,ngazi","pagsulod","j","2","html-keyboard-response","246","v","nzuri","false","",""
"1530.8999999985099","","","","","2","html-slider-response","247","","","","1",""
"2300","marker","mapafu,salita,maji,atay","maji","j","2","html-keyboard-response","248","n","atay","false","",""
"1785.1000000014901","","","","","2","html-slider-response","249","","","","1",""
"2094","candle","geza,gabi,farasi,kupanda","geza","f","2","html-keyboard-response","250","j","farasi","false","",""
"1553.0999999940395","","","","","2","html-slider-response","251","","","","1",""
"4088","tissue","lamigas,ugomvi,kisiwa,katika","ugomvi","v","2","html-keyboard-response","252","n","katika","false","",""
"1318.5","","","","","2","html-slider-response","253","","","","1",""
"3567","bridge","daima,ngono,panya,sahani","sahani","n","2","html-keyboard-response","254","f","daima","false","",""
"1411.7999999970198","","","","","2","html-slider-response","255","","","","1",""
"3118","berry","abogado,nogozi,kofia,kinywa","kofia","j","2","html-keyboard-response","256","j","kofia","true","",""
"1547.8999999985099","","","","","2","html-slider-response","257","","","","1",""
"2545","triangle","kihozi,kasadpan,bentaha,liog","kasadpan","v","2","html-keyboard-response","258","j","bentaha","false","",""
"1851.6999999955297","","","","","2","html-slider-response","259","","","","1",""
"4121","door","surali,tena,soko,nyota","surali","f","2","html-keyboard-response","260","v","tena","false","",""
"1991","","","","","2","html-slider-response","261","","","","1",""
"4976","fish","bala,buli,baho,imani","buli","v","2","html-keyboard-response","262","v","buli","true","",""
"1264.1999999955297","","","","","2","html-slider-response","263","","","","1",""
"5135","curtain","mchanga,lisud,bulwawan,chubani","mchanga","f","2","html-keyboard-response","264","f","mchanga","true","",""
"1452.0999999940395","","","","","2","html-slider-response","265","","","","1",""
"3560","flag","ndege,trekta,mkate,kawa","trekta","v","2","html-keyboard-response","266","n","kawa","false","",""
"1745.0999999940395","","","","","2","html-slider-response","267","","","","1",""
"2784","boat","agalon,hamsi,pombe,kitanda","agalon","f","2","html-keyboard-response","268","j","pombe","false","",""
"1570.7000000029802","","","","","2","html-slider-response","269","","","","1",""
"2827","rose","paghalad,singizi,mwanake,amani","paghalad","f","2","html-keyboard-response","270","v","singizi","false","",""
"1476.0999999940395","","","","","2","html-slider-response","271","","","","1",""
"4080","lamp","afya,daub,bilaska,mbolea","afya","f","2","html-keyboard-response","272","j","bilaska","false","",""
"1417.8999999985099","","","","","2","html-slider-response","273","","","","1",""
"2880","cigar","ndugu,kuta,mlango,adhabu","adhabu","n","2","html-keyboard-response","274","f","ndugu","false","",""
"1680.4000000059605","","","","","2","html-slider-response","275","","","","1",""
"4556","list","alizeti,wingu,kuzama,kaso","wingu","v","2","html-keyboard-response","276","v","wingu","true","",""
"3430.2000000029802","","","","","2","html-slider-response","277","","","","3",""
"5219","sheet","juuya,watu,bililhon,kamantis","bililhon","j","2","html-keyboard-response","278","j","bililhon","true","",""
"1819.3999999985099","","","","","2","html-slider-response","279","","","","1",""
"3543","picture","silya,chaki,kubwa,asin","kubwa","j","2","html-keyboard-response","280","f","silya","false","",""
"1263.6000000014901","","","","","2","html-slider-response","281","","","","1",""
"3113","towel","tembo,pagpalit,funzi,pito","pagpalit","v","2","html-keyboard-response","282","f","tembo","false","",""
"1704.3000000044703","","","","","2","html-slider-response","283","","","","1",""
"2735","window","nanga,kujenga,umaga,kweli","kweli","n","2","html-keyboard-response","284","j","umaga","false","",""
"1464","","","","","2","html-slider-response","285","","","","1",""
"4499","box","adui,kuacha,rafiki,kitande","adui","f","3","html-keyboard-response","293","n","kitande","false","","4"
"2206.1999999955297","","","","","3","html-slider-response","294","","","","1",""
"7268","","","","","3","html-keyboard-response","295","","","","",""
"3015","pants","pintal,haki,chuki,hari","haki","v","3","html-keyboard-response","296","j","chuki","false","","4"
"2131.10000000149","","","","","3","html-slider-response","297","","","","1",""
"7246","","","","","3","html-keyboard-response","298","","","","",""
"4271","cup","dagat,matumai,shimoni,jeraha","matumai","v","3","html-keyboard-response","299","j","shimoni","false","","4"
"2558.89999999851","","","","","3","html-slider-response","300","","","","1",""
"3559","","","","","3","html-keyboard-response","301","","","","",""
"4190","triangle","kihozi,kasadpan,bentaha,liog","kasadpan","v","3","html-keyboard-response","302","v","kasadpan","true","","4"
"1927.1999999955297","","","","","3","html-slider-response","303","","","","1",""
"5338","","","","","3","html-keyboard-response","304","","","","",""
"3692","curtain","mchanga,lisud,bulwawan,chubani","mchanga","f","3","html-keyboard-response","305","j","bulwawan","false","","4"
"1459.2999999970198","","","","","3","html-slider-response","306","","","","1",""
"7669","","","","","3","html-keyboard-response","307","","","","",""
"4030","clock","kartasi,abang,osha,mbwa","mbwa","n","3","html-keyboard-response","308","j","osha","false","","4"
"1679.2999999970198","","","","","3","html-slider-response","309","","","","1",""
"6731","","","","","3","html-keyboard-response","310","","","","",""
"7182","mirror","rangi,sulagma,kanding,furaha","sulagma","v","3","html-keyboard-response","311","v","sulagma","true","","4"
"1883","","","","","3","html-slider-response","312","","","","1",""
"3657","","","","","3","html-keyboard-response","313","","","","",""
"2244","coffin","barua,tubag,kioo,hulma","kioo","j","3","html-keyboard-response","314","j","kioo","true","","1"
"3290.1999999955297","","","","","3","html-slider-response","315","","","","5",""
"2800","","","","","3","html-keyboard-response","316","","","","",""
"3702","magazine","kiti,gundi,mchawi,bahandi","kiti","f","3","html-keyboard-response","317","j","mchawi","false","","4"
"1634.2999999970198","","","","","3","html-slider-response","318","","","","1",""
"4121","","","","","3","html-keyboard-response","319","","","","",""
"2267","column","ufagio,pundok,dila,pala","ufagio","f","3","html-keyboard-response","320","f","ufagio","true","","1"
"2447.60000000149","","","","","3","html-slider-response","321","","","","5",""
"2313","","","","","3","html-keyboard-response","322","","","","",""
"4537","number","shule,kengele,choori,mundamo","mundamo","n","3","html-keyboard-response","323","n","mundamo","true","","4"
"1861","","","","","3","html-slider-response","324","","","","1",""
"4581","","","","","3","html-keyboard-response","325","","","","",""
"3583","rose","paghalad,singizi,mwanake,amani","paghalad","f","3","html-keyboard-response","326","f","paghalad","true","","4"
"1615.1000000014901","","","","","3","html-slider-response","327","","","","1",""
"4177","","","","","3","html-keyboard-response","328","","","","",""
"6346","eel","ishara,kunywa,msumari,kabuang","msumari","j","3","html-keyboard-response","329","f","ishara","false","","4"
"1745.0999999940395","","","","","3","html-slider-response","330","","","","1",""
"5050","","","","","3","html-keyboard-response","331","","","","",""
"3049","gift","baba,pagtawag,nyange,baso","pagtawag","v","3","html-keyboard-response","332","v","pagtawag","true","","4"
"1872.9000000059605","","","","","3","html-slider-response","333","","","","1",""
"2484","","","","","3","html-keyboard-response","334","","","","",""
"2536","apple","ukame,kisu,estante,edad","kisu","v","3","html-keyboard-response","335","v","kisu","true","","1"
"2066.39999999851","","","","","3","html-slider-response","336","","","","5",""
"2330","","","","","3","html-keyboard-response","337","","","","",""
"1970","wheel","punda,tawo,baadaye,bafuni","bafuni","n","3","html-keyboard-response","338","n","bafuni","true","","1"
"2593.3000000044703","","","","","3","html-slider-response","339","","","","5",""
"1685","","","","","3","html-keyboard-response","340","","","","",""
"3155","knee","mvuke,duka,kubale,bili","duka","v","3","html-keyboard-response","341","v","duka","true","","4"
"2148.89999999851","","","","","3","html-slider-response","342","","","","1",""
"1302","","","","","3","html-keyboard-response","343","","","","",""
"1743","basket","kumbuka,kumba,utepe,hasira","kumba","v","3","html-keyboard-response","344","v","kumba","true","","1"
"3075.60000000149","","","","","3","html-slider-response","345","","","","5",""
"1218","","","","","3","html-keyboard-response","346","","","","",""
"3911","park","tambok,pwani,ihalas,bunifu","bunifu","n","3","html-keyboard-response","347","n","bunifu","true","","4"
"2044","","","","","3","html-slider-response","348","","","","2",""
"1424","","","","","3","html-keyboard-response","349","","","","",""
"4176","finger","simu,sufuria,moyo,lima","moyo","j","3","html-keyboard-response","350","f","simu","false","","4"
"2159.2000000029802","","","","","3","html-slider-response","351","","","","1",""
"2444","","","","","3","html-keyboard-response","352","","","","",""
"3668","boat","hamsi,pombe,kitanda,agalon","agalon","n","3","html-keyboard-response","353","n","agalon","true","","4"
"1498.1000000014901","","","","","3","html-slider-response","354","","","","1",""
"1949","","","","","3","html-keyboard-response","355","","","","",""
"3897","hill","kushoto,matumbo,kukimba,sweta","matumbo","v","3","html-keyboard-response","356","v","matumbo","true","","4"
"1402.2000000029802","","","","","3","html-slider-response","357","","","","1",""
"2579","","","","","3","html-keyboard-response","358","","","","",""
"5777","train","itik,sayari,dakika,mungu","sayari","v","3","html-keyboard-response","359","j","dakika","false","","4"
"1701.9000000059605","","","","","3","html-slider-response","360","","","","1",""
"2842","","","","","3","html-keyboard-response","361","","","","",""
"5891","wolf","kaburi,lugha,ndizi,mchuzi","lugha","v","3","html-keyboard-response","362","j","ndizi","false","","4"
"1642","","","","","3","html-slider-response","363","","","","1",""
"3293","","","","","3","html-keyboard-response","364","","","","",""
"6388","snake","jansa,karon,mvringo,pagtukod","pagtukod","n","3","html-keyboard-response","365","n","pagtukod","true","","4"
"1958","","","","","3","html-slider-response","366","","","","1",""
"3677","","","","","3","html-keyboard-response","367","","","","",""
"2923","tooth","kijiko,uadui,kabalaka,pahiyum","kabalaka","j","3","html-keyboard-response","368","v","uadui","false","","4"
"1676.1999999955297","","","","","3","html-slider-response","369","","","","1",""
"2316","","","","","3","html-keyboard-response","370","","","","",""
"3632","notebook","msitu,kemia,kila,mdudu","kemia","v","3","html-keyboard-response","371","n","mdudu","false","","4"
"1467.5999999940395","","","","","3","html-slider-response","372","","","","1",""
"1235","","","","","3","html-keyboard-response","373","","","","",""
"3905","flag","ndege,trekta,mkate,kawa","trekta","v","3","html-keyboard-response","374","n","kawa","false","","4"
"1401","","","","","3","html-slider-response","375","","","","1",""
"2066","","","","","3","html-keyboard-response","376","","","","",""
"2584","squirrel","mahugaw,hofu,ukweli,kichwa","hofu","v","3","html-keyboard-response","377","v","hofu","true","","4"
"1789.1999999955297","","","","","3","html-slider-response","378","","","","5",""
"1232","","","","","3","html-keyboard-response","379","","","","",""
"3108","door","tena,soko,nyota,surali","surali","n","3","html-keyboard-response","380","f","tena","false","","4"
"1686.3999999985099","","","","","3","html-slider-response","381","","","","1",""
"3127","","","","","3","html-keyboard-response","382","","","","",""
"4931","salmon","sensilyo,mzungu,seri,baharia","sensilyo","f","3","html-keyboard-response","383","f","sensilyo","true","","4"
"1894.1999999955297","","","","","3","html-slider-response","384","","","","1",""
"2205","","","","","3","html-keyboard-response","385","","","","",""
"3738","shoulder","kelele,mkuu,ndaniya,guruwe","mkuu","v","3","html-keyboard-response","386","v","mkuu","true","","4"
"1891","","","","","3","html-slider-response","387","","","","1",""
"2026","","","","","3","html-keyboard-response","388","","","","",""
"4710","lamp","daub,bilaska,afya,mbolea","afya","j","3","html-keyboard-response","389","j","afya","true","","4"
"1777.0999999940395","","","","","3","html-slider-response","390","","","","1",""
"1028","","","","","3","html-keyboard-response","391","","","","",""
"2000","shelf","bungtod,kadaot,awit,pamahaw","pamahaw","n","3","html-keyboard-response","392","n","pamahaw","true","","1"
"1934.8000000044703","","","","","3","html-slider-response","393","","","","5",""
"1905","","","","","3","html-keyboard-response","394","","","","",""
"4642","human","tinapay,bado,kikapu,punguza","tinapay","f","3","html-keyboard-response","395","v","bado","false","","4"
"1547.6999999955297","","","","","3","html-slider-response","396","","","","1",""
"1556","","","","","3","html-keyboard-response","397","","","","",""
"3340","towel","tembo,funzi,pito,pagpalit","pagpalit","n","3","html-keyboard-response","398","j","pito","false","","4"
"2293.2999999970198","","","","","3","html-slider-response","399","","","","1",""
"3977","","","","","3","html-keyboard-response","400","","","","",""
"3555","cat","paghukom,neyemba,baki,akili","paghukom","f","3","html-keyboard-response","401","j","baki","false","","4"
"1755.9000000059605","","","","","3","html-slider-response","402","","","","1",""
"4464","","","","","3","html-keyboard-response","403","","","","",""
"5041","spider","bunyag,kamwe,mkboa,atop","kamwe","v","3","html-keyboard-response","404","j","mkboa","false","","4"
"1575","","","","","3","html-slider-response","405","","","","1",""
"1607","","","","","3","html-keyboard-response","406","","","","",""
"4139","window","nanga,kujenga,umaga,kweli","kweli","n","3","html-keyboard-response","407","v","kujenga","false","","4"
"1684.1000000014901","","","","","3","html-slider-response","408","","","","1",""
"1964","","","","","3","html-keyboard-response","409","","","","",""
"2342","woman","pagtabon,bandari,bituin,kovuli","pagtabon","f","3","html-keyboard-response","410","f","pagtabon","true","","1"
"2116.39999999851","","","","","3","html-slider-response","411","","","","5",""
"1371","","","","","3","html-keyboard-response","412","","","","",""
"3459","giraffe","daraja,mahitabo,jumatu,hangyo","mahitabo","v","3","html-keyboard-response","413","v","mahitabo","true","","4"
"1675.1000000014901","","","","","3","html-slider-response","414","","","","1",""
"4428","","","","","3","html-keyboard-response","415","","","","",""
"5502","elephant","petye,pagduol,kito,suka","kito","j","3","html-keyboard-response","416","f","petye","false","","4"
"2103.8000000044703","","","","","3","html-slider-response","417","","","","1",""
"1563","","","","","3","html-keyboard-response","418","","","","",""
"4928","cave","ganti,kesho,maisha,nyundo","kesho","v","3","html-keyboard-response","419","n","nyundo","false","","4"
"1548.3999999985099","","","","","3","html-slider-response","420","","","","1",""
"1084","","","","","3","html-keyboard-response","421","","","","",""
"4265","bread","kaili,dizeli,bugas,dari","dari","n","3","html-keyboard-response","422","n","dari","true","","4"
"1941.2000000029802","","","","","3","html-slider-response","423","","","","1",""
"1502","","","","","3","html-keyboard-response","424","","","","",""
"4531","stone","ulimwengu,mkasi,asili,wingi","wingi","n","3","html-keyboard-response","425","v","mkasi","false","","4"
"1476.8999999985099","","","","","3","html-slider-response","426","","","","1",""
"1031","","","","","3","html-keyboard-response","427","","","","",""
"3528","donkey","bloke,lalake,elfu,rombus","elfu","j","3","html-keyboard-response","428","f","bloke","false","","4"
"1586.8000000044703","","","","","3","html-slider-response","429","","","","1",""
"2448","","","","","3","html-keyboard-response","430","","","","",""
"4312","bridge","sahani,daima,ngono,panya","sahani","f","3","html-keyboard-response","431","f","sahani","true","","4"
"1520.1000000014901","","","","","3","html-slider-response","432","","","","1",""
"1559","","","","","3","html-keyboard-response","433","","","","",""
"2834","bonfire","mwezi,mfuko,kusanya,goti","goti","n","3","html-keyboard-response","434","n","goti","true","","4"
"2743.7999999970198","","","","","3","html-slider-response","435","","","","3",""
"1022","","","","","3","html-keyboard-response","436","","","","",""
"4813","book","kuhesa,picha,mara,mali","mali","n","3","html-keyboard-response","437","n","mali","true","","4"
"2649.89999999851","","","","","3","html-slider-response","438","","","","1",""
"934","","","","","3","html-keyboard-response","439","","","","",""
"7783","fish","bala,buli,baho,imani","buli","v","3","html-keyboard-response","440","j","baho","false","","4"
"1485.3999999985099","","","","","3","html-slider-response","441","","","","1",""
"1066","","","","","3","html-keyboard-response","442","","","","",""
"3118","spoon","betri,nzuri,ngazi,pagsulod","pagsulod","n","3","html-keyboard-response","443","j","ngazi","false","","4"
"1391.8999999985099","","","","","3","html-slider-response","444","","","","1",""
"2198","","","","","3","html-keyboard-response","445","","","","",""
"3043","scissors","duga,mtawa,suga,tanuri","tanuri","n","3","html-keyboard-response","446","v","mtawa","false","","4"
"1524","","","","","3","html-slider-response","447","","","","1",""
"1021","","","","","3","html-keyboard-response","448","","","","",""
"2368","page","wakala,wimbo,ishiri,skina","wimbo","v","3","html-keyboard-response","449","v","wimbo","true","","4"
"1379.1000000014901","","","","","3","html-slider-response","450","","","","1",""
"2009","","","","","3","html-keyboard-response","451","","","","",""
"2045","nose","gubat,kopa,sehemu,kidole","sehemu","j","3","html-keyboard-response","452","j","sehemu","true","","1"
"2066","","","","","3","html-slider-response","453","","","","5",""
"1482","","","","","3","html-keyboard-response","454","","","","",""
"5301","ceiling","maua,kugita,kawaida,rayna","maua","f","3","html-keyboard-response","455","n","rayna","false","","4"
"1573.1000000014901","","","","","3","html-slider-response","456","","","","1",""
"1098","","","","","3","html-keyboard-response","457","","","","",""
"3555","bucket","baga,kiatu,ijayo,init","kiatu","v","3","html-keyboard-response","458","j","ijayo","false","","4"
"2144.5","","","","","3","html-slider-response","459","","","","1",""
"1295","","","","","3","html-keyboard-response","460","","","","",""
"2339","berry","abogado,nogozi,kinywa,kofia","kofia","n","3","html-keyboard-response","461","n","kofia","true","","1"
"1766.5","","","","","3","html-slider-response","462","","","","5",""
"1352","","","","","3","html-keyboard-response","463","","","","",""
"5269","mother","kahawa,mbuzi,jokofu,babaye","babaye","n","3","html-keyboard-response","464","n","babaye","true","","1"
"1557.0999999940395","","","","","3","html-slider-response","465","","","","5",""
"983","","","","","3","html-keyboard-response","466","","","","",""
"3849","mosquito","isda,taras,martilyo,gutom","martilyo","j","3","html-keyboard-response","467","j","martilyo","true","","4"
"1510.7999999970198","","","","","3","html-slider-response","468","","","","4",""
"775","","","","","3","html-keyboard-response","469","","","","",""
"3556","perfume","bino,sungura,ndogo,katuyoan","katuyoan","n","3","html-keyboard-response","470","v","sungura","false","","4"
"1569","","","","","3","html-slider-response","471","","","","1",""
"2375","","","","","3","html-keyboard-response","472","","","","",""
"9718","sheet","bililhon,juuya,watu,kamantis","bililhon","f","3","html-keyboard-response","473","f","bililhon","true","","4"
"2664.8000000044703","","","","","3","html-slider-response","474","","","","3",""
"993","","","","","3","html-keyboard-response","475","","","","",""
"2003","puppet","napulo,lamok,godoro,mazishi","mazishi","n","3","html-keyboard-response","476","n","mazishi","true","","1"
"1955.1000000014901","","","","","3","html-slider-response","477","","","","5",""
"1351","","","","","3","html-keyboard-response","478","","","","",""
"4033","poster","nchi,fedha,madungog,kasuko","madungog","j","3","html-keyboard-response","479","j","madungog","true","","4"
"2087.1999999955297","","","","","3","html-slider-response","480","","","","1",""
"892","","","","","3","html-keyboard-response","481","","","","",""
"4835","music","baiski,mraba,mageho,tumbo","baiski","f","3","html-keyboard-response","482","v","mraba","false","","4"
"2655.89999999851","","","","","3","html-slider-response","483","","","","1",""
"1474","","","","","3","html-keyboard-response","484","","","","",""
"3908","key","miaka,chombo,goma,ahos","chombo","v","3","html-keyboard-response","485","v","chombo","true","","4"
"1434.1000000014901","","","","","3","html-slider-response","486","","","","1",""
"1236","","","","","3","html-keyboard-response","487","","","","",""
"2893","sock","ndoora,mamba,kimysa,mtirka","mamba","v","3","html-keyboard-response","488","v","mamba","true","","4"
"2194.89999999851","","","","","3","html-slider-response","489","","","","5",""
"732","","","","","3","html-keyboard-response","490","","","","",""
"3060","marker","mapafu,salita,atay,maji","maji","n","3","html-keyboard-response","491","v","salita","false","","4"
"1989.8999999985099","","","","","3","html-slider-response","492","","","","1",""
"834","","","","","3","html-keyboard-response","493","","","","",""
"4224","office","hazini,leso,yatima,kuna","leso","v","3","html-keyboard-response","494","f","hazini","false","","4"
"1649.1000000014901","","","","","3","html-slider-response","495","","","","1",""
"1120","","","","","3","html-keyboard-response","496","","","","",""
"3429","shoe","nyeusi,hatua,uyoga,kama","uyoga","j","3","html-keyboard-response","497","v","hatua","false","","4"
"2087.10000000149","","","","","3","html-slider-response","498","","","","1",""
"1033","","","","","3","html-keyboard-response","499","","","","",""
"4675","cop","bustani,jikoni,bakus,mechezo","mechezo","n","3","html-keyboard-response","500","n","mechezo","true","","4"
"1707.1999999955297","","","","","3","html-slider-response","501","","","","1",""
"1027","","","","","3","html-keyboard-response","502","","","","",""
"3893","bank","kudhibi,tualya,ofisi,silingan","silingan","n","3","html-keyboard-response","503","j","ofisi","false","","4"
"1553.1000000014901","","","","","3","html-slider-response","504","","","","1",""
"1204","","","","","3","html-keyboard-response","505","","","","",""
"3388","letter","kifua,filimbi,chuma,uhuru","kifua","f","3","html-keyboard-response","506","f","kifua","true","","1"
"2182.1999999955297","","","","","3","html-slider-response","507","","","","5",""
"1038","","","","","3","html-keyboard-response","508","","","","",""
"2214","dog","bahari,lubi,washia,kalamu","bahari","f","3","html-keyboard-response","509","f","bahari","true","","1"
"2437.2000000029802","","","","","3","html-slider-response","510","","","","5",""
"1443","","","","","3","html-keyboard-response","511","","","","",""
"4433","shop","nopya,samaki,kerida,ndezu","samaki","v","3","html-keyboard-response","512","n","ndezu","false","","4"
"1433.1000000014901","","","","","3","html-slider-response","513","","","","1",""
"1049","","","","","3","html-keyboard-response","514","","","","",""
"5315","flower","tamasha,lobo,bega,usiku","bega","j","3","html-keyboard-response","515","f","tamasha","false","","4"
"1871.3000000044703","","","","","3","html-slider-response","516","","","","1",""
"1243","","","","","3","html-keyboard-response","517","","","","",""
"3220","cigar","ndugu,kuta,adhabu,mlango","adhabu","j","3","html-keyboard-response","518","j","adhabu","true","","1"
"1950.3000000044703","","","","","3","html-slider-response","519","","","","5",""
"744","","","","","3","html-keyboard-response","520","","","","",""
"3285","hammer","mekno,kitovu,layag,napakyas","napakyas","n","3","html-keyboard-response","521","n","napakyas","true","","4"
"1987.3000000044703","","","","","3","html-slider-response","522","","","","1",""
"2348","","","","","3","html-keyboard-response","523","","","","",""
"16024","fork","baboy,mgonjwa,paghago,gorisi","mgonjwa","v","3","html-keyboard-response","524","j","paghago","false","","4"
"1997.1000000014901","","","","","3","html-slider-response","525","","","","2",""
"1196","","","","","3","html-keyboard-response","526","","","","",""
"1722","sun","basi,bendi,luha,uongo","basi","f","3","html-keyboard-response","527","f","basi","true","","1"
"2971.10000000149","","","","","3","html-slider-response","528","","","","5",""
"1214","","","","","3","html-keyboard-response","529","","","","",""
"4445","ladder","pangalan,mashua,mwanga,kamba","pangalan","f","3","html-keyboard-response","530","f","pangalan","true","","4"
"2097","","","","","3","html-slider-response","531","","","","1",""
"802","","","","","3","html-keyboard-response","532","","","","",""
"2560","banana","kasamok,hagdan,twai,kazi","kazi","n","3","html-keyboard-response","533","n","kazi","true","","1"
"1448.1000000014901","","","","","3","html-slider-response","534","","","","5",""
"1074","","","","","3","html-keyboard-response","535","","","","",""
"3090","pudding","abug,mpishi,iring,aibu","aibu","n","3","html-keyboard-response","536","j","iring","false","","4"
"1619.3000000044703","","","","","3","html-slider-response","537","","","","1",""
"950","","","","","3","html-keyboard-response","538","","","","",""
"4886","body","nyundu,jibini,kununa,tindashan","tindashan","n","3","html-keyboard-response","539","n","tindashan","true","","4"
"1809.8999999985099","","","","","3","html-slider-response","540","","","","2",""
"1016","","","","","3","html-keyboard-response","541","","","","",""
"4933","bed","kalipay,haraka,mapintas,starehe","mapintas","j","3","html-keyboard-response","542","v","haraka","false","","4"
"1962.8999999985099","","","","","3","html-slider-response","543","","","","1",""
"1723","","","","","3","html-keyboard-response","544","","","","",""
"5739","tissue","lamigas,kisiwa,ugomvi,katika","ugomvi","j","3","html-keyboard-response","545","f","lamigas","false","","4"
"1576.2999999970198","","","","","3","html-slider-response","546","","","","1",""
"855","","","","","3","html-keyboard-response","547","","","","",""
"3717","candle","geza,gabi,farasi,kupanda","geza","f","3","html-keyboard-response","548","j","farasi","false","","4"
"1550.1000000014901","","","","","3","html-slider-response","549","","","","1",""
"889","","","","","3","html-keyboard-response","550","","","","",""
"1977","tomato","chupi,chupa,takatak,mvua","mvua","n","3","html-keyboard-response","551","n","mvua","true","","1"
"2089.0999999940395","","","","","3","html-slider-response","552","","","","5",""
"1067","","","","","3","html-keyboard-response","553","","","","",""
"4147","list","wingu,alizeti,kuzama,kaso","wingu","f","3","html-keyboard-response","554","f","wingu","true","","4"
"2262.4000000059605","","","","","3","html-slider-response","555","","","","2",""
"975","","","","","3","html-keyboard-response","556","","","","",""
"3124","olive","bata,siagi,welder,jiwe","jiwe","n","3","html-keyboard-response","557","n","jiwe","true","","4"
"1812.2999999970198","","","","","3","html-slider-response","558","","","","1",""
"743","","","","","3","html-keyboard-response","559","","","","",""
"1672","picture","kubwa,silya,chaki,asin","kubwa","f","3","html-keyboard-response","560","f","kubwa","true","","1"
"1745.3999999985099","","","","","3","html-slider-response","561","","","","5",""
"935","","","","","3","html-keyboard-response","562","","","","",""
"5083","page","wakala,ishiri,skina,wimbo","wimbo","n","4","html-keyboard-response","888","n","wimbo","true","",""
"1961.1000000014901","","","","","4","html-slider-response","889","","","","1",""
"4615","sheet","juuya,bililhon,watu,kamantis","bililhon","v","4","html-keyboard-response","890","v","bililhon","true","",""
"1873.1999999955297","","","","","4","html-slider-response","891","","","","4",""
"6059","ladder","mashua,mwanga,pangalan,kamba","pangalan","j","4","html-keyboard-response","892","j","pangalan","true","",""
"2120.89999999851","","","","","4","html-slider-response","893","","","","2",""
"4117","door","tena,surali,soko,nyota","surali","v","4","html-keyboard-response","894","n","nyota","false","",""
"1477.7999999970198","","","","","4","html-slider-response","895","","","","1",""
"5459","spider","bunyag,kamwe,mkboa,atop","kamwe","v","4","html-keyboard-response","896","v","kamwe","true","",""
"1421.5","","","","","4","html-slider-response","897","","","","4",""
"4384","picture","silya,chaki,asin,kubwa","kubwa","n","4","html-keyboard-response","898","n","kubwa","true","",""
"1119","","","","","4","html-slider-response","899","","","","2",""
"5401","boat","hamsi,agalon,pombe,kitanda","agalon","v","4","html-keyboard-response","900","v","agalon","true","",""
"1160.8999999985099","","","","","4","html-slider-response","901","","","","2",""
"3255","donkey","bloke,elfu,lalake,rombus","elfu","v","4","html-keyboard-response","902","v","elfu","true","",""
"1773.8999999985099","","","","","4","html-slider-response","903","","","","4",""
"3975","book","mali,kuhesa,picha,mara","mali","f","4","html-keyboard-response","904","n","mara","false","",""
"3493.10000000149","","","","","4","html-slider-response","905","","","","1",""
"3931","cup","dagat,matumai,shimoni,jeraha","matumai","v","4","html-keyboard-response","906","j","shimoni","false","",""
"2404.7999999970198","","","","","4","html-slider-response","907","","","","2",""
"4438","sun","bendi,luha,basi,uongo","basi","j","4","html-keyboard-response","908","j","basi","true","",""
"1540.8999999985099","","","","","4","html-slider-response","909","","","","1",""
"4380","pudding","abug,aibu,mpishi,iring","aibu","v","4","html-keyboard-response","910","v","aibu","true","",""
"2648.89999999851","","","","","4","html-slider-response","911","","","","2",""
"4897","human","bado,kikapu,tinapay,punguza","tinapay","j","4","html-keyboard-response","912","j","tinapay","true","",""
"2920.2000000029802","","","","","4","html-slider-response","913","","","","3",""
"2880","squirrel","mahugaw,ukweli,hofu,kichwa","hofu","j","4","html-keyboard-response","914","j","hofu","true","",""
"1788.0999999940395","","","","","4","html-slider-response","915","","","","5",""
"4412","park","tambok,bunifu,pwani,ihalas","bunifu","v","4","html-keyboard-response","916","v","bunifu","true","",""
"1596","","","","","4","html-slider-response","917","","","","4",""
"3878","poster","nchi,fedha,kasuko,madungog","madungog","n","4","html-keyboard-response","918","n","madungog","true","",""
"2006","","","","","4","html-slider-response","919","","","","1",""
"3265","wolf","lugha,kaburi,ndizi,mchuzi","lugha","f","4","html-keyboard-response","920","f","lugha","true","",""
"1546","","","","","4","html-slider-response","921","","","","4",""
"9361","cat","paghukom,neyemba,baki,akili","paghukom","f","4","html-keyboard-response","922","f","paghukom","true","",""
"1844.5","","","","","4","html-slider-response","923","","","","2",""
"5568","fish","buli,bala,baho,imani","buli","f","4","html-keyboard-response","924","f","buli","true","",""
"1414.800000011921","","","","","4","html-slider-response","925","","","","2",""
"3413","tooth","kabalaka,kijiko,uadui,pahiyum","kabalaka","f","4","html-keyboard-response","926","v","kijiko","false","",""
"1670.6000000089407","","","","","4","html-slider-response","927","","","","1",""
"4717","cave","ganti,maisha,nyundo,kesho","kesho","n","4","html-keyboard-response","928","j","nyundo","false","",""
"1264.800000011921","","","","","4","html-slider-response","929","","","","1",""
"3698","lamp","daub,afya,bilaska,mbolea","afya","v","4","html-keyboard-response","930","j","bilaska","false","",""
"1721.9000000059605","","","","","4","html-slider-response","931","","","","1",""
"2365","banana","kasamok,hagdan,kazi,twai","kazi","j","4","html-keyboard-response","932","j","kazi","true","",""
"2571.5999999940395","","","","","4","html-slider-response","933","","","","4",""
"5391","bonfire","mwezi,mfuko,kusanya,goti","goti","n","4","html-keyboard-response","934","n","goti","true","",""
"1380.2999999970198","","","","","4","html-slider-response","935","","","","4",""
"5823","cop","bustani,mechezo,jikoni,bakus","mechezo","v","4","html-keyboard-response","936","n","bakus","false","",""
"1432.2000000029802","","","","","4","html-slider-response","937","","","","2",""
"3738","marker","mapafu,salita,atay,maji","maji","n","4","html-keyboard-response","938","n","maji","true","",""
"1352","","","","","4","html-slider-response","939","","","","1",""
"2795","window","kweli,nanga,kujenga,umaga","kweli","f","4","html-keyboard-response","940","v","nanga","false","",""
"1486.7999999970198","","","","","4","html-slider-response","941","","","","1",""
"3553","body","nyundu,jibini,tindashan,kununa","tindashan","j","4","html-keyboard-response","942","j","tindashan","true","",""
"1926.800000011921","","","","","4","html-slider-response","943","","","","2",""
"5926","apple","ukame,estante,kisu,edad","kisu","j","4","html-keyboard-response","944","j","kisu","true","",""
"1266.9000000059605","","","","","4","html-slider-response","945","","","","2",""
"2820","salmon","mzungu,sensilyo,seri,baharia","sensilyo","v","4","html-keyboard-response","946","v","sensilyo","true","",""
"1657.2999999970198","","","","","4","html-slider-response","947","","","","5",""
"4105","bed","kalipay,mapintas,haraka,starehe","mapintas","v","4","html-keyboard-response","948","v","mapintas","true","",""
"1999.1000000089407","","","","","4","html-slider-response","949","","","","5",""
"4522","berry","kofia,abogado,nogozi,kinywa","kofia","f","4","html-keyboard-response","950","f","kofia","true","",""
"1478.0999999940395","","","","","4","html-slider-response","951","","","","2",""
"3131","mirror","rangi,kanding,sulagma,furaha","sulagma","j","4","html-keyboard-response","952","n","furaha","false","",""
"1937.2000000029802","","","","","4","html-slider-response","953","","","","1",""
"5725","flag","trekta,ndege,mkate,kawa","trekta","f","4","html-keyboard-response","954","f","trekta","true","",""
"1835.4000000059605","","","","","4","html-slider-response","955","","","","2",""
"4832","shoulder","kelele,mkuu,ndaniya,guruwe","mkuu","v","4","html-keyboard-response","956","v","mkuu","true","",""
"1594","","","","","4","html-slider-response","957","","","","2",""
"6108","tissue","lamigas,kisiwa,ugomvi,katika","ugomvi","j","4","html-keyboard-response","958","f","lamigas","false","",""
"2260.7999999970198","","","","","4","html-slider-response","959","","","","1",""
"5132","notebook","msitu,kila,kemia,mdudu","kemia","j","4","html-keyboard-response","960","j","kemia","true","",""
"1348.199999988079","","","","","4","html-slider-response","961","","","","2",""
"3417","snake","pagtukod,jansa,karon,mvringo","pagtukod","f","4","html-keyboard-response","962","f","pagtukod","true","",""
"1995","","","","","4","html-slider-response","963","","","","4",""
"2184","finger","simu,moyo,sufuria,lima","moyo","v","4","html-keyboard-response","964","v","moyo","true","",""
"1601.1000000089407","","","","","4","html-slider-response","965","","","","5",""
"8564","basket","kumba,kumbuka,utepe,hasira","kumba","f","4","html-keyboard-response","966","n","hasira","false","",""
"1980.7999999970198","","","","","4","html-slider-response","967","","","","1",""
"6255","curtain","lisud,bulwawan,chubani,mchanga","mchanga","n","4","html-keyboard-response","968","n","mchanga","true","",""
"1350.2000000029802","","","","","4","html-slider-response","969","","","","4",""
"5402","perfume","bino,katuyoan,sungura,ndogo","katuyoan","v","4","html-keyboard-response","970","v","katuyoan","true","",""
"2226.800000011921","","","","","4","html-slider-response","971","","","","3",""
"3271","key","miaka,goma,chombo,ahos","chombo","j","4","html-keyboard-response","972","f","miaka","false","",""
"1473.0999999940395","","","","","4","html-slider-response","973","","","","2",""
"5610","olive","jiwe,bata,siagi,welder","jiwe","f","4","html-keyboard-response","974","f","jiwe","true","",""
"2688","","","","","4","html-slider-response","975","","","","4",""
"5161","rose","paghalad,singizi,mwanake,amani","paghalad","f","4","html-keyboard-response","976","f","paghalad","true","",""
"2551","","","","","4","html-slider-response","977","","","","3",""
"4512","bridge","daima,ngono,panya,sahani","sahani","n","4","html-keyboard-response","978","f","daima","false","",""
"1576.1000000089407","","","","","4","html-slider-response","979","","","","2",""
"2591","hill","kushoto,kukimba,sweta,matumbo","matumbo","n","4","html-keyboard-response","980","n","matumbo","true","",""
"1313","","","","","4","html-slider-response","981","","","","5",""
"3123","letter","filimbi,chuma,uhuru,kifua","kifua","n","4","html-keyboard-response","982","n","kifua","true","",""
"1700.0999999940395","","","","","4","html-slider-response","983","","","","3",""
"1955","sock","mamba,ndoora,kimysa,mtirka","mamba","f","4","html-keyboard-response","984","f","mamba","true","",""
"1639.2000000029802","","","","","4","html-slider-response","985","","","","5",""
"4917","fork","mgonjwa,baboy,paghago,gorisi","mgonjwa","f","4","html-keyboard-response","986","j","paghago","false","",""
"2168.9000000059605","","","","","4","html-slider-response","987","","","","1",""
"2478","box","kuacha,rafiki,kitande,adui","adui","n","4","html-keyboard-response","988","n","adui","true","",""
"1904.2999999970198","","","","","4","html-slider-response","989","","","","1",""
"3083","gift","baba,nyange,baso,pagtawag","pagtawag","n","4","html-keyboard-response","990","n","pagtawag","true","",""
"1748.8999999910593","","","","","4","html-slider-response","991","","","","2",""
"4023","bucket","baga,ijayo,kiatu,init","kiatu","j","4","html-keyboard-response","992","v","ijayo","false","",""
"2240.9000000059605","","","","","4","html-slider-response","993","","","","2",""
"8073","shop","nopya,samaki,kerida,ndezu","samaki","v","4","html-keyboard-response","994","v","samaki","true","",""
"1413.800000011921","","","","","4","html-slider-response","995","","","","2",""
"3592","puppet","mazishi,napulo,lamok,godoro","mazishi","f","4","html-keyboard-response","996","v","napulo","false","",""
"1750.2999999970198","","","","","4","html-slider-response","997","","","","1",""
"2242","nose","sehemu,gubat,kopa,kidole","sehemu","f","4","html-keyboard-response","998","n","kidole","false","",""
"1217.0999999940395","","","","","4","html-slider-response","999","","","","1",""
"3911","music","mraba,baiski,mageho,tumbo","baiski","v","4","html-keyboard-response","1000","j","mageho","false","",""
"1400.1000000089407","","","","","4","html-slider-response","1001","","","","2",""
"5689","dog","lubi,washia,kalamu,bahari","bahari","n","4","html-keyboard-response","1002","n","bahari","true","",""
"2433","","","","","4","html-slider-response","1003","","","","3",""
"5554","eel","ishara,msumari,kunywa,kabuang","msumari","v","4","html-keyboard-response","1004","v","msumari","true","",""
"2036.2000000029802","","","","","4","html-slider-response","1005","","","","4",""
"6851","number","shule,kengele,mundamo,choori","mundamo","j","4","html-keyboard-response","1006","f","shule","false","",""
"2544.7999999970198","","","","","4","html-slider-response","1007","","","","1",""
"3715","tomato","mvua,chupi,chupa,takatak","mvua","f","4","html-keyboard-response","1008","v","chupi","false","",""
"1433.7000000029802","","","","","4","html-slider-response","1009","","","","1",""
"1957","coffin","barua,tubag,kioo,hulma","kioo","j","4","html-keyboard-response","1010","j","kioo","true","",""
"2490.8999999910593","","","","","4","html-slider-response","1011","","","","5",""
"3512","knee","mvuke,kubale,bili,duka","duka","n","4","html-keyboard-response","1012","n","duka","true","",""
"2441","","","","","4","html-slider-response","1013","","","","1",""
"5518","woman","pagtabon,bandari,bituin,kovuli","pagtabon","f","4","html-keyboard-response","1014","f","pagtabon","true","",""
"1982.7999999970198","","","","","4","html-slider-response","1015","","","","2",""
"2999","stone","wingi,ulimwengu,mkasi,asili","wingi","f","4","html-keyboard-response","1016","v","ulimwengu","false","",""
"1574.1000000089407","","","","","4","html-slider-response","1017","","","","1",""
"3139","bread","kaili,dizeli,bugas,dari","dari","n","4","html-keyboard-response","1018","j","bugas","false","",""
"1653.5","","","","","4","html-slider-response","1019","","","","1",""
"12147","triangle","kihozi,kasadpan,bentaha,liog","kasadpan","v","4","html-keyboard-response","1020","v","kasadpan","true","",""
"1705.7999999970198","","","","","4","html-slider-response","1021","","","","4",""
"3822","scissors","tanuri,duga,mtawa,suga","tanuri","f","4","html-keyboard-response","1022","j","mtawa","false","",""
"1454.9000000059605","","","","","4","html-slider-response","1023","","","","1",""
"5066","giraffe","daraja,mahitabo,jumatu,hangyo","mahitabo","v","4","html-keyboard-response","1024","v","mahitabo","true","",""
"1517.2000000029802","","","","","4","html-slider-response","1025","","","","1",""
"4239","flower","bega,tamasha,lobo,usiku","bega","f","4","html-keyboard-response","1026","v","tamasha","false","",""
"1422.5999999940395","","","","","4","html-slider-response","1027","","","","1",""
"4015","candle","gabi,farasi,kupanda,geza","geza","n","4","html-keyboard-response","1028","v","farasi","false","",""
"4788.70000000298","","","","","4","html-slider-response","1029","","","","1",""
"4034","mother","kahawa,babaye,mbuzi,jokofu","babaye","v","4","html-keyboard-response","1030","v","babaye","true","",""
"1834.7999999970198","","","","","4","html-slider-response","1031","","","","4",""
"2666","towel","tembo,pagpalit,funzi,pito","pagpalit","v","4","html-keyboard-response","1032","n","pito","false","",""
"1330.7000000029802","","","","","4","html-slider-response","1033","","","","1",""
"5096","elephant","petye,pagduol,kito,suka","kito","j","4","html-keyboard-response","1034","v","pagduol","false","",""
"1689.9000000059605","","","","","4","html-slider-response","1035","","","","1",""
"3339","shelf","bungtod,kadaot,awit,pamahaw","pamahaw","n","4","html-keyboard-response","1036","j","awit","false","",""
"1827.699999988079","","","","","4","html-slider-response","1037","","","","1",""
"2026","mosquito","martilyo,isda,taras,gutom","martilyo","f","4","html-keyboard-response","1038","f","martilyo","true","",""
"1624.199999988079","","","","","4","html-slider-response","1039","","","","5",""
"4005","column","pundok,ufagio,dila,pala","ufagio","v","4","html-keyboard-response","1040","n","pala","false","",""
"1281","","","","","4","html-slider-response","1041","","","","1",""
"4784","pants","pintal,chuki,haki,hari","haki","j","4","html-keyboard-response","1042","n","hari","false","",""
"1469.0999999940395","","","","","4","html-slider-response","1043","","","","1",""
"3948","list","wingu,alizeti,kuzama,kaso","wingu","f","4","html-keyboard-response","1044","f","wingu","true","",""
"1862","","","","","4","html-slider-response","1045","","","","2",""
"4537","bank","kudhibi,silingan,tualya,ofisi","silingan","v","4","html-keyboard-response","1046","v","silingan","true","",""
"2995","","","","","4","html-slider-response","1047","","","","1",""
"5312","clock","kartasi,mbwa,abang,osha","mbwa","v","4","html-keyboard-response","1048","j","abang","false","",""
"1333.7999999970198","","","","","4","html-slider-response","1049","","","","1",""
"3813","ceiling","kugita,kawaida,maua,rayna","maua","j","4","html-keyboard-response","1050","j","maua","true","",""
"2177.0999999940395","","","","","4","html-slider-response","1051","","","","1",""
"3729","train","itik,dakika,mungu,sayari","sayari","n","4","html-keyboard-response","1052","v","dakika","false","",""
"1646.7999999970198","","","","","4","html-slider-response","1053","","","","1",""
"2613","magazine","kiti,gundi,mchawi,bahandi","kiti","f","4","html-keyboard-response","1054","n","bahandi","false","",""
"1938.1000000089407","","","","","4","html-slider-response","1055","","","","1",""
"3481","office","hazini,yatima,leso,kuna","leso","j","4","html-keyboard-response","1056","f","hazini","false","",""
"1567.7999999970198","","","","","4","html-slider-response","1057","","","","1",""
"4067","wheel","punda,tawo,bafuni,baadaye","bafuni","j","4","html-keyboard-response","1058","v","tawo","false","",""
"1529","","","","","4","html-slider-response","1059","","","","1",""
"3461","spoon","betri,nzuri,pagsulod,ngazi","pagsulod","j","4","html-keyboard-response","1060","j","pagsulod","true","",""
"1512.2000000029802","","","","","4","html-slider-response","1061","","","","1",""
"3738","hammer","napakyas,mekno,kitovu,layag","napakyas","f","4","html-keyboard-response","1062","f","napakyas","true","",""
"1405.0999999940395","","","","","4","html-slider-response","1063","","","","2",""
"6335","cigar","ndugu,kuta,mlango,adhabu","adhabu","n","4","html-keyboard-response","1064","n","adhabu","true","",""
"1495.9000000059605","","","","","4","html-slider-response","1065","","","","4",""
"3986","shoe","nyeusi,hatua,kama,uyoga","uyoga","n","4","html-keyboard-response","1066","v","hatua","false","",""
"1487.0999999940395","","","","","4","html-slider-response","1067","","","","1",""
"2935","list","alizeti,kuzama,wingu,kaso","wingu","j","5","html-keyboard-response","1069","j","wingu","true","",""
"2337.7000000029802","","","","","5","html-slider-response","1070","","","","2",""
"2432","number","mundamo,shule,kengele,choori","mundamo","f","5","html-keyboard-response","1071","v","shule","false","",""
"1504.5999999940395","","","","","5","html-slider-response","1072","","","","2",""
"2874","apple","ukame,estante,edad,kisu","kisu","n","5","html-keyboard-response","1073","n","kisu","true","",""
"1583.1000000089407","","","","","5","html-slider-response","1074","","","","4",""
"3513","knee","mvuke,kubale,duka,bili","duka","j","5","html-keyboard-response","1075","j","duka","true","",""
"1756.8999999910593","","","","","5","html-slider-response","1076","","","","2",""
"3780","tooth","kijiko,uadui,kabalaka,pahiyum","kabalaka","j","5","html-keyboard-response","1077","f","kijiko","false","",""
"1073.1000000089407","","","","","5","html-slider-response","1078","","","","1",""
"2547","berry","abogado,kofia,nogozi,kinywa","kofia","v","5","html-keyboard-response","1079","v","kofia","true","",""
"1163.7999999970198","","","","","5","html-slider-response","1080","","","","2",""
"2582","bridge","sahani,daima,ngono,panya","sahani","f","5","html-keyboard-response","1081","n","panya","false","",""
"1732","","","","","5","html-slider-response","1082","","","","1",""
"2736","perfume","bino,sungura,ndogo,katuyoan","katuyoan","n","5","html-keyboard-response","1083","n","katuyoan","true","",""
"2383.7999999970198","","","","","5","html-slider-response","1084","","","","1",""
"3645","ladder","mashua,mwanga,pangalan,kamba","pangalan","j","5","html-keyboard-response","1085","j","pangalan","true","",""
"1378.8999999910593","","","","","5","html-slider-response","1086","","","","1",""
"8951","pants","haki,pintal,chuki,hari","haki","f","5","html-keyboard-response","1087","f","haki","true","",""
"3564.7999999970198","","","","","5","html-slider-response","1088","","","","2",""
"2113","salmon","sensilyo,mzungu,seri,baharia","sensilyo","f","5","html-keyboard-response","1089","f","sensilyo","true","",""
"2473","","","","","5","html-slider-response","1090","","","","5",""
"1835","coffin","barua,tubag,hulma,kioo","kioo","n","5","html-keyboard-response","1091","n","kioo","true","",""
"2147.4000000059605","","","","","5","html-slider-response","1092","","","","5",""
"2959","park","bunifu,tambok,pwani,ihalas","bunifu","f","5","html-keyboard-response","1093","f","bunifu","true","",""
"2829.1000000089407","","","","","5","html-slider-response","1094","","","","5",""
"6684","giraffe","daraja,jumatu,mahitabo,hangyo","mahitabo","j","5","html-keyboard-response","1095","j","mahitabo","true","",""
"1262.7999999970198","","","","","5","html-slider-response","1096","","","","1",""
"5091","mirror","sulagma,rangi,kanding,furaha","sulagma","f","5","html-keyboard-response","1097","j","kanding","false","",""
"1373.1000000089407","","","","","5","html-slider-response","1098","","","","1",""
"2164","ceiling","maua,kugita,kawaida,rayna","maua","f","5","html-keyboard-response","1099","f","maua","true","",""
"1188.1000000089407","","","","","5","html-slider-response","1100","","","","2",""
"3417","marker","mapafu,salita,atay,maji","maji","n","5","html-keyboard-response","1101","n","maji","true","",""
"3630.7000000029802","","","","","5","html-slider-response","1102","","","","1",""
"1937","sock","mamba,ndoora,kimysa,mtirka","mamba","f","5","html-keyboard-response","1103","f","mamba","true","",""
"1286.1000000089407","","","","","5","html-slider-response","1104","","","","5",""
"4185","cop","bustani,mechezo,jikoni,bakus","mechezo","v","5","html-keyboard-response","1105","n","bakus","false","",""
"2298.4000000059605","","","","","5","html-slider-response","1106","","","","2",""
"3445","gift","baba,nyange,pagtawag,baso","pagtawag","j","5","html-keyboard-response","1107","j","pagtawag","true","",""
"2425","","","","","5","html-slider-response","1108","","","","2",""
"4330","notebook","msitu,kemia,kila,mdudu","kemia","v","5","html-keyboard-response","1109","f","msitu","false","",""
"1247","","","","","5","html-slider-response","1110","","","","1",""
"3927","bank","kudhibi,silingan,tualya,ofisi","silingan","v","5","html-keyboard-response","1111","v","silingan","true","",""
"1441.7999999970198","","","","","5","html-slider-response","1112","","","","2",""
"3760","letter","kifua,filimbi,chuma,uhuru","kifua","f","5","html-keyboard-response","1113","f","kifua","true","",""
"1324.8999999910593","","","","","5","html-slider-response","1114","","","","1",""
"3479","candle","geza,gabi,farasi,kupanda","geza","f","5","html-keyboard-response","1115","j","farasi","false","",""
"1446.8999999910593","","","","","5","html-slider-response","1116","","","","1",""
"3867","bread","dari,kaili,dizeli,bugas","dari","f","5","html-keyboard-response","1117","n","bugas","false","",""
"1435","","","","","5","html-slider-response","1118","","","","1",""
"3960","snake","jansa,pagtukod,karon,mvringo","pagtukod","v","5","html-keyboard-response","1119","v","pagtukod","true","",""
"1794.8999999910593","","","","","5","html-slider-response","1120","","","","4",""
"2991","rose","singizi,paghalad,mwanake,amani","paghalad","v","5","html-keyboard-response","1121","v","paghalad","true","",""
"2041.0999999940395","","","","","5","html-slider-response","1122","","","","4",""
"2731","hill","matumbo,kushoto,kukimba,sweta","matumbo","f","5","html-keyboard-response","1123","f","matumbo","true","",""
"1517.0999999940395","","","","","5","html-slider-response","1124","","","","5",""
"3386","train","itik,dakika,mungu,sayari","sayari","n","5","html-keyboard-response","1125","v","dakika","false","",""
"2570","","","","","5","html-slider-response","1126","","","","1",""
"4518","shop","nopya,kerida,ndezu,samaki","samaki","n","5","html-keyboard-response","1127","n","samaki","true","",""
"1783.5999999940395","","","","","5","html-slider-response","1128","","","","1",""
"3755","nose","gubat,kopa,sehemu,kidole","sehemu","j","5","html-keyboard-response","1129","v","kopa","false","",""
"1323.2000000029802","","","","","5","html-slider-response","1130","","","","1",""
"4687","boat","agalon,hamsi,pombe,kitanda","agalon","f","5","html-keyboard-response","1131","j","pombe","false","",""
"1619","","","","","5","html-slider-response","1132","","","","2",""
"2085","body","nyundu,jibini,kununa,tindashan","tindashan","n","5","html-keyboard-response","1133","n","tindashan","true","",""
"2458.199999988079","","","","","5","html-slider-response","1134","","","","3",""
"3485","bed","kalipay,haraka,starehe,mapintas","mapintas","n","5","html-keyboard-response","1135","n","mapintas","true","",""
"2597.0999999940395","","","","","5","html-slider-response","1136","","","","5",""
"1949","squirrel","hofu,mahugaw,ukweli,kichwa","hofu","f","5","html-keyboard-response","1137","f","hofu","true","",""
"1393.1000000089407","","","","","5","html-slider-response","1138","","","","5",""
"2637","window","kweli,nanga,kujenga,umaga","kweli","f","5","html-keyboard-response","1139","n","umaga","false","",""
"1583.9000000059605","","","","","5","html-slider-response","1140","","","","1",""
"1952","bonfire","mwezi,goti,mfuko,kusanya","goti","v","5","html-keyboard-response","1141","v","goti","true","",""
"1989.2000000029802","","","","","5","html-slider-response","1142","","","","4",""
"6186","fish","bala,baho,buli,imani","buli","j","5","html-keyboard-response","1143","j","buli","true","",""
"1552.1000000089407","","","","","5","html-slider-response","1144","","","","2",""
"5322","cat","neyemba,baki,akili,paghukom","paghukom","n","5","html-keyboard-response","1145","f","neyemba","false","",""
"2872.5999999940395","","","","","5","html-slider-response","1146","","","","2",""
"3839","spider","bunyag,kamwe,mkboa,atop","kamwe","v","5","html-keyboard-response","1147","v","kamwe","true","",""
"1933.2000000029802","","","","","5","html-slider-response","1148","","","","5",""
"3038","eel","ishara,msumari,kunywa,kabuang","msumari","v","5","html-keyboard-response","1149","v","msumari","true","",""
"1179.5999999940395","","","","","5","html-slider-response","1150","","","","4",""
"4880","woman","bandari,bituin,kovuli,pagtabon","pagtabon","n","5","html-keyboard-response","1151","n","pagtabon","true","",""
"2734.4000000059605","","","","","5","html-slider-response","1152","","","","3",""
"2903","magazine","gundi,kiti,mchawi,bahandi","kiti","v","5","html-keyboard-response","1153","v","kiti","true","",""
"1704.1000000089407","","","","","5","html-slider-response","1154","","","","5",""
"2744","pudding","abug,mpishi,aibu,iring","aibu","j","5","html-keyboard-response","1155","n","iring","false","",""
"1437.0999999940395","","","","","5","html-slider-response","1156","","","","1",""
"1982","lamp","daub,bilaska,afya,mbolea","afya","j","5","html-keyboard-response","1157","j","afya","true","",""
"1328","","","","","5","html-slider-response","1158","","","","1",""
"4070","cave","ganti,maisha,kesho,nyundo","kesho","j","5","html-keyboard-response","1159","n","nyundo","false","",""
"1345.7999999970198","","","","","5","html-slider-response","1160","","","","1",""
"2413","shoulder","kelele,ndaniya,mkuu,guruwe","mkuu","j","5","html-keyboard-response","1161","j","mkuu","true","",""
"1322","","","","","5","html-slider-response","1162","","","","2",""
"2751","stone","wingi,ulimwengu,mkasi,asili","wingi","f","5","html-keyboard-response","1163","v","ulimwengu","false","",""
"1569.2000000029802","","","","","5","html-slider-response","1164","","","","1",""
"3307","column","pundok,dila,pala,ufagio","ufagio","n","5","html-keyboard-response","1165","j","pala","false","",""
"1824","","","","","5","html-slider-response","1166","","","","1",""
"2743","page","wakala,wimbo,ishiri,skina","wimbo","v","5","html-keyboard-response","1167","v","wimbo","true","",""
"1151.1000000089407","","","","","5","html-slider-response","1168","","","","1",""
"3961","shoe","nyeusi,uyoga,hatua,kama","uyoga","v","5","html-keyboard-response","1169","j","hatua","false","",""
"1102.9000000059605","","","","","5","html-slider-response","1170","","","","2",""
"4109","clock","mbwa,kartasi,abang,osha","mbwa","f","5","html-keyboard-response","1171","j","abang","false","",""
"1617.5999999940395","","","","","5","html-slider-response","1172","","","","1",""
"3295","towel","tembo,pagpalit,funzi,pito","pagpalit","v","5","html-keyboard-response","1173","n","pito","false","",""
"1821","","","","","5","html-slider-response","1174","","","","1",""
"4561","tomato","chupi,chupa,mvua,takatak","mvua","j","5","html-keyboard-response","1175","n","takatak","false","",""
"2166.1000000089407","","","","","5","html-slider-response","1176","","","","1",""
"2602","bucket","kiatu,baga,ijayo,init","kiatu","f","5","html-keyboard-response","1177","n","init","false","",""
"1591","","","","","5","html-slider-response","1178","","","","1",""
"2465","finger","moyo,simu,sufuria,lima","moyo","f","5","html-keyboard-response","1179","f","moyo","true","",""
"1200.9000000059605","","","","","5","html-slider-response","1180","","","","4",""
"1845","mother","kahawa,mbuzi,jokofu,babaye","babaye","n","5","html-keyboard-response","1181","n","babaye","true","",""
"1326.0999999940395","","","","","5","html-slider-response","1182","","","","5",""
"3227","human","tinapay,bado,kikapu,punguza","tinapay","f","5","html-keyboard-response","1183","f","tinapay","true","",""
"1711.1000000089407","","","","","5","html-slider-response","1184","","","","2",""
"3191","sun","bendi,luha,uongo,basi","basi","n","5","html-keyboard-response","1185","v","luha","false","",""
"1449","","","","","5","html-slider-response","1186","","","","1",""
"4358","fork","mgonjwa,baboy,paghago,gorisi","mgonjwa","f","5","html-keyboard-response","1187","j","paghago","false","",""
"1369.5","","","","","5","html-slider-response","1188","","","","2",""
"2161","donkey","bloke,elfu,lalake,rombus","elfu","v","5","html-keyboard-response","1189","v","elfu","true","",""
"1953.199999988079","","","","","5","html-slider-response","1190","","","","5",""
"2227","wolf","kaburi,ndizi,mchuzi,lugha","lugha","n","5","html-keyboard-response","1191","n","lugha","true","",""
"1924.199999988079","","","","","5","html-slider-response","1192","","","","5",""
"2497","cigar","ndugu,kuta,adhabu,mlango","adhabu","j","5","html-keyboard-response","1193","j","adhabu","true","",""
"2116.9000000059605","","","","","5","html-slider-response","1194","","","","5",""
"2427","olive","bata,jiwe,siagi,welder","jiwe","v","5","html-keyboard-response","1195","v","jiwe","true","",""
"2406.9000000059605","","","","","5","html-slider-response","1196","","","","3",""
"4202","key","miaka,goma,chombo,ahos","chombo","j","5","html-keyboard-response","1197","f","miaka","false","",""
"1971.5","","","","","5","html-slider-response","1198","","","","2",""
"2871","door","tena,surali,soko,nyota","surali","v","5","html-keyboard-response","1199","n","nyota","false","",""
"1567","","","","","5","html-slider-response","1200","","","","1",""
"5258","wheel","punda,tawo,baadaye,bafuni","bafuni","n","5","html-keyboard-response","1201","j","baadaye","false","",""
"1802.7999999970198","","","","","5","html-slider-response","1202","","","","1",""
"3170","basket","kumbuka,utepe,hasira,kumba","kumba","n","5","html-keyboard-response","1203","j","hasira","false","",""
"1423.2000000029802","","","","","5","html-slider-response","1204","","","","1",""
"8676","elephant","petye,kito,pagduol,suka","kito","v","5","html-keyboard-response","1205","j","pagduol","false","",""
"1671.0999999940395","","","","","5","html-slider-response","1206","","","","1",""
"4308","office","hazini,leso,yatima,kuna","leso","v","5","html-keyboard-response","1207","f","hazini","false","",""
"1593","","","","","5","html-slider-response","1208","","","","1",""
"4436","music","baiski,mraba,mageho,tumbo","baiski","f","5","html-keyboard-response","1209","j","mageho","false","",""
"1229.2000000029802","","","","","5","html-slider-response","1210","","","","1",""
"4398","tissue","ugomvi,lamigas,kisiwa,katika","ugomvi","f","5","html-keyboard-response","1211","n","katika","false","",""
"1445.9000000059605","","","","","5","html-slider-response","1212","","","","1",""
"3160","curtain","mchanga,lisud,bulwawan,chubani","mchanga","f","5","html-keyboard-response","1213","f","mchanga","true","",""
"1504","","","","","5","html-slider-response","1214","","","","5",""
"4052","flag","ndege,mkate,kawa,trekta","trekta","n","5","html-keyboard-response","1215","n","trekta","true","",""
"1379.2000000029802","","","","","5","html-slider-response","1216","","","","2",""
"5873","dog","bahari,lubi,washia,kalamu","bahari","f","5","html-keyboard-response","1217","f","bahari","true","",""
"1805.4000000059605","","","","","5","html-slider-response","1218","","","","1",""
"4105","cup","dagat,shimoni,matumai,jeraha","matumai","j","5","html-keyboard-response","1219","v","shimoni","false","",""
"1452.2999999970198","","","","","5","html-slider-response","1220","","","","1",""
"5108","sheet","juuya,watu,bililhon,kamantis","bililhon","j","5","html-keyboard-response","1221","j","bililhon","true","",""
"1391.2000000029802","","","","","5","html-slider-response","1222","","","","4",""
"2903","spoon","pagsulod,betri,nzuri,ngazi","pagsulod","f","5","html-keyboard-response","1223","n","ngazi","false","",""
"1830.5","","","","","5","html-slider-response","1224","","","","1",""
"3452","flower","tamasha,lobo,usiku,bega","bega","n","5","html-keyboard-response","1225","f","tamasha","false","",""
"1569.5999999940395","","","","","5","html-slider-response","1226","","","","1",""
"4453","picture","silya,kubwa,chaki,asin","kubwa","v","5","html-keyboard-response","1227","v","kubwa","true","",""
"1273.7000000029802","","","","","5","html-slider-response","1228","","","","1",""
"2947","puppet","napulo,lamok,godoro,mazishi","mazishi","n","5","html-keyboard-response","1229","n","mazishi","true","",""
"1095.2000000029802","","","","","5","html-slider-response","1230","","","","1",""
"1905","banana","kasamok,hagdan,twai,kazi","kazi","n","5","html-keyboard-response","1231","n","kazi","true","",""
"1270","","","","","5","html-slider-response","1232","","","","5",""
"6386","book","kuhesa,mali,picha,mara","mali","v","5","html-keyboard-response","1233","n","mara","false","",""
"1439.5999999940395","","","","","5","html-slider-response","1234","","","","1",""
"3944","triangle","kihozi,bentaha,kasadpan,liog","kasadpan","j","5","html-keyboard-response","1235","j","kasadpan","true","",""
"2123","","","","","5","html-slider-response","1236","","","","5",""
"4194","poster","nchi,fedha,madungog,kasuko","madungog","j","5","html-keyboard-response","1237","n","kasuko","false","",""
"1745.7999999970198","","","","","5","html-slider-response","1238","","","","1",""
"3983","box","kuacha,rafiki,kitande,adui","adui","n","5","html-keyboard-response","1239","f","kuacha","false","",""
"1209.7000000029802","","","","","5","html-slider-response","1240","","","","1",""
"2106","mosquito","isda,martilyo,taras,gutom","martilyo","v","5","html-keyboard-response","1241","v","martilyo","true","",""
"1559.2000000029802","","","","","5","html-slider-response","1242","","","","5",""
"3951","shelf","pamahaw,bungtod,kadaot,awit","pamahaw","f","5","html-keyboard-response","1243","n","awit","false","",""
"1528.3999999910593","","","","","5","html-slider-response","1244","","","","1",""
"3142","scissors","tanuri,duga,mtawa,suga","tanuri","f","5","html-keyboard-response","1245","f","tanuri","true","",""
"1296.1000000089407","","","","","5","html-slider-response","1246","","","","1",""
"2675","hammer","mekno,kitovu,layag,napakyas","napakyas","n","5","html-keyboard-response","1247","j","layag","false","",""
"1481.9000000059605","","","","","5","html-slider-response","1248","","","","1",""
