"rt","en_word","options","swa_word","correct_answer","phase","trial_type","trial_index","input_answer","input_word","accuracy","certainty","amt_choices"
"3740","bonfire","mwezi,mfuko,goti,kusanya","goti","j","2","html-keyboard-response","106","j","goti","true","",""
"5049.5","","","","","2","html-slider-response","107","","","","4",""
"6897","flower","tamasha,lobo,bega,usiku","bega","j","2","html-keyboard-response","108","n","usiku","false","",""
"3250.5","","","","","2","html-slider-response","109","","","","2",""
"13065","column","pundok,dila,ufagio,pala","ufagio","j","2","html-keyboard-response","110","j","ufagio","true","",""
"2761.6999999999534","","","","","2","html-slider-response","111","","","","4",""
"3824","music","mraba,mageho,tumbo,baiski","baiski","n","2","html-keyboard-response","112","n","baiski","true","",""
"3446.2999999998137","","","","","2","html-slider-response","113","","","","2",""
"3932","spider","bunyag,kamwe,mkboa,atop","kamwe","v","2","html-keyboard-response","114","v","kamwe","true","",""
"3387","","","","","2","html-slider-response","115","","","","4",""
"4891","fork","baboy,paghago,gorisi,mgonjwa","mgonjwa","n","2","html-keyboard-response","116","j","gorisi","false","",""
"2883.6999999999534","","","","","2","html-slider-response","117","","","","2",""
"2950","mosquito","isda,taras,gutom,martilyo","martilyo","n","2","html-keyboard-response","118","f","isda","false","",""
"4825.5","","","","","2","html-slider-response","119","","","","3",""
"3491","banana","kasamok,kazi,hagdan,twai","kazi","v","2","html-keyboard-response","120","v","kazi","true","",""
"3913.399999999907","","","","","2","html-slider-response","121","","","","5",""
"4496","cup","dagat,shimoni,jeraha,matumai","matumai","n","2","html-keyboard-response","122","f","dagat","false","",""
"3993.0999999998603","","","","","2","html-slider-response","123","","","","2",""
"4191","shop","nopya,samaki,kerida,ndezu","samaki","v","2","html-keyboard-response","124","v","samaki","true","",""
"3292.6999999999534","","","","","2","html-slider-response","125","","","","5",""
"3282","elephant","kito,petye,pagduol,suka","kito","f","2","html-keyboard-response","126","f","kito","true","",""
"3891.3000000000466","","","","","2","html-slider-response","127","","","","4",""
"6480","bucket","baga,ijayo,init,kiatu","kiatu","n","2","html-keyboard-response","128","n","kiatu","true","",""
"4070.600000000093","","","","","2","html-slider-response","129","","","","2",""
"5965","book","kuhesa,mali,picha,mara","mali","v","2","html-keyboard-response","130","n","mara","false","",""
"3291.8000000000466","","","","","2","html-slider-response","131","","","","2",""
"24322","mirror","sulagma,rangi,kanding,furaha","sulagma","f","2","html-keyboard-response","132","f","sulagma","true","",""
"3242.100000000093","","","","","2","html-slider-response","133","","","","4",""
"6551","office","hazini,yatima,kuna,leso","leso","n","2","html-keyboard-response","134","f","hazini","false","",""
"3998.1999999999534","","","","","2","html-slider-response","135","","","","2",""
"4153","body","nyundu,jibini,tindashan,kununa","tindashan","j","2","html-keyboard-response","136","v","jibini","false","",""
"3283","","","","","2","html-slider-response","137","","","","2",""
"2951","perfume","katuyoan,bino,sungura,ndogo","katuyoan","f","2","html-keyboard-response","138","f","katuyoan","true","",""
"2713.5","","","","","2","html-slider-response","139","","","","4",""
"8281","olive","jiwe,bata,siagi,welder","jiwe","f","2","html-keyboard-response","140","j","siagi","false","",""
"4899.699999999953","","","","","2","html-slider-response","141","","","","4",""
"3665","magazine","kiti,gundi,mchawi,bahandi","kiti","f","2","html-keyboard-response","142","v","gundi","false","",""
"5835.200000000186","","","","","2","html-slider-response","143","","","","1",""
"3664","bread","kaili,dizeli,dari,bugas","dari","j","2","html-keyboard-response","144","j","dari","true","",""
"2988.2000000001863","","","","","2","html-slider-response","145","","","","5",""
"2824","cave","ganti,kesho,maisha,nyundo","kesho","v","2","html-keyboard-response","146","f","ganti","false","",""
"3724.5","","","","","2","html-slider-response","147","","","","2",""
"3629","ladder","mashua,mwanga,kamba,pangalan","pangalan","n","2","html-keyboard-response","148","n","pangalan","true","",""
"3048.8000000000466","","","","","2","html-slider-response","149","","","","4",""
"4174","human","bado,kikapu,tinapay,punguza","tinapay","j","2","html-keyboard-response","150","f","bado","false","",""
"3784","","","","","2","html-slider-response","151","","","","1",""
"3679","clock","mbwa,kartasi,abang,osha","mbwa","f","2","html-keyboard-response","152","n","osha","false","",""
"3925.6999999999534","","","","","2","html-slider-response","153","","","","2",""
"5898","shelf","bungtod,pamahaw,kadaot,awit","pamahaw","v","2","html-keyboard-response","154","v","pamahaw","true","",""
"3301","","","","","2","html-slider-response","155","","","","2",""
"4234","salmon","mzungu,seri,baharia,sensilyo","sensilyo","n","2","html-keyboard-response","156","n","sensilyo","true","",""
"3051.2999999998137","","","","","2","html-slider-response","157","","","","2",""
"3461","coffin","barua,kioo,tubag,hulma","kioo","v","2","html-keyboard-response","158","v","kioo","true","",""
"2771.8000000000466","","","","","2","html-slider-response","159","","","","5",""
"2546","notebook","msitu,kila,mdudu,kemia","kemia","n","2","html-keyboard-response","160","n","kemia","true","",""
"3399.100000000093","","","","","2","html-slider-response","161","","","","2",""
"4109","shoulder","kelele,ndaniya,guruwe,mkuu","mkuu","n","2","html-keyboard-response","162","n","mkuu","true","",""
"3929.6999999999534","","","","","2","html-slider-response","163","","","","5",""
"4525","park","bunifu,tambok,pwani,ihalas","bunifu","f","2","html-keyboard-response","164","v","tambok","false","",""
"3625.1999999999534","","","","","2","html-slider-response","165","","","","2",""
"3763","number","shule,kengele,choori,mundamo","mundamo","n","2","html-keyboard-response","166","n","mundamo","true","",""
"2727.1999999999534","","","","","2","html-slider-response","167","","","","4",""
"3742","apple","ukame,estante,kisu,edad","kisu","j","2","html-keyboard-response","168","v","estante","false","",""
"3118.5999999998603","","","","","2","html-slider-response","169","","","","1",""
"2988","letter","filimbi,chuma,uhuru,kifua","kifua","n","2","html-keyboard-response","170","j","uhuru","false","",""
"2773.7000000001863","","","","","2","html-slider-response","171","","","","2",""
"2625","eel","ishara,kunywa,msumari,kabuang","msumari","j","2","html-keyboard-response","172","v","kunywa","false","",""
"3504.1999999999534","","","","","2","html-slider-response","173","","","","2",""
"3632","cop","bustani,mechezo,jikoni,bakus","mechezo","v","2","html-keyboard-response","174","v","mechezo","true","",""
"2553.899999999907","","","","","2","html-slider-response","175","","","","4",""
"3660","wolf","kaburi,lugha,ndizi,mchuzi","lugha","v","2","html-keyboard-response","176","f","kaburi","false","",""
"3465.5999999998603","","","","","2","html-slider-response","177","","","","2",""
"2616","squirrel","hofu,mahugaw,ukweli,kichwa","hofu","f","2","html-keyboard-response","178","f","hofu","true","",""
"3618.1999999999534","","","","","2","html-slider-response","179","","","","5",""
"3252","nose","gubat,kopa,kidole,sehemu","sehemu","n","2","html-keyboard-response","180","f","gubat","false","",""
"2959.8000000000466","","","","","2","html-slider-response","181","","","","2",""
"3980","sock","ndoora,kimysa,mtirka,mamba","mamba","n","2","html-keyboard-response","182","n","mamba","true","",""
"5389.09999999986","","","","","2","html-slider-response","183","","","","5",""
"4244","bank","kudhibi,tualya,silingan,ofisi","silingan","j","2","html-keyboard-response","184","n","ofisi","false","",""
"2962.9000000001397","","","","","2","html-slider-response","185","","","","2",""
"3840","donkey","elfu,bloke,lalake,rombus","elfu","f","2","html-keyboard-response","186","j","lalake","false","",""
"3022.600000000093","","","","","2","html-slider-response","187","","","","2",""
"6279","poster","nchi,fedha,madungog,kasuko","madungog","j","2","html-keyboard-response","188","j","madungog","true","",""
"4015.600000000093","","","","","2","html-slider-response","189","","","","2",""
"6478","puppet","napulo,lamok,godoro,mazishi","mazishi","n","2","html-keyboard-response","190","n","mazishi","true","",""
"2907.600000000093","","","","","2","html-slider-response","191","","","","4",""
"3103","hill","kushoto,kukimba,matumbo,sweta","matumbo","j","2","html-keyboard-response","192","v","kukimba","false","",""
"3717.5","","","","","2","html-slider-response","193","","","","2",""
"2920","tooth","kijiko,kabalaka,uadui,pahiyum","kabalaka","v","2","html-keyboard-response","194","v","kabalaka","true","",""
"3019.4000000001397","","","","","2","html-slider-response","195","","","","4",""
"4079","woman","pagtabon,bandari,bituin,kovuli","pagtabon","f","2","html-keyboard-response","196","n","kovuli","false","",""
"3261.3000000000466","","","","","2","html-slider-response","197","","","","4",""
"3468","wheel","punda,bafuni,tawo,baadaye","bafuni","v","2","html-keyboard-response","198","f","punda","false","",""
"3065.7000000001863","","","","","2","html-slider-response","199","","","","2",""
"2935","mother","kahawa,babaye,mbuzi,jokofu","babaye","v","2","html-keyboard-response","200","v","babaye","true","",""
"3800.6999999999534","","","","","2","html-slider-response","201","","","","5",""
"2938","bed","kalipay,mapintas,haraka,starehe","mapintas","v","2","html-keyboard-response","202","v","mapintas","true","",""
"2976.6999999999534","","","","","2","html-slider-response","203","","","","2",""
"2885","key","chombo,miaka,goma,ahos","chombo","f","2","html-keyboard-response","204","f","chombo","true","",""
"4803.299999999814","","","","","2","html-slider-response","205","","","","5",""
"3071","page","wimbo,wakala,ishiri,skina","wimbo","f","2","html-keyboard-response","206","n","skina","false","",""
"2944.600000000093","","","","","2","html-slider-response","207","","","","2",""
"3983","pants","haki,pintal,chuki,hari","haki","f","2","html-keyboard-response","208","f","haki","true","",""
"3289.8000000000466","","","","","2","html-slider-response","209","","","","4",""
"7794","sun","bendi,luha,uongo,basi","basi","n","2","html-keyboard-response","210","n","basi","true","",""
"3067.3000000000466","","","","","2","html-slider-response","211","","","","2",""
"4085","finger","simu,sufuria,lima,moyo","moyo","n","2","html-keyboard-response","212","n","moyo","true","",""
"2934.399999999907","","","","","2","html-slider-response","213","","","","2",""
"2765","shoe","nyeusi,uyoga,hatua,kama","uyoga","v","2","html-keyboard-response","214","f","nyeusi","false","",""
"3578.600000000093","","","","","2","html-slider-response","215","","","","2",""
"2731","giraffe","mahitabo,daraja,jumatu,hangyo","mahitabo","f","2","html-keyboard-response","216","n","hangyo","false","",""
"2893","","","","","2","html-slider-response","217","","","","4",""
"3146","dog","lubi,washia,kalamu,bahari","bahari","n","2","html-keyboard-response","218","n","bahari","true","",""
"3918","","","","","2","html-slider-response","219","","","","5",""
"6319","box","kuacha,rafiki,adui,kitande","adui","j","2","html-keyboard-response","220","j","adui","true","",""
"3106.0999999998603","","","","","2","html-slider-response","221","","","","2",""
"3645","scissors","duga,mtawa,tanuri,suga","tanuri","j","2","html-keyboard-response","222","j","tanuri","true","",""
"3930.6999999999534","","","","","2","html-slider-response","223","","","","5",""
"2926","cat","neyemba,baki,paghukom,akili","paghukom","j","2","html-keyboard-response","224","v","baki","false","",""
"3142.899999999907","","","","","2","html-slider-response","225","","","","2",""
"4139","basket","kumba,kumbuka,utepe,hasira","kumba","f","2","html-keyboard-response","226","j","utepe","false","",""
"3422.9000000001397","","","","","2","html-slider-response","227","","","","2",""
"5882","snake","jansa,karon,pagtukod,mvringo","pagtukod","j","2","html-keyboard-response","228","n","mvringo","false","",""
"3436.8000000000466","","","","","2","html-slider-response","229","","","","4",""
"2862","gift","baba,pagtawag,nyange,baso","pagtawag","v","2","html-keyboard-response","230","f","baba","false","",""
"6733.800000000047","","","","","2","html-slider-response","231","","","","1",""
"3169","train","itik,dakika,sayari,mungu","sayari","j","2","html-keyboard-response","232","j","sayari","true","",""
"3294.9000000001397","","","","","2","html-slider-response","233","","","","4",""
"2055","pudding","abug,aibu,mpishi,iring","aibu","v","2","html-keyboard-response","234","v","aibu","true","",""
"2623.399999999907","","","","","2","html-slider-response","235","","","","2",""
"4023","tomato","chupi,mvua,chupa,takatak","mvua","v","2","html-keyboard-response","236","n","takatak","false","",""
"2684","","","","","2","html-slider-response","237","","","","4",""
"3226","stone","ulimwengu,mkasi,asili,wingi","wingi","n","2","html-keyboard-response","238","n","wingi","true","",""
"3751.399999999907","","","","","2","html-slider-response","239","","","","2",""
"4675","hammer","mekno,napakyas,kitovu,layag","napakyas","v","2","html-keyboard-response","240","n","layag","false","",""
"6173.5","","","","","2","html-slider-response","241","","","","1",""
"3432","knee","mvuke,kubale,duka,bili","duka","j","2","html-keyboard-response","242","j","duka","true","",""
"4833.800000000047","","","","","2","html-slider-response","243","","","","5",""
"4192","ceiling","kugita,kawaida,rayna,maua","maua","n","2","html-keyboard-response","244","v","kawaida","false","",""
"3221.3000000000466","","","","","2","html-slider-response","245","","","","4",""
"3073","spoon","pagsulod,betri,nzuri,ngazi","pagsulod","f","2","html-keyboard-response","246","f","pagsulod","true","",""
"3049.899999999907","","","","","2","html-slider-response","247","","","","4",""
"2512","marker","mapafu,salita,atay,maji","maji","n","2","html-keyboard-response","248","v","salita","false","",""
"2727.8000000000466","","","","","2","html-slider-response","249","","","","2",""
"2539","candle","gabi,farasi,kupanda,geza","geza","n","2","html-keyboard-response","250","n","geza","true","",""
"3188","","","","","2","html-slider-response","251","","","","2",""
"3823","tissue","lamigas,kisiwa,katika,ugomvi","ugomvi","n","2","html-keyboard-response","252","n","ugomvi","true","",""
"3086.600000000093","","","","","2","html-slider-response","253","","","","2",""
"3548","bridge","daima,ngono,sahani,panya","sahani","j","2","html-keyboard-response","254","j","sahani","true","",""
"3068.3000000000466","","","","","2","html-slider-response","255","","","","5",""
"4164","berry","abogado,kofia,nogozi,kinywa","kofia","v","2","html-keyboard-response","256","n","kinywa","false","",""
"3164","","","","","2","html-slider-response","257","","","","4",""
"3479","triangle","kihozi,bentaha,kasadpan,liog","kasadpan","j","2","html-keyboard-response","258","j","kasadpan","true","",""
"3791.6999999999534","","","","","2","html-slider-response","259","","","","2",""
"3078","door","tena,soko,nyota,surali","surali","n","2","html-keyboard-response","260","n","surali","true","",""
"2962.6999999999534","","","","","2","html-slider-response","261","","","","4",""
"3328","fish","bala,baho,imani,buli","buli","n","2","html-keyboard-response","262","f","bala","false","",""
"3001.5","","","","","2","html-slider-response","263","","","","4",""
"6480","curtain","lisud,mchanga,bulwawan,chubani","mchanga","v","2","html-keyboard-response","264","v","mchanga","true","",""
"4323.40000000014","","","","","2","html-slider-response","265","","","","2",""
"3034","flag","trekta,ndege,mkate,kawa","trekta","f","2","html-keyboard-response","266","n","kawa","false","",""
"2968.0999999998603","","","","","2","html-slider-response","267","","","","4",""
"4822","boat","hamsi,pombe,agalon,kitanda","agalon","j","2","html-keyboard-response","268","j","agalon","true","",""
"3032.100000000093","","","","","2","html-slider-response","269","","","","5",""
"2413","rose","singizi,paghalad,mwanake,amani","paghalad","v","2","html-keyboard-response","270","f","singizi","false","",""
"2511.100000000093","","","","","2","html-slider-response","271","","","","2",""
"3700","lamp","afya,daub,bilaska,mbolea","afya","f","2","html-keyboard-response","272","f","afya","true","",""
"2969.899999999907","","","","","2","html-slider-response","273","","","","5",""
"2088","cigar","ndugu,adhabu,kuta,mlango","adhabu","v","2","html-keyboard-response","274","v","adhabu","true","",""
"2678.100000000093","","","","","2","html-slider-response","275","","","","2",""
"3657","list","alizeti,wingu,kuzama,kaso","wingu","v","2","html-keyboard-response","276","v","wingu","true","",""
"2879.3000000000466","","","","","2","html-slider-response","277","","","","4",""
"3821","sheet","juuya,watu,kamantis,bililhon","bililhon","n","2","html-keyboard-response","278","n","bililhon","true","",""
"3032","","","","","2","html-slider-response","279","","","","2",""
"5841","picture","silya,chaki,asin,kubwa","kubwa","n","2","html-keyboard-response","280","n","kubwa","true","",""
"3105","","","","","2","html-slider-response","281","","","","5",""
"2159","towel","tembo,funzi,pagpalit,pito","pagpalit","j","2","html-keyboard-response","282","v","funzi","false","",""
"3308.5999999998603","","","","","2","html-slider-response","283","","","","4",""
"2427","window","nanga,kujenga,umaga,kweli","kweli","n","2","html-keyboard-response","284","n","kweli","true","",""
"6895","","","","","2","html-slider-response","285","","","","4",""
"12864","box","adui,kuacha,rafiki,kitande","adui","f","3","html-keyboard-response","293","f","adui","true","","4"
"3311.3000000000466","","","","","3","html-slider-response","294","","","","2",""
"2822","","","","","3","html-keyboard-response","295","","","","",""
"4922","pants","pintal,haki,chuki,hari","haki","v","3","html-keyboard-response","296","v","haki","true","","4"
"2705.899999999907","","","","","3","html-slider-response","297","","","","4",""
"1126","","","","","3","html-keyboard-response","298","","","","",""
"8692","cup","dagat,shimoni,matumai,jeraha","matumai","j","3","html-keyboard-response","299","f","dagat","false","","4"
"2845.6999999999534","","","","","3","html-slider-response","300","","","","1",""
"3398","","","","","3","html-keyboard-response","301","","","","",""
"4386","triangle","kihozi,bentaha,liog,kasadpan","kasadpan","n","3","html-keyboard-response","302","n","kasadpan","true","","4"
"3027.4000000001397","","","","","3","html-slider-response","303","","","","2",""
"1441","","","","","3","html-keyboard-response","304","","","","",""
"8440","curtain","lisud,bulwawan,mchanga,chubani","mchanga","j","3","html-keyboard-response","305","j","mchanga","true","","4"
"2639","","","","","3","html-slider-response","306","","","","2",""
"2582","","","","","3","html-keyboard-response","307","","","","",""
"6955","clock","kartasi,abang,mbwa,osha","mbwa","j","3","html-keyboard-response","308","j","mbwa","true","","4"
"3666.5","","","","","3","html-slider-response","309","","","","1",""
"1422","","","","","3","html-keyboard-response","310","","","","",""
"9798","mirror","sulagma,rangi,kanding,furaha","sulagma","f","3","html-keyboard-response","311","n","furaha","false","","4"
"3156.100000000093","","","","","3","html-slider-response","312","","","","1",""
"2545","","","","","3","html-keyboard-response","313","","","","",""
"8187","coffin","kioo,barua,tubag,hulma","kioo","f","3","html-keyboard-response","314","f","kioo","true","","1"
"3411.5","","","","","3","html-slider-response","315","","","","5",""
"911","","","","","3","html-keyboard-response","316","","","","",""
"5635","magazine","gundi,kiti,mchawi,bahandi","kiti","v","3","html-keyboard-response","317","n","bahandi","false","","4"
"3225.5","","","","","3","html-slider-response","318","","","","2",""
"2495","","","","","3","html-keyboard-response","319","","","","",""
"6338","column","pundok,dila,pala,ufagio","ufagio","n","3","html-keyboard-response","320","n","ufagio","true","","1"
"3185.8000000000466","","","","","3","html-slider-response","321","","","","5",""
"766","","","","","3","html-keyboard-response","322","","","","",""
"3628","number","shule,kengele,mundamo,choori","mundamo","j","3","html-keyboard-response","323","j","mundamo","true","","4"
"3233.3000000000466","","","","","3","html-slider-response","324","","","","5",""
"760","","","","","3","html-keyboard-response","325","","","","",""
"8458","rose","singizi,mwanake,paghalad,amani","paghalad","j","3","html-keyboard-response","326","n","amani","false","","4"
"2667.1999999999534","","","","","3","html-slider-response","327","","","","2",""
"810","","","","","3","html-keyboard-response","328","","","","",""
"4020","eel","ishara,msumari,kunywa,kabuang","msumari","v","3","html-keyboard-response","329","j","kunywa","false","","4"
"3129.9000000001397","","","","","3","html-slider-response","330","","","","2",""
"854","","","","","3","html-keyboard-response","331","","","","",""
"8588","gift","baba,nyange,pagtawag,baso","pagtawag","j","3","html-keyboard-response","332","f","baba","false","","4"
"2928.100000000093","","","","","3","html-slider-response","333","","","","2",""
"1413","","","","","3","html-keyboard-response","334","","","","",""
"7389","apple","kisu,ukame,estante,edad","kisu","f","3","html-keyboard-response","335","f","kisu","true","","1"
"2473.5","","","","","3","html-slider-response","336","","","","2",""
"1044","","","","","3","html-keyboard-response","337","","","","",""
"8734","wheel","punda,tawo,baadaye,bafuni","bafuni","n","3","html-keyboard-response","338","n","bafuni","true","","1"
"3475.3000000000466","","","","","3","html-slider-response","339","","","","5",""
"1316","","","","","3","html-keyboard-response","340","","","","",""
"5836","knee","mvuke,kubale,bili,duka","duka","n","3","html-keyboard-response","341","n","duka","true","","4"
"2908.8000000000466","","","","","3","html-slider-response","342","","","","5",""
"1527","","","","","3","html-keyboard-response","343","","","","",""
"2487","basket","kumbuka,utepe,hasira,kumba","kumba","n","3","html-keyboard-response","344","n","kumba","true","","1"
"3325.100000000093","","","","","3","html-slider-response","345","","","","5",""
"775","","","","","3","html-keyboard-response","346","","","","",""
"8247","park","tambok,pwani,ihalas,bunifu","bunifu","n","3","html-keyboard-response","347","n","bunifu","true","","4"
"3116.1999999999534","","","","","3","html-slider-response","348","","","","2",""
"1445","","","","","3","html-keyboard-response","349","","","","",""
"3067","finger","simu,sufuria,moyo,lima","moyo","j","3","html-keyboard-response","350","n","lima","false","","4"
"4205.700000000186","","","","","3","html-slider-response","351","","","","2",""
"667","","","","","3","html-keyboard-response","352","","","","",""
"7394","boat","agalon,hamsi,pombe,kitanda","agalon","f","3","html-keyboard-response","353","f","agalon","true","","4"
"2991.1999999999534","","","","","3","html-slider-response","354","","","","5",""
"747","","","","","3","html-keyboard-response","355","","","","",""
"3774","hill","kushoto,kukimba,matumbo,sweta","matumbo","j","3","html-keyboard-response","356","v","kukimba","false","","4"
"5243.600000000093","","","","","3","html-slider-response","357","","","","2",""
"858","","","","","3","html-keyboard-response","358","","","","",""
"7517","train","itik,dakika,sayari,mungu","sayari","j","3","html-keyboard-response","359","j","sayari","true","","4"
"2905.7000000001863","","","","","3","html-slider-response","360","","","","4",""
"2304","","","","","3","html-keyboard-response","361","","","","",""
"3150","wolf","kaburi,ndizi,mchuzi,lugha","lugha","n","3","html-keyboard-response","362","j","mchuzi","false","","4"
"2807","","","","","3","html-slider-response","363","","","","2",""
"921","","","","","3","html-keyboard-response","364","","","","",""
"6400","snake","jansa,pagtukod,karon,mvringo","pagtukod","v","3","html-keyboard-response","365","v","pagtukod","true","","4"
"3133.8000000000466","","","","","3","html-slider-response","366","","","","4",""
"1158","","","","","3","html-keyboard-response","367","","","","",""
"8003","tooth","kijiko,kabalaka,uadui,pahiyum","kabalaka","v","3","html-keyboard-response","368","v","kabalaka","true","","4"
"3379.4000000001397","","","","","3","html-slider-response","369","","","","5",""
"887","","","","","3","html-keyboard-response","370","","","","",""
"6951","notebook","kemia,msitu,kila,mdudu","kemia","f","3","html-keyboard-response","371","n","mdudu","false","","4"
"2752.399999999907","","","","","3","html-slider-response","372","","","","2",""
"879","","","","","3","html-keyboard-response","373","","","","",""
"8134","flag","trekta,ndege,mkate,kawa","trekta","f","3","html-keyboard-response","374","n","kawa","false","","4"
"3987.9000000003725","","","","","3","html-slider-response","375","","","","2",""
"664","","","","","3","html-keyboard-response","376","","","","",""
"11607","squirrel","mahugaw,hofu,ukweli,kichwa","hofu","v","3","html-keyboard-response","377","v","hofu","true","","4"
"3094.5","","","","","3","html-slider-response","378","","","","5",""
"942","","","","","3","html-keyboard-response","379","","","","",""
"6820","door","tena,surali,soko,nyota","surali","v","3","html-keyboard-response","380","v","surali","true","","4"
"2805.7000000001863","","","","","3","html-slider-response","381","","","","4",""
"778","","","","","3","html-keyboard-response","382","","","","",""
"2936","salmon","mzungu,seri,baharia,sensilyo","sensilyo","n","3","html-keyboard-response","383","n","sensilyo","true","","4"
"2795.5","","","","","3","html-slider-response","384","","","","2",""
"684","","","","","3","html-keyboard-response","385","","","","",""
"10898","shoulder","mkuu,kelele,ndaniya,guruwe","mkuu","f","3","html-keyboard-response","386","f","mkuu","true","","4"
"2660.600000000093","","","","","3","html-slider-response","387","","","","2",""
"624","","","","","3","html-keyboard-response","388","","","","",""
"8105","lamp","daub,bilaska,afya,mbolea","afya","j","3","html-keyboard-response","389","n","mbolea","false","","4"
"2691.5","","","","","3","html-slider-response","390","","","","2",""
"455","","","","","3","html-keyboard-response","391","","","","",""
"3081","shelf","pamahaw,bungtod,kadaot,awit","pamahaw","f","3","html-keyboard-response","392","f","pamahaw","true","","1"
"3740.7999999998137","","","","","3","html-slider-response","393","","","","5",""
"1014","","","","","3","html-keyboard-response","394","","","","",""
"6518","human","bado,kikapu,punguza,tinapay","tinapay","n","3","html-keyboard-response","395","v","kikapu","false","","4"
"3934.399999999907","","","","","3","html-slider-response","396","","","","2",""
"2308","","","","","3","html-keyboard-response","397","","","","",""
"2980","towel","tembo,pagpalit,funzi,pito","pagpalit","v","3","html-keyboard-response","398","n","pito","false","","4"
"2536.5","","","","","3","html-slider-response","399","","","","2",""
"625","","","","","3","html-keyboard-response","400","","","","",""
"5018","cat","neyemba,baki,akili,paghukom","paghukom","n","3","html-keyboard-response","401","f","neyemba","false","","4"
"3145.6999999997206","","","","","3","html-slider-response","402","","","","2",""
"1293","","","","","3","html-keyboard-response","403","","","","",""
"6841","spider","bunyag,mkboa,kamwe,atop","kamwe","j","3","html-keyboard-response","404","j","kamwe","true","","4"
"2898.7999999998137","","","","","3","html-slider-response","405","","","","5",""
"2816","","","","","3","html-keyboard-response","406","","","","",""
"5792","window","nanga,kujenga,umaga,kweli","kweli","n","3","html-keyboard-response","407","j","umaga","false","","4"
"2893.7000000001863","","","","","3","html-slider-response","408","","","","2",""
"616","","","","","3","html-keyboard-response","409","","","","",""
"2741","woman","bandari,bituin,pagtabon,kovuli","pagtabon","j","3","html-keyboard-response","410","j","pagtabon","true","","1"
"3025.7000000001863","","","","","3","html-slider-response","411","","","","5",""
"908","","","","","3","html-keyboard-response","412","","","","",""
"4792","giraffe","daraja,jumatu,mahitabo,hangyo","mahitabo","j","3","html-keyboard-response","413","n","hangyo","false","","4"
"3296.8000000002794","","","","","3","html-slider-response","414","","","","2",""
"1869","","","","","3","html-keyboard-response","415","","","","",""
"2183","elephant","petye,pagduol,kito,suka","kito","j","3","html-keyboard-response","416","j","kito","true","","4"
"3250.399999999907","","","","","3","html-slider-response","417","","","","5",""
"757","","","","","3","html-keyboard-response","418","","","","",""
"7233","cave","ganti,kesho,maisha,nyundo","kesho","v","3","html-keyboard-response","419","v","kesho","true","","4"
"2999.3000000002794","","","","","3","html-slider-response","420","","","","2",""
"1799","","","","","3","html-keyboard-response","421","","","","",""
"9168","bread","kaili,dizeli,dari,bugas","dari","j","3","html-keyboard-response","422","j","dari","true","","4"
"2973","","","","","3","html-slider-response","423","","","","5",""
"753","","","","","3","html-keyboard-response","424","","","","",""
"12465","stone","ulimwengu,mkasi,wingi,asili","wingi","j","3","html-keyboard-response","425","n","asili","false","","4"
"3786.399999999907","","","","","3","html-slider-response","426","","","","4",""
"899","","","","","3","html-keyboard-response","427","","","","",""
"4382","donkey","bloke,lalake,elfu,rombus","elfu","j","3","html-keyboard-response","428","j","elfu","true","","4"
"3442.5","","","","","3","html-slider-response","429","","","","2",""
"889","","","","","3","html-keyboard-response","430","","","","",""
"7669","bridge","daima,sahani,ngono,panya","sahani","v","3","html-keyboard-response","431","v","sahani","true","","4"
"2892.899999999907","","","","","3","html-slider-response","432","","","","4",""
"780","","","","","3","html-keyboard-response","433","","","","",""
"5119","bonfire","mwezi,goti,mfuko,kusanya","goti","v","3","html-keyboard-response","434","v","goti","true","","4"
"3131.8000000002794","","","","","3","html-slider-response","435","","","","5",""
"2146","","","","","3","html-keyboard-response","436","","","","",""
"12944","book","kuhesa,picha,mali,mara","mali","j","3","html-keyboard-response","437","v","picha","false","","4"
"4000.9000000003725","","","","","3","html-slider-response","438","","","","2",""
"869","","","","","3","html-keyboard-response","439","","","","",""
"50731","fish","bala,buli,baho,imani","buli","v","3","html-keyboard-response","440","f","bala","false","","4"
"3158.899999999907","","","","","3","html-slider-response","441","","","","2",""
"1370","","","","","3","html-keyboard-response","442","","","","",""
"10819","spoon","betri,pagsulod,nzuri,ngazi","pagsulod","v","3","html-keyboard-response","443","v","pagsulod","true","","4"
"6554.4000000003725","","","","","3","html-slider-response","444","","","","5",""
"1111","","","","","3","html-keyboard-response","445","","","","",""
"4148","scissors","duga,mtawa,suga,tanuri","tanuri","n","3","html-keyboard-response","446","n","tanuri","true","","4"
"3003.399999999907","","","","","3","html-slider-response","447","","","","5",""
"1040","","","","","3","html-keyboard-response","448","","","","",""
"6327","page","wakala,ishiri,skina,wimbo","wimbo","n","3","html-keyboard-response","449","v","ishiri","false","","4"
"2839.899999999907","","","","","3","html-slider-response","450","","","","4",""
"990","","","","","3","html-keyboard-response","451","","","","",""
"1800","nose","gubat,sehemu,kopa,kidole","sehemu","v","3","html-keyboard-response","452","v","sehemu","true","","1"
"2929.100000000093","","","","","3","html-slider-response","453","","","","5",""
"965","","","","","3","html-keyboard-response","454","","","","",""
"6935","ceiling","kugita,kawaida,rayna,maua","maua","n","3","html-keyboard-response","455","j","rayna","false","","4"
"2692.2000000001863","","","","","3","html-slider-response","456","","","","2",""
"806","","","","","3","html-keyboard-response","457","","","","",""
"8419","bucket","kiatu,baga,ijayo,init","kiatu","f","3","html-keyboard-response","458","n","init","false","","4"
"2990.100000000093","","","","","3","html-slider-response","459","","","","2",""
"1089","","","","","3","html-keyboard-response","460","","","","",""
"1931","berry","kofia,abogado,nogozi,kinywa","kofia","f","3","html-keyboard-response","461","f","kofia","true","","1"
"3329.2999999998137","","","","","3","html-slider-response","462","","","","5",""
"1206","","","","","3","html-keyboard-response","463","","","","",""
"2280","mother","kahawa,mbuzi,jokofu,babaye","babaye","n","3","html-keyboard-response","464","n","babaye","true","","1"
"2980.5999999996275","","","","","3","html-slider-response","465","","","","5",""
"1059","","","","","3","html-keyboard-response","466","","","","",""
"9038","mosquito","isda,taras,gutom,martilyo","martilyo","n","3","html-keyboard-response","467","v","taras","false","","4"
"2862.899999999907","","","","","3","html-slider-response","468","","","","2",""
"896","","","","","3","html-keyboard-response","469","","","","",""
"9453","perfume","bino,sungura,katuyoan,ndogo","katuyoan","j","3","html-keyboard-response","470","j","katuyoan","true","","4"
"9455.5","","","","","3","html-slider-response","471","","","","4",""
"1135","","","","","3","html-keyboard-response","472","","","","",""
"6887","sheet","juuya,watu,bililhon,kamantis","bililhon","j","3","html-keyboard-response","473","j","bililhon","true","","4"
"3102.1999999997206","","","","","3","html-slider-response","474","","","","2",""
"1264","","","","","3","html-keyboard-response","475","","","","",""
"1491","puppet","napulo,mazishi,lamok,godoro","mazishi","v","3","html-keyboard-response","476","v","mazishi","true","","1"
"2770.7999999998137","","","","","3","html-slider-response","477","","","","5",""
"934","","","","","3","html-keyboard-response","478","","","","",""
"3971","poster","nchi,madungog,fedha,kasuko","madungog","v","3","html-keyboard-response","479","v","madungog","true","","4"
"2918.8000000002794","","","","","3","html-slider-response","480","","","","2",""
"3070","","","","","3","html-keyboard-response","481","","","","",""
"3665","music","baiski,mraba,mageho,tumbo","baiski","f","3","html-keyboard-response","482","n","tumbo","false","","4"
"2907.100000000093","","","","","3","html-slider-response","483","","","","2",""
"1400","","","","","3","html-keyboard-response","484","","","","",""
"9183","key","miaka,goma,ahos,chombo","chombo","n","3","html-keyboard-response","485","n","chombo","true","","4"
"3627.399999999907","","","","","3","html-slider-response","486","","","","4",""
"1282","","","","","3","html-keyboard-response","487","","","","",""
"14801","sock","mamba,ndoora,kimysa,mtirka","mamba","f","3","html-keyboard-response","488","f","mamba","true","","4"
"3161.899999999907","","","","","3","html-slider-response","489","","","","5",""
"1440","","","","","3","html-keyboard-response","490","","","","",""
"2348","marker","mapafu,salita,atay,maji","maji","n","3","html-keyboard-response","491","j","atay","false","","4"
"2858.2000000001863","","","","","3","html-slider-response","492","","","","2",""
"777","","","","","3","html-keyboard-response","493","","","","",""
"5322","office","hazini,yatima,leso,kuna","leso","j","3","html-keyboard-response","494","f","hazini","false","","4"
"3629","","","","","3","html-slider-response","495","","","","2",""
"888","","","","","3","html-keyboard-response","496","","","","",""
"9388","shoe","nyeusi,hatua,kama,uyoga","uyoga","n","3","html-keyboard-response","497","n","uyoga","true","","4"
"2744","","","","","3","html-slider-response","498","","","","4",""
"1370","","","","","3","html-keyboard-response","499","","","","",""
"5601","cop","bustani,jikoni,mechezo,bakus","mechezo","j","3","html-keyboard-response","500","j","mechezo","true","","4"
"2876.600000000093","","","","","3","html-slider-response","501","","","","5",""
"670","","","","","3","html-keyboard-response","502","","","","",""
"2477","bank","kudhibi,tualya,ofisi,silingan","silingan","n","3","html-keyboard-response","503","j","ofisi","false","","4"
"2822.100000000093","","","","","3","html-slider-response","504","","","","2",""
"783","","","","","3","html-keyboard-response","505","","","","",""
"3013","letter","kifua,filimbi,chuma,uhuru","kifua","f","3","html-keyboard-response","506","f","kifua","true","","1"
"2903.2999999998137","","","","","3","html-slider-response","507","","","","5",""
"905","","","","","3","html-keyboard-response","508","","","","",""
"2587","dog","lubi,washia,kalamu,bahari","bahari","n","3","html-keyboard-response","509","n","bahari","true","","1"
"4099.799999999814","","","","","3","html-slider-response","510","","","","5",""
"750","","","","","3","html-keyboard-response","511","","","","",""
"8794","shop","samaki,nopya,kerida,ndezu","samaki","f","3","html-keyboard-response","512","f","samaki","true","","4"
"2598.0999999996275","","","","","3","html-slider-response","513","","","","5",""
"844","","","","","3","html-keyboard-response","514","","","","",""
"8721","flower","tamasha,lobo,usiku,bega","bega","n","3","html-keyboard-response","515","f","tamasha","false","","4"
"2508","","","","","3","html-slider-response","516","","","","4",""
"766","","","","","3","html-keyboard-response","517","","","","",""
"2473","cigar","ndugu,adhabu,kuta,mlango","adhabu","v","3","html-keyboard-response","518","v","adhabu","true","","1"
"3884.100000000093","","","","","3","html-slider-response","519","","","","4",""
"1805","","","","","3","html-keyboard-response","520","","","","",""
"7433","hammer","mekno,kitovu,layag,napakyas","napakyas","n","3","html-keyboard-response","521","f","mekno","false","","4"
"2578.6999999997206","","","","","3","html-slider-response","522","","","","2",""
"881","","","","","3","html-keyboard-response","523","","","","",""
"3694","fork","baboy,paghago,mgonjwa,gorisi","mgonjwa","j","3","html-keyboard-response","524","j","mgonjwa","true","","4"
"3266.600000000093","","","","","3","html-slider-response","525","","","","4",""
"1072","","","","","3","html-keyboard-response","526","","","","",""
"1535","sun","basi,bendi,luha,uongo","basi","f","3","html-keyboard-response","527","f","basi","true","","1"
"3675","","","","","3","html-slider-response","528","","","","5",""
"816","","","","","3","html-keyboard-response","529","","","","",""
"13236","ladder","mashua,pangalan,mwanga,kamba","pangalan","v","3","html-keyboard-response","530","v","pangalan","true","","4"
"3793.2000000001863","","","","","3","html-slider-response","531","","","","5",""
"1810","","","","","3","html-keyboard-response","532","","","","",""
"2717","banana","kasamok,hagdan,kazi,twai","kazi","j","3","html-keyboard-response","533","j","kazi","true","","1"
"3688.8000000002794","","","","","3","html-slider-response","534","","","","5",""
"836","","","","","3","html-keyboard-response","535","","","","",""
"6376","pudding","abug,aibu,mpishi,iring","aibu","v","3","html-keyboard-response","536","n","iring","false","","4"
"2929.2000000001863","","","","","3","html-slider-response","537","","","","2",""
"739","","","","","3","html-keyboard-response","538","","","","",""
"7751","body","tindashan,nyundu,jibini,kununa","tindashan","f","3","html-keyboard-response","539","n","kununa","false","","4"
"3112.100000000093","","","","","3","html-slider-response","540","","","","2",""
"838","","","","","3","html-keyboard-response","541","","","","",""
"2685","bed","kalipay,haraka,mapintas,starehe","mapintas","j","3","html-keyboard-response","542","v","haraka","false","","4"
"3143.899999999907","","","","","3","html-slider-response","543","","","","2",""
"887","","","","","3","html-keyboard-response","544","","","","",""
"1948","tissue","ugomvi,lamigas,kisiwa,katika","ugomvi","f","3","html-keyboard-response","545","j","kisiwa","false","","4"
"3124.8000000002794","","","","","3","html-slider-response","546","","","","2",""
"751","","","","","3","html-keyboard-response","547","","","","",""
"6979","candle","gabi,farasi,kupanda,geza","geza","n","3","html-keyboard-response","548","v","farasi","false","","4"
"2504.8000000002794","","","","","3","html-slider-response","549","","","","2",""
"763","","","","","3","html-keyboard-response","550","","","","",""
"2615","tomato","chupi,chupa,takatak,mvua","mvua","n","3","html-keyboard-response","551","n","mvua","true","","1"
"3505.399999999907","","","","","3","html-slider-response","552","","","","4",""
"1025","","","","","3","html-keyboard-response","553","","","","",""
"3009","list","alizeti,kuzama,wingu,kaso","wingu","j","3","html-keyboard-response","554","f","alizeti","false","","4"
"3058.2999999998137","","","","","3","html-slider-response","555","","","","4",""
"839","","","","","3","html-keyboard-response","556","","","","",""
"4962","olive","jiwe,bata,siagi,welder","jiwe","f","3","html-keyboard-response","557","j","siagi","false","","4"
"3130.100000000093","","","","","3","html-slider-response","558","","","","4",""
"733","","","","","3","html-keyboard-response","559","","","","",""
"2031","picture","kubwa,silya,chaki,asin","kubwa","f","3","html-keyboard-response","560","f","kubwa","true","","1"
"3568.399999999907","","","","","3","html-slider-response","561","","","","5",""
"908","","","","","3","html-keyboard-response","562","","","","",""
"13806","page","wakala,wimbo,ishiri,skina","wimbo","v","4","html-keyboard-response","888","n","skina","false","",""
"4501.600000000093","","","","","4","html-slider-response","889","","","","2",""
"3014","sheet","bililhon,juuya,watu,kamantis","bililhon","f","4","html-keyboard-response","890","j","watu","false","",""
"2695.5","","","","","4","html-slider-response","891","","","","2",""
"5413","ladder","mashua,pangalan,mwanga,kamba","pangalan","v","4","html-keyboard-response","892","v","pangalan","true","",""
"2491.2000000001863","","","","","4","html-slider-response","893","","","","5",""
"5168","door","tena,soko,nyota,surali","surali","n","4","html-keyboard-response","894","n","surali","true","",""
"2607.3000000002794","","","","","4","html-slider-response","895","","","","5",""
"3877","spider","bunyag,mkboa,kamwe,atop","kamwe","j","4","html-keyboard-response","896","f","bunyag","false","",""
"3331.8000000002794","","","","","4","html-slider-response","897","","","","2",""
"2804","picture","kubwa,silya,chaki,asin","kubwa","f","4","html-keyboard-response","898","f","kubwa","true","",""
"2992.899999999907","","","","","4","html-slider-response","899","","","","4",""
"2703","boat","agalon,hamsi,pombe,kitanda","agalon","f","4","html-keyboard-response","900","f","agalon","true","",""
"3973.3000000002794","","","","","4","html-slider-response","901","","","","5",""
"6991","donkey","bloke,lalake,elfu,rombus","elfu","j","4","html-keyboard-response","902","j","elfu","true","",""
"3626.5","","","","","4","html-slider-response","903","","","","2",""
"6864","book","mali,kuhesa,picha,mara","mali","f","4","html-keyboard-response","904","f","mali","true","",""
"4552.899999999907","","","","","4","html-slider-response","905","","","","2",""
"4880","cup","dagat,shimoni,matumai,jeraha","matumai","j","4","html-keyboard-response","906","j","matumai","true","",""
"2643.5","","","","","4","html-slider-response","907","","","","4",""
"2143","sun","bendi,basi,luha,uongo","basi","v","4","html-keyboard-response","908","v","basi","true","",""
"3212.5","","","","","4","html-slider-response","909","","","","2",""
"4794","pudding","abug,aibu,mpishi,iring","aibu","v","4","html-keyboard-response","910","n","iring","false","",""
"2516","","","","","4","html-slider-response","911","","","","4",""
"9626","human","tinapay,bado,kikapu,punguza","tinapay","f","4","html-keyboard-response","912","n","punguza","false","",""
"3000.2000000001863","","","","","4","html-slider-response","913","","","","2",""
"9344","squirrel","hofu,mahugaw,ukweli,kichwa","hofu","f","4","html-keyboard-response","914","f","hofu","true","",""
"2798.2999999998137","","","","","4","html-slider-response","915","","","","5",""
"5355","park","tambok,pwani,ihalas,bunifu","bunifu","n","4","html-keyboard-response","916","n","bunifu","true","",""
"3680.600000000093","","","","","4","html-slider-response","917","","","","2",""
"2551","poster","madungog,nchi,fedha,kasuko","madungog","f","4","html-keyboard-response","918","v","nchi","false","",""
"4516.5","","","","","4","html-slider-response","919","","","","2",""
"4276","wolf","kaburi,ndizi,mchuzi,lugha","lugha","n","4","html-keyboard-response","920","n","lugha","true","",""
"2455.600000000093","","","","","4","html-slider-response","921","","","","2",""
"4077","cat","neyemba,baki,akili,paghukom","paghukom","n","4","html-keyboard-response","922","n","paghukom","true","",""
"3630.5","","","","","4","html-slider-response","923","","","","4",""
"8194","fish","buli,bala,baho,imani","buli","f","4","html-keyboard-response","924","v","bala","false","",""
"3140.5999999996275","","","","","4","html-slider-response","925","","","","4",""
"2796","tooth","kijiko,uadui,kabalaka,pahiyum","kabalaka","j","4","html-keyboard-response","926","j","kabalaka","true","",""
"3024.2999999998137","","","","","4","html-slider-response","927","","","","4",""
"6166","cave","ganti,maisha,nyundo,kesho","kesho","n","4","html-keyboard-response","928","v","maisha","false","",""
"3031.600000000093","","","","","4","html-slider-response","929","","","","2",""
"1799","lamp","afya,daub,bilaska,mbolea","afya","f","4","html-keyboard-response","930","n","mbolea","false","",""
"3034.7999999998137","","","","","4","html-slider-response","931","","","","2",""
"2720","banana","kasamok,hagdan,kazi,twai","kazi","j","4","html-keyboard-response","932","j","kazi","true","",""
"2369.6999999997206","","","","","4","html-slider-response","933","","","","4",""
"1648","bonfire","goti,mwezi,mfuko,kusanya","goti","f","4","html-keyboard-response","934","f","goti","true","",""
"3466.2999999998137","","","","","4","html-slider-response","935","","","","5",""
"2045","cop","bustani,mechezo,jikoni,bakus","mechezo","v","4","html-keyboard-response","936","v","mechezo","true","",""
"4518.399999999907","","","","","4","html-slider-response","937","","","","5",""
"1965","marker","mapafu,salita,atay,maji","maji","n","4","html-keyboard-response","938","j","atay","false","",""
"2665.899999999907","","","","","4","html-slider-response","939","","","","2",""
"2256","window","nanga,kweli,kujenga,umaga","kweli","v","4","html-keyboard-response","940","n","umaga","false","",""
"2767.5999999996275","","","","","4","html-slider-response","941","","","","1",""
"5429","body","nyundu,tindashan,jibini,kununa","tindashan","v","4","html-keyboard-response","942","f","nyundu","false","",""
"4222.600000000093","","","","","4","html-slider-response","943","","","","4",""
"3540","apple","ukame,kisu,estante,edad","kisu","v","4","html-keyboard-response","944","j","estante","false","",""
"3068.7999999998137","","","","","4","html-slider-response","945","","","","2",""
"1659","salmon","mzungu,seri,baharia,sensilyo","sensilyo","n","4","html-keyboard-response","946","v","seri","false","",""
"3507.6999999997206","","","","","4","html-slider-response","947","","","","2",""
"3165","bed","kalipay,mapintas,haraka,starehe","mapintas","v","4","html-keyboard-response","948","f","kalipay","false","",""
"3919.5999999996275","","","","","4","html-slider-response","949","","","","4",""
"2407","berry","abogado,nogozi,kinywa,kofia","kofia","n","4","html-keyboard-response","950","n","kofia","true","",""
"3203.100000000093","","","","","4","html-slider-response","951","","","","2",""
"7231","mirror","sulagma,rangi,kanding,furaha","sulagma","f","4","html-keyboard-response","952","f","sulagma","true","",""
"3067.9000000003725","","","","","4","html-slider-response","953","","","","5",""
"1214","flag","ndege,mkate,kawa,trekta","trekta","n","4","html-keyboard-response","954","f","ndege","false","",""
"2674.5999999996275","","","","","4","html-slider-response","955","","","","2",""
"9208","shoulder","kelele,mkuu,ndaniya,guruwe","mkuu","v","4","html-keyboard-response","956","v","mkuu","true","",""
"6546.300000000279","","","","","4","html-slider-response","957","","","","4",""
"1742","tissue","lamigas,ugomvi,kisiwa,katika","ugomvi","v","4","html-keyboard-response","958","j","kisiwa","false","",""
"3263.5","","","","","4","html-slider-response","959","","","","2",""
"1525","notebook","msitu,kila,mdudu,kemia","kemia","n","4","html-keyboard-response","960","v","kila","false","",""
"3606.600000000093","","","","","4","html-slider-response","961","","","","4",""
"2651","snake","pagtukod,jansa,karon,mvringo","pagtukod","f","4","html-keyboard-response","962","f","pagtukod","true","",""
"2744.7000000001863","","","","","4","html-slider-response","963","","","","2",""
"1988","finger","moyo,simu,sufuria,lima","moyo","f","4","html-keyboard-response","964","n","lima","false","",""
"2607.600000000093","","","","","4","html-slider-response","965","","","","1",""
"2593","basket","kumbuka,utepe,kumba,hasira","kumba","j","4","html-keyboard-response","966","f","kumbuka","false","",""
"2639.2000000001863","","","","","4","html-slider-response","967","","","","4",""
"2715","curtain","lisud,bulwawan,mchanga,chubani","mchanga","j","4","html-keyboard-response","968","j","mchanga","true","",""
"4508.399999999907","","","","","4","html-slider-response","969","","","","4",""
"6323","perfume","bino,katuyoan,sungura,ndogo","katuyoan","v","4","html-keyboard-response","970","v","katuyoan","true","",""
"3751.100000000093","","","","","4","html-slider-response","971","","","","5",""
"7196","key","miaka,goma,chombo,ahos","chombo","j","4","html-keyboard-response","972","j","chombo","true","",""
"3299.5999999996275","","","","","4","html-slider-response","973","","","","5",""
"911","olive","jiwe,bata,siagi,welder","jiwe","f","4","html-keyboard-response","974","f","jiwe","true","",""
"3456.399999999907","","","","","4","html-slider-response","975","","","","2",""
"2650","rose","paghalad,singizi,mwanake,amani","paghalad","f","4","html-keyboard-response","976","f","paghalad","true","",""
"3313.2999999998137","","","","","4","html-slider-response","977","","","","4",""
"3217","bridge","daima,ngono,sahani,panya","sahani","j","4","html-keyboard-response","978","j","sahani","true","",""
"2416","","","","","4","html-slider-response","979","","","","5",""
"1853","hill","kushoto,kukimba,matumbo,sweta","matumbo","j","4","html-keyboard-response","980","n","sweta","false","",""
"2798.899999999907","","","","","4","html-slider-response","981","","","","2",""
"2197","letter","filimbi,chuma,kifua,uhuru","kifua","j","4","html-keyboard-response","982","f","filimbi","false","",""
"2873.899999999907","","","","","4","html-slider-response","983","","","","2",""
"13359","sock","mamba,ndoora,kimysa,mtirka","mamba","f","4","html-keyboard-response","984","f","mamba","true","",""
"3288.2999999998137","","","","","4","html-slider-response","985","","","","5",""
"1616","fork","baboy,mgonjwa,paghago,gorisi","mgonjwa","v","4","html-keyboard-response","986","n","gorisi","false","",""
"2927.2000000001863","","","","","4","html-slider-response","987","","","","2",""
"1867","box","kuacha,adui,rafiki,kitande","adui","v","4","html-keyboard-response","988","n","kitande","false","",""
"2934.899999999907","","","","","4","html-slider-response","989","","","","4",""
"4358","gift","baba,pagtawag,nyange,baso","pagtawag","v","4","html-keyboard-response","990","v","pagtawag","true","",""
"3109.2000000001863","","","","","4","html-slider-response","991","","","","4",""
"1882","bucket","baga,ijayo,init,kiatu","kiatu","n","4","html-keyboard-response","992","n","kiatu","true","",""
"3399.1999999997206","","","","","4","html-slider-response","993","","","","4",""
"6175","shop","nopya,kerida,samaki,ndezu","samaki","j","4","html-keyboard-response","994","j","samaki","true","",""
"2647","","","","","4","html-slider-response","995","","","","5",""
"6540","puppet","napulo,mazishi,lamok,godoro","mazishi","v","4","html-keyboard-response","996","v","mazishi","true","",""
"2656.899999999907","","","","","4","html-slider-response","997","","","","4",""
"1433","nose","sehemu,gubat,kopa,kidole","sehemu","f","4","html-keyboard-response","998","n","kidole","false","",""
"2368.100000000093","","","","","4","html-slider-response","999","","","","2",""
"1583","music","mraba,baiski,mageho,tumbo","baiski","v","4","html-keyboard-response","1000","v","baiski","true","",""
"3085","","","","","4","html-slider-response","1001","","","","5",""
"1843","dog","lubi,washia,bahari,kalamu","bahari","j","4","html-keyboard-response","1002","j","bahari","true","",""
"2395.100000000093","","","","","4","html-slider-response","1003","","","","5",""
"1856","eel","msumari,ishara,kunywa,kabuang","msumari","f","4","html-keyboard-response","1004","n","kabuang","false","",""
"2462","","","","","4","html-slider-response","1005","","","","2",""
"1637","number","shule,kengele,choori,mundamo","mundamo","n","4","html-keyboard-response","1006","n","mundamo","true","",""
"2827.7999999998137","","","","","4","html-slider-response","1007","","","","5",""
"5065","tomato","mvua,chupi,chupa,takatak","mvua","f","4","html-keyboard-response","1008","n","takatak","false","",""
"2623.7999999998137","","","","","4","html-slider-response","1009","","","","5",""
"3106","coffin","barua,kioo,tubag,hulma","kioo","v","4","html-keyboard-response","1010","v","kioo","true","",""
"3960.100000000093","","","","","4","html-slider-response","1011","","","","5",""
"1865","knee","mvuke,duka,kubale,bili","duka","v","4","html-keyboard-response","1012","v","duka","true","",""
"2846.5","","","","","4","html-slider-response","1013","","","","2",""
"4464","woman","bandari,pagtabon,bituin,kovuli","pagtabon","v","4","html-keyboard-response","1014","f","bandari","false","",""
"2602.6999999997206","","","","","4","html-slider-response","1015","","","","2",""
"2719","stone","ulimwengu,mkasi,wingi,asili","wingi","j","4","html-keyboard-response","1016","n","asili","false","",""
"3640.4000000003725","","","","","4","html-slider-response","1017","","","","4",""
"16560","bread","kaili,dari,dizeli,bugas","dari","v","4","html-keyboard-response","1018","v","dari","true","",""
"2616.600000000093","","","","","4","html-slider-response","1019","","","","5",""
"1856","triangle","kihozi,bentaha,kasadpan,liog","kasadpan","j","4","html-keyboard-response","1020","j","kasadpan","true","",""
"3712.899999999907","","","","","4","html-slider-response","1021","","","","4",""
"2662","scissors","duga,mtawa,suga,tanuri","tanuri","n","4","html-keyboard-response","1022","n","tanuri","true","",""
"2769.9000000003725","","","","","4","html-slider-response","1023","","","","2",""
"1348","giraffe","daraja,jumatu,hangyo,mahitabo","mahitabo","n","4","html-keyboard-response","1024","v","jumatu","false","",""
"3818.1999999997206","","","","","4","html-slider-response","1025","","","","2",""
"1569","flower","tamasha,bega,lobo,usiku","bega","v","4","html-keyboard-response","1026","n","usiku","false","",""
"2650.2999999998137","","","","","4","html-slider-response","1027","","","","4",""
"1019","candle","gabi,farasi,geza,kupanda","geza","j","4","html-keyboard-response","1028","v","farasi","false","",""
"3852.0999999996275","","","","","4","html-slider-response","1029","","","","2",""
"1831","mother","kahawa,mbuzi,jokofu,babaye","babaye","n","4","html-keyboard-response","1030","n","babaye","true","",""
"2695.600000000093","","","","","4","html-slider-response","1031","","","","5",""
"979","towel","pagpalit,tembo,funzi,pito","pagpalit","f","4","html-keyboard-response","1032","v","tembo","false","",""
"2999.2000000001863","","","","","4","html-slider-response","1033","","","","2",""
"1754","elephant","petye,pagduol,suka,kito","kito","n","4","html-keyboard-response","1034","n","kito","true","",""
"2361.3000000002794","","","","","4","html-slider-response","1035","","","","5",""
"1054","shelf","pamahaw,bungtod,kadaot,awit","pamahaw","f","4","html-keyboard-response","1036","v","bungtod","false","",""
"2661.4000000003725","","","","","4","html-slider-response","1037","","","","2",""
"1479","mosquito","martilyo,isda,taras,gutom","martilyo","f","4","html-keyboard-response","1038","f","martilyo","true","",""
"3225.399999999907","","","","","4","html-slider-response","1039","","","","2",""
"5615","column","pundok,ufagio,dila,pala","ufagio","v","4","html-keyboard-response","1040","v","ufagio","true","",""
"3215.600000000093","","","","","4","html-slider-response","1041","","","","5",""
"8312","pants","haki,pintal,chuki,hari","haki","f","4","html-keyboard-response","1042","v","pintal","false","",""
"5160.4000000003725","","","","","4","html-slider-response","1043","","","","2",""
"1392","list","alizeti,wingu,kuzama,kaso","wingu","v","4","html-keyboard-response","1044","n","kaso","false","",""
"2663.4000000003725","","","","","4","html-slider-response","1045","","","","2",""
"2101","bank","kudhibi,tualya,ofisi,silingan","silingan","n","4","html-keyboard-response","1046","j","ofisi","false","",""
"2813.2000000001863","","","","","4","html-slider-response","1047","","","","2",""
"3057","clock","kartasi,abang,mbwa,osha","mbwa","j","4","html-keyboard-response","1048","v","abang","false","",""
"2646.1999999997206","","","","","4","html-slider-response","1049","","","","4",""
"1522","ceiling","kugita,kawaida,maua,rayna","maua","j","4","html-keyboard-response","1050","n","rayna","false","",""
"2982.100000000093","","","","","4","html-slider-response","1051","","","","1",""
"2893","train","itik,dakika,mungu,sayari","sayari","n","4","html-keyboard-response","1052","n","sayari","true","",""
"3805.399999999907","","","","","4","html-slider-response","1053","","","","4",""
"4327","magazine","gundi,mchawi,kiti,bahandi","kiti","j","4","html-keyboard-response","1054","v","mchawi","false","",""
"3441.1999999997206","","","","","4","html-slider-response","1055","","","","2",""
"2127","office","leso,hazini,yatima,kuna","leso","f","4","html-keyboard-response","1056","v","hazini","false","",""
"2929.2999999998137","","","","","4","html-slider-response","1057","","","","2",""
"1546","wheel","punda,tawo,bafuni,baadaye","bafuni","j","4","html-keyboard-response","1058","n","baadaye","false","",""
"2574.7000000001863","","","","","4","html-slider-response","1059","","","","2",""
"5782","spoon","betri,pagsulod,nzuri,ngazi","pagsulod","v","4","html-keyboard-response","1060","v","pagsulod","true","",""
"3304.100000000093","","","","","4","html-slider-response","1061","","","","5",""
"962","hammer","mekno,kitovu,layag,napakyas","napakyas","n","4","html-keyboard-response","1062","v","kitovu","false","",""
"2676","","","","","4","html-slider-response","1063","","","","2",""
"2295","cigar","ndugu,kuta,mlango,adhabu","adhabu","n","4","html-keyboard-response","1064","n","adhabu","true","",""
"2779.399999999907","","","","","4","html-slider-response","1065","","","","4",""
"9278","shoe","uyoga,nyeusi,hatua,kama","uyoga","f","4","html-keyboard-response","1066","f","uyoga","true","",""
"3236.5","","","","","4","html-slider-response","1067","","","","4",""
"4746","list","alizeti,kuzama,kaso,wingu","wingu","n","5","html-keyboard-response","1069","f","alizeti","false","",""
"3102.2000000001863","","","","","5","html-slider-response","1070","","","","2",""
"1740","number","shule,kengele,choori,mundamo","mundamo","n","5","html-keyboard-response","1071","n","mundamo","true","",""
"2411.3000000002794","","","","","5","html-slider-response","1072","","","","5",""
"2286","apple","ukame,estante,edad,kisu","kisu","n","5","html-keyboard-response","1073","v","estante","false","",""
"3464.5","","","","","5","html-slider-response","1074","","","","2",""
"1720","knee","mvuke,kubale,bili,duka","duka","n","5","html-keyboard-response","1075","v","kubale","false","",""
"2791.7000000001863","","","","","5","html-slider-response","1076","","","","2",""
"1599","tooth","kabalaka,kijiko,uadui,pahiyum","kabalaka","f","5","html-keyboard-response","1077","f","kabalaka","true","",""
"3133.100000000093","","","","","5","html-slider-response","1078","","","","5",""
"2301","berry","abogado,nogozi,kinywa,kofia","kofia","n","5","html-keyboard-response","1079","n","kofia","true","",""
"2771.399999999907","","","","","5","html-slider-response","1080","","","","2",""
"2152","bridge","daima,sahani,ngono,panya","sahani","v","5","html-keyboard-response","1081","v","sahani","true","",""
"2480.899999999907","","","","","5","html-slider-response","1082","","","","5",""
"2558","perfume","katuyoan,bino,sungura,ndogo","katuyoan","f","5","html-keyboard-response","1083","f","katuyoan","true","",""
"2621","","","","","5","html-slider-response","1084","","","","5",""
"1981","ladder","mashua,mwanga,pangalan,kamba","pangalan","j","5","html-keyboard-response","1085","j","pangalan","true","",""
"2616.7000000001863","","","","","5","html-slider-response","1086","","","","5",""
"3747","pants","pintal,chuki,haki,hari","haki","j","5","html-keyboard-response","1087","j","haki","true","",""
"3726","","","","","5","html-slider-response","1088","","","","2",""
"1675","salmon","mzungu,seri,baharia,sensilyo","sensilyo","n","5","html-keyboard-response","1089","v","seri","false","",""
"3599.399999999907","","","","","5","html-slider-response","1090","","","","2",""
"10071","coffin","barua,tubag,hulma,kioo","kioo","n","5","html-keyboard-response","1091","n","kioo","true","",""
"3233.0999999996275","","","","","5","html-slider-response","1092","","","","5",""
"2382","park","tambok,pwani,bunifu,ihalas","bunifu","j","5","html-keyboard-response","1093","j","bunifu","true","",""
"2965.100000000093","","","","","5","html-slider-response","1094","","","","4",""
"2655","giraffe","daraja,jumatu,hangyo,mahitabo","mahitabo","n","5","html-keyboard-response","1095","f","daraja","false","",""
"3412.7999999998137","","","","","5","html-slider-response","1096","","","","2",""
"7139","mirror","rangi,kanding,sulagma,furaha","sulagma","j","5","html-keyboard-response","1097","j","sulagma","true","",""
"2471.600000000093","","","","","5","html-slider-response","1098","","","","5",""
"1179","ceiling","maua,kugita,kawaida,rayna","maua","f","5","html-keyboard-response","1099","v","kugita","false","",""
"3827.2999999998137","","","","","5","html-slider-response","1100","","","","2",""
"1733","marker","mapafu,salita,maji,atay","maji","j","5","html-keyboard-response","1101","v","salita","false","",""
"3329.1999999997206","","","","","5","html-slider-response","1102","","","","2",""
"8257","sock","mamba,ndoora,kimysa,mtirka","mamba","f","5","html-keyboard-response","1103","f","mamba","true","",""
"2443.3000000002794","","","","","5","html-slider-response","1104","","","","5",""
"1656","cop","bustani,jikoni,mechezo,bakus","mechezo","j","5","html-keyboard-response","1105","j","mechezo","true","",""
"2511.7000000001863","","","","","5","html-slider-response","1106","","","","5",""
"2369","gift","baba,pagtawag,nyange,baso","pagtawag","v","5","html-keyboard-response","1107","v","pagtawag","true","",""
"3218.100000000093","","","","","5","html-slider-response","1108","","","","5",""
"2654","notebook","kemia,msitu,kila,mdudu","kemia","f","5","html-keyboard-response","1109","j","kila","false","",""
"2986.2000000001863","","","","","5","html-slider-response","1110","","","","2",""
"4395","bank","kudhibi,tualya,silingan,ofisi","silingan","j","5","html-keyboard-response","1111","n","ofisi","false","",""
"2454.7000000001863","","","","","5","html-slider-response","1112","","","","2",""
"3253","letter","kifua,filimbi,chuma,uhuru","kifua","f","5","html-keyboard-response","1113","j","chuma","false","",""
"3531.1999999997206","","","","","5","html-slider-response","1114","","","","2",""
"1869","candle","geza,gabi,farasi,kupanda","geza","f","5","html-keyboard-response","1115","v","gabi","false","",""
"2857.7999999998137","","","","","5","html-slider-response","1116","","","","2",""
"3506","bread","kaili,dari,dizeli,bugas","dari","v","5","html-keyboard-response","1117","j","dizeli","false","",""
"2735.5999999996275","","","","","5","html-slider-response","1118","","","","2",""
"1788","snake","pagtukod,jansa,karon,mvringo","pagtukod","f","5","html-keyboard-response","1119","f","pagtukod","true","",""
"3176.2000000001863","","","","","5","html-slider-response","1120","","","","2",""
"1437","rose","singizi,mwanake,amani,paghalad","paghalad","n","5","html-keyboard-response","1121","n","paghalad","true","",""
"3492.2000000001863","","","","","5","html-slider-response","1122","","","","2",""
"1506","hill","kushoto,matumbo,kukimba,sweta","matumbo","v","5","html-keyboard-response","1123","j","kukimba","false","",""
"3231.4000000003725","","","","","5","html-slider-response","1124","","","","2",""
"2193","train","sayari,itik,dakika,mungu","sayari","f","5","html-keyboard-response","1125","f","sayari","true","",""
"3501.4000000003725","","","","","5","html-slider-response","1126","","","","5",""
"2966","shop","samaki,nopya,kerida,ndezu","samaki","f","5","html-keyboard-response","1127","f","samaki","true","",""
"3523","","","","","5","html-slider-response","1128","","","","4",""
"1552","nose","sehemu,gubat,kopa,kidole","sehemu","f","5","html-keyboard-response","1129","v","gubat","false","",""
"2825.800000000745","","","","","5","html-slider-response","1130","","","","2",""
"2226","boat","agalon,hamsi,pombe,kitanda","agalon","f","5","html-keyboard-response","1131","f","agalon","true","",""
"2716.2000000001863","","","","","5","html-slider-response","1132","","","","5",""
"2609","body","nyundu,tindashan,jibini,kununa","tindashan","v","5","html-keyboard-response","1133","n","kununa","false","",""
"2842.2000000001863","","","","","5","html-slider-response","1134","","","","2",""
"1475","bed","mapintas,kalipay,haraka,starehe","mapintas","f","5","html-keyboard-response","1135","v","kalipay","false","",""
"3006.300000000745","","","","","5","html-slider-response","1136","","","","2",""
"3951","squirrel","mahugaw,ukweli,kichwa,hofu","hofu","n","5","html-keyboard-response","1137","n","hofu","true","",""
"9333.599999999627","","","","","5","html-slider-response","1138","","","","2",""
"1783","window","nanga,kujenga,umaga,kweli","kweli","n","5","html-keyboard-response","1139","n","kweli","true","",""
"3789.2000000001863","","","","","5","html-slider-response","1140","","","","2",""
"1876","bonfire","mwezi,mfuko,kusanya,goti","goti","n","5","html-keyboard-response","1141","n","goti","true","",""
"2848.800000000745","","","","","5","html-slider-response","1142","","","","5",""
"2732","fish","bala,baho,imani,buli","buli","n","5","html-keyboard-response","1143","n","buli","true","",""
"3170.2000000001863","","","","","5","html-slider-response","1144","","","","2",""
"1548","cat","neyemba,paghukom,baki,akili","paghukom","v","5","html-keyboard-response","1145","v","paghukom","true","",""
"2902.7999999998137","","","","","5","html-slider-response","1146","","","","4",""
"2150","spider","bunyag,mkboa,atop,kamwe","kamwe","n","5","html-keyboard-response","1147","n","kamwe","true","",""
"2844.9000000003725","","","","","5","html-slider-response","1148","","","","2",""
"1809","eel","ishara,kunywa,kabuang,msumari","msumari","n","5","html-keyboard-response","1149","j","kabuang","false","",""
"3186.0999999996275","","","","","5","html-slider-response","1150","","","","2",""
"2623","woman","pagtabon,bandari,bituin,kovuli","pagtabon","f","5","html-keyboard-response","1151","v","bandari","false","",""
"3079.4000000003725","","","","","5","html-slider-response","1152","","","","2",""
"2547","magazine","gundi,mchawi,kiti,bahandi","kiti","j","5","html-keyboard-response","1153","v","mchawi","false","",""
"2525.2999999998137","","","","","5","html-slider-response","1154","","","","2",""
"1450","pudding","aibu,abug,mpishi,iring","aibu","f","5","html-keyboard-response","1155","n","iring","false","",""
"3071.5999999996275","","","","","5","html-slider-response","1156","","","","2",""
"1613","lamp","daub,afya,bilaska,mbolea","afya","v","5","html-keyboard-response","1157","n","mbolea","false","",""
"2637.100000000559","","","","","5","html-slider-response","1158","","","","2",""
"2456","cave","ganti,maisha,kesho,nyundo","kesho","j","5","html-keyboard-response","1159","v","maisha","false","",""
"2818.5","","","","","5","html-slider-response","1160","","","","4",""
"7134","shoulder","kelele,mkuu,ndaniya,guruwe","mkuu","v","5","html-keyboard-response","1161","v","mkuu","true","",""
"3174.100000000559","","","","","5","html-slider-response","1162","","","","5",""
"3046","stone","ulimwengu,mkasi,asili,wingi","wingi","n","5","html-keyboard-response","1163","n","wingi","true","",""
"3157.7000000001863","","","","","5","html-slider-response","1164","","","","2",""
"2839","column","pundok,dila,ufagio,pala","ufagio","j","5","html-keyboard-response","1165","j","ufagio","true","",""
"2880.7999999998137","","","","","5","html-slider-response","1166","","","","4",""
"1789","page","wakala,ishiri,skina,wimbo","wimbo","n","5","html-keyboard-response","1167","v","ishiri","false","",""
"3313","","","","","5","html-slider-response","1168","","","","2",""
"2292","shoe","nyeusi,hatua,kama,uyoga","uyoga","n","5","html-keyboard-response","1169","n","uyoga","true","",""
"3731.4000000003725","","","","","5","html-slider-response","1170","","","","4",""
"2553","clock","kartasi,abang,mbwa,osha","mbwa","j","5","html-keyboard-response","1171","j","mbwa","true","",""
"2699.5","","","","","5","html-slider-response","1172","","","","2",""
"2003","towel","tembo,pagpalit,funzi,pito","pagpalit","v","5","html-keyboard-response","1173","j","funzi","false","",""
"2597.2999999998137","","","","","5","html-slider-response","1174","","","","2",""
"1794","tomato","mvua,chupi,chupa,takatak","mvua","f","5","html-keyboard-response","1175","n","takatak","false","",""
"2437.4000000003725","","","","","5","html-slider-response","1176","","","","4",""
"1937","bucket","baga,ijayo,kiatu,init","kiatu","j","5","html-keyboard-response","1177","v","ijayo","false","",""
"3314.2999999998137","","","","","5","html-slider-response","1178","","","","2",""
"2810","finger","moyo,simu,sufuria,lima","moyo","f","5","html-keyboard-response","1179","n","lima","false","",""
"2976","","","","","5","html-slider-response","1180","","","","2",""
"1870","mother","kahawa,babaye,mbuzi,jokofu","babaye","v","5","html-keyboard-response","1181","v","babaye","true","",""
"3197.5999999996275","","","","","5","html-slider-response","1182","","","","4",""
"3893","human","bado,kikapu,tinapay,punguza","tinapay","j","5","html-keyboard-response","1183","v","kikapu","false","",""
"2906.300000000745","","","","","5","html-slider-response","1184","","","","2",""
"2878","sun","bendi,luha,basi,uongo","basi","j","5","html-keyboard-response","1185","j","basi","true","",""
"3344.9000000003725","","","","","5","html-slider-response","1186","","","","4",""
"1497","fork","baboy,paghago,mgonjwa,gorisi","mgonjwa","j","5","html-keyboard-response","1187","n","gorisi","false","",""
"3280.0999999996275","","","","","5","html-slider-response","1188","","","","2",""
"2578","donkey","bloke,elfu,lalake,rombus","elfu","v","5","html-keyboard-response","1189","v","elfu","true","",""
"2906.899999999441","","","","","5","html-slider-response","1190","","","","2",""
"1614","wolf","kaburi,lugha,ndizi,mchuzi","lugha","v","5","html-keyboard-response","1191","n","mchuzi","false","",""
"3360.5999999996275","","","","","5","html-slider-response","1192","","","","4",""
"2379","cigar","ndugu,adhabu,kuta,mlango","adhabu","v","5","html-keyboard-response","1193","v","adhabu","true","",""
"2618.0999999996275","","","","","5","html-slider-response","1194","","","","5",""
"3769","olive","jiwe,bata,siagi,welder","jiwe","f","5","html-keyboard-response","1195","f","jiwe","true","",""
"3114","","","","","5","html-slider-response","1196","","","","2",""
"7007","key","miaka,chombo,goma,ahos","chombo","v","5","html-keyboard-response","1197","v","chombo","true","",""
"3187.100000000559","","","","","5","html-slider-response","1198","","","","4",""
"2846","door","tena,soko,surali,nyota","surali","j","5","html-keyboard-response","1199","j","surali","true","",""
"2720.0999999996275","","","","","5","html-slider-response","1200","","","","4",""
"2872","wheel","punda,bafuni,tawo,baadaye","bafuni","v","5","html-keyboard-response","1201","f","punda","false","",""
"2881.2999999998137","","","","","5","html-slider-response","1202","","","","2",""
"1790","basket","kumbuka,utepe,kumba,hasira","kumba","j","5","html-keyboard-response","1203","f","kumbuka","false","",""
"4253.200000000186","","","","","5","html-slider-response","1204","","","","4",""
"2658","elephant","petye,pagduol,kito,suka","kito","j","5","html-keyboard-response","1205","j","kito","true","",""
"2966.7999999998137","","","","","5","html-slider-response","1206","","","","5",""
"3097","office","hazini,leso,yatima,kuna","leso","v","5","html-keyboard-response","1207","n","kuna","false","",""
"2491.2999999998137","","","","","5","html-slider-response","1208","","","","2",""
"1944","music","mraba,mageho,baiski,tumbo","baiski","j","5","html-keyboard-response","1209","j","baiski","true","",""
"3610.0999999996275","","","","","5","html-slider-response","1210","","","","5",""
"1929","tissue","lamigas,ugomvi,kisiwa,katika","ugomvi","v","5","html-keyboard-response","1211","n","katika","false","",""
"2888.0999999996275","","","","","5","html-slider-response","1212","","","","2",""
"1446","curtain","lisud,bulwawan,mchanga,chubani","mchanga","j","5","html-keyboard-response","1213","v","bulwawan","false","",""
"2943.5","","","","","5","html-slider-response","1214","","","","2",""
"1535","flag","ndege,mkate,kawa,trekta","trekta","n","5","html-keyboard-response","1215","j","kawa","false","",""
"3769","","","","","5","html-slider-response","1216","","","","2",""
"3874","dog","lubi,washia,kalamu,bahari","bahari","n","5","html-keyboard-response","1217","j","kalamu","false","",""
"2739.2000000001863","","","","","5","html-slider-response","1218","","","","2",""
"2787","cup","dagat,shimoni,matumai,jeraha","matumai","j","5","html-keyboard-response","1219","f","dagat","false","",""
"3052.899999999441","","","","","5","html-slider-response","1220","","","","2",""
"1479","sheet","juuya,watu,kamantis,bililhon","bililhon","n","5","html-keyboard-response","1221","j","kamantis","false","",""
"2884.5999999996275","","","","","5","html-slider-response","1222","","","","2",""
"4641","spoon","betri,nzuri,pagsulod,ngazi","pagsulod","j","5","html-keyboard-response","1223","j","pagsulod","true","",""
"2721.800000000745","","","","","5","html-slider-response","1224","","","","5",""
"1509","flower","bega,tamasha,lobo,usiku","bega","f","5","html-keyboard-response","1225","v","tamasha","false","",""
"3510.100000000559","","","","","5","html-slider-response","1226","","","","2",""
"4261","picture","silya,chaki,kubwa,asin","kubwa","j","5","html-keyboard-response","1227","j","kubwa","true","",""
"2965.7000000001863","","","","","5","html-slider-response","1228","","","","5",""
"1531","puppet","mazishi,napulo,lamok,godoro","mazishi","f","5","html-keyboard-response","1229","v","napulo","false","",""
"3357.7999999998137","","","","","5","html-slider-response","1230","","","","2",""
"3232","banana","kasamok,hagdan,kazi,twai","kazi","j","5","html-keyboard-response","1231","j","kazi","true","",""
"3073.600000000559","","","","","5","html-slider-response","1232","","","","4",""
"1244","book","mali,kuhesa,picha,mara","mali","f","5","html-keyboard-response","1233","v","kuhesa","false","",""
"3700.9000000003725","","","","","5","html-slider-response","1234","","","","2",""
"2196","triangle","kihozi,bentaha,liog,kasadpan","kasadpan","n","5","html-keyboard-response","1235","n","kasadpan","true","",""
"2855.399999999441","","","","","5","html-slider-response","1236","","","","4",""
"959","poster","nchi,fedha,kasuko,madungog","madungog","n","5","html-keyboard-response","1237","v","fedha","false","",""
"2832.9000000003725","","","","","5","html-slider-response","1238","","","","2",""
"2494","box","kuacha,rafiki,adui,kitande","adui","j","5","html-keyboard-response","1239","n","kitande","false","",""
"2832.2000000001863","","","","","5","html-slider-response","1240","","","","2",""
"1563","mosquito","isda,martilyo,taras,gutom","martilyo","v","5","html-keyboard-response","1241","v","martilyo","true","",""
"2966.9000000003725","","","","","5","html-slider-response","1242","","","","2",""
"1995","shelf","bungtod,kadaot,pamahaw,awit","pamahaw","j","5","html-keyboard-response","1243","v","kadaot","false","",""
"3435.7999999998137","","","","","5","html-slider-response","1244","","","","2",""
"2255","scissors","duga,mtawa,suga,tanuri","tanuri","n","5","html-keyboard-response","1245","f","duga","false","",""
"2608.7000000001863","","","","","5","html-slider-response","1246","","","","2",""
"1049","hammer","mekno,kitovu,napakyas,layag","napakyas","j","5","html-keyboard-response","1247","v","kitovu","false","",""
"3578.5999999996275","","","","","5","html-slider-response","1248","","","","2",""
