"rt","en_word","options","swa_word","correct_answer","phase","trial_type","trial_index","input_answer","input_word","accuracy","certainty","amt_choices"
"13295","bonfire","mwezi,goti,mfuko,kusanya","goti","v","2","html-keyboard-response","106","j","mfuko","false","",""
"2837.2000000029802","","","","","2","html-slider-response","107","","","","3",""
"5185","flower","bega,tamasha,lobo,usiku","bega","f","2","html-keyboard-response","108","f","bega","true","",""
"1899.2000000029802","","","","","2","html-slider-response","109","","","","2",""
"2234","column","pundok,dila,pala,ufagio","ufagio","n","2","html-keyboard-response","110","v","dila","false","",""
"1496.7999999970198","","","","","2","html-slider-response","111","","","","2",""
"5253","music","baiski,mraba,mageho,tumbo","baiski","f","2","html-keyboard-response","112","j","mageho","false","",""
"1816.9000000059605","","","","","2","html-slider-response","113","","","","2",""
"30390","spider","kamwe,bunyag,mkboa,atop","kamwe","f","2","html-keyboard-response","114","v","bunyag","false","",""
"1592.2000000029802","","","","","2","html-slider-response","115","","","","2",""
"30075","fork","mgonjwa,baboy,paghago,gorisi","mgonjwa","f","2","html-keyboard-response","116","f","mgonjwa","true","",""
"2279.0999999940395","","","","","2","html-slider-response","117","","","","5",""
"3711","mosquito","isda,martilyo,taras,gutom","martilyo","v","2","html-keyboard-response","118","v","martilyo","true","",""
"1653.0999999940395","","","","","2","html-slider-response","119","","","","4",""
"3889","banana","kazi,kasamok,hagdan,twai","kazi","f","2","html-keyboard-response","120","f","kazi","true","",""
"2832","","","","","2","html-slider-response","121","","","","3",""
"2638","cup","dagat,shimoni,matumai,jeraha","matumai","j","2","html-keyboard-response","122","f","dagat","false","",""
"1695.0999999940395","","","","","2","html-slider-response","123","","","","2",""
"3919","shop","nopya,kerida,ndezu,samaki","samaki","n","2","html-keyboard-response","124","j","ndezu","false","",""
"1715.0999999940395","","","","","2","html-slider-response","125","","","","2",""
"3460","elephant","petye,pagduol,suka,kito","kito","n","2","html-keyboard-response","126","j","suka","false","",""
"1460.9000000059605","","","","","2","html-slider-response","127","","","","2",""
"4138","bucket","kiatu,baga,ijayo,init","kiatu","f","2","html-keyboard-response","128","v","baga","false","",""
"2443.7000000029802","","","","","2","html-slider-response","129","","","","3",""
"12234","book","kuhesa,picha,mali,mara","mali","j","2","html-keyboard-response","130","j","mali","true","",""
"3695.2000000029802","","","","","2","html-slider-response","131","","","","3",""
"3007","mirror","rangi,kanding,sulagma,furaha","sulagma","j","2","html-keyboard-response","132","f","rangi","false","",""
"1211.0999999940395","","","","","2","html-slider-response","133","","","","2",""
"1611","office","hazini,yatima,leso,kuna","leso","j","2","html-keyboard-response","134","f","hazini","false","",""
"1229.2000000029802","","","","","2","html-slider-response","135","","","","2",""
"2553","body","nyundu,jibini,tindashan,kununa","tindashan","j","2","html-keyboard-response","136","v","jibini","false","",""
"1887.5","","","","","2","html-slider-response","137","","","","3",""
"3255","perfume","katuyoan,bino,sungura,ndogo","katuyoan","f","2","html-keyboard-response","138","j","sungura","false","",""
"2063.2000000029802","","","","","2","html-slider-response","139","","","","3",""
"2799","olive","jiwe,bata,siagi,welder","jiwe","f","2","html-keyboard-response","140","f","jiwe","true","",""
"2011","","","","","2","html-slider-response","141","","","","3",""
"2132","magazine","gundi,mchawi,kiti,bahandi","kiti","j","2","html-keyboard-response","142","n","bahandi","false","",""
"1234.0999999940395","","","","","2","html-slider-response","143","","","","2",""
"3252","bread","kaili,dari,dizeli,bugas","dari","v","2","html-keyboard-response","144","f","kaili","false","",""
"2143.2000000029802","","","","","2","html-slider-response","145","","","","3",""
"1815","cave","ganti,maisha,nyundo,kesho","kesho","n","2","html-keyboard-response","146","f","ganti","false","",""
"1109.1000000089407","","","","","2","html-slider-response","147","","","","2",""
"2785","ladder","mashua,mwanga,pangalan,kamba","pangalan","j","2","html-keyboard-response","148","j","pangalan","true","",""
"979","","","","","2","html-slider-response","149","","","","2",""
"4075","human","tinapay,bado,kikapu,punguza","tinapay","f","2","html-keyboard-response","150","v","bado","false","",""
"1435","","","","","2","html-slider-response","151","","","","2",""
"4340","clock","kartasi,abang,osha,mbwa","mbwa","n","2","html-keyboard-response","152","n","mbwa","true","",""
"1863.4000000059605","","","","","2","html-slider-response","153","","","","4",""
"2701","shelf","bungtod,pamahaw,kadaot,awit","pamahaw","v","2","html-keyboard-response","154","v","pamahaw","true","",""
"1541.2000000029802","","","","","2","html-slider-response","155","","","","5",""
"1760","salmon","sensilyo,mzungu,seri,baharia","sensilyo","f","2","html-keyboard-response","156","f","sensilyo","true","",""
"2357.7999999970198","","","","","2","html-slider-response","157","","","","2",""
"15672","coffin","barua,kioo,tubag,hulma","kioo","v","2","html-keyboard-response","158","j","tubag","false","",""
"1500.7999999970198","","","","","2","html-slider-response","159","","","","2",""
"2441","notebook","msitu,kila,kemia,mdudu","kemia","j","2","html-keyboard-response","160","n","mdudu","false","",""
"1015.6000000089407","","","","","2","html-slider-response","161","","","","2",""
"1831","shoulder","mkuu,kelele,ndaniya,guruwe","mkuu","f","2","html-keyboard-response","162","j","ndaniya","false","",""
"993.3999999910593","","","","","2","html-slider-response","163","","","","2",""
"1997","park","tambok,pwani,ihalas,bunifu","bunifu","n","2","html-keyboard-response","164","v","pwani","false","",""
"1197.3999999910593","","","","","2","html-slider-response","165","","","","2",""
"3576","number","shule,kengele,mundamo,choori","mundamo","j","2","html-keyboard-response","166","n","choori","false","",""
"1231.5999999940395","","","","","2","html-slider-response","167","","","","2",""
"4015","apple","kisu,ukame,estante,edad","kisu","f","2","html-keyboard-response","168","f","kisu","true","",""
"1235.0999999940395","","","","","2","html-slider-response","169","","","","2",""
"31819","letter","filimbi,chuma,kifua,uhuru","kifua","j","2","html-keyboard-response","170","v","chuma","false","",""
"1377.7999999970198","","","","","2","html-slider-response","171","","","","2",""
"2436","eel","ishara,msumari,kunywa,kabuang","msumari","v","2","html-keyboard-response","172","n","kabuang","false","",""
"1741.2999999970198","","","","","2","html-slider-response","173","","","","2",""
"2033","cop","bustani,jikoni,bakus,mechezo","mechezo","n","2","html-keyboard-response","174","j","bakus","false","",""
"937.4000000059605","","","","","2","html-slider-response","175","","","","2",""
"2261","wolf","kaburi,ndizi,mchuzi,lugha","lugha","n","2","html-keyboard-response","176","n","lugha","true","",""
"1131.7999999970198","","","","","2","html-slider-response","177","","","","2",""
"3714","squirrel","mahugaw,ukweli,hofu,kichwa","hofu","j","2","html-keyboard-response","178","f","mahugaw","false","",""
"1049.4000000059605","","","","","2","html-slider-response","179","","","","2",""
"3494","nose","gubat,sehemu,kopa,kidole","sehemu","v","2","html-keyboard-response","180","v","sehemu","true","",""
"992.7000000029802","","","","","2","html-slider-response","181","","","","2",""
"2435","sock","ndoora,mamba,kimysa,mtirka","mamba","v","2","html-keyboard-response","182","v","mamba","true","",""
"1873.2999999970198","","","","","2","html-slider-response","183","","","","2",""
"2981","bank","kudhibi,tualya,ofisi,silingan","silingan","n","2","html-keyboard-response","184","n","silingan","true","",""
"2069.6000000089407","","","","","2","html-slider-response","185","","","","2",""
"4545","donkey","elfu,bloke,lalake,rombus","elfu","f","2","html-keyboard-response","186","f","elfu","true","",""
"2011.2000000029802","","","","","2","html-slider-response","187","","","","2",""
"2508","poster","madungog,nchi,fedha,kasuko","madungog","f","2","html-keyboard-response","188","n","kasuko","false","",""
"1124.3999999910593","","","","","2","html-slider-response","189","","","","2",""
"1497","puppet","mazishi,napulo,lamok,godoro","mazishi","f","2","html-keyboard-response","190","v","napulo","false","",""
"2397","","","","","2","html-slider-response","191","","","","1",""
"3682","hill","matumbo,kushoto,kukimba,sweta","matumbo","f","2","html-keyboard-response","192","n","sweta","false","",""
"1178.4000000059605","","","","","2","html-slider-response","193","","","","2",""
"2257","tooth","kabalaka,kijiko,uadui,pahiyum","kabalaka","f","2","html-keyboard-response","194","j","uadui","false","",""
"1483.2000000029802","","","","","2","html-slider-response","195","","","","2",""
"4139","woman","bandari,bituin,kovuli,pagtabon","pagtabon","n","2","html-keyboard-response","196","f","bandari","false","",""
"1541.5","","","","","2","html-slider-response","197","","","","2",""
"5720","wheel","punda,tawo,baadaye,bafuni","bafuni","n","2","html-keyboard-response","198","n","bafuni","true","",""
"1575.2999999970198","","","","","2","html-slider-response","199","","","","2",""
"3240","mother","kahawa,babaye,mbuzi,jokofu","babaye","v","2","html-keyboard-response","200","v","babaye","true","",""
"1144.7000000029802","","","","","2","html-slider-response","201","","","","2",""
"1716","bed","mapintas,kalipay,haraka,starehe","mapintas","f","2","html-keyboard-response","202","n","starehe","false","",""
"1162.4000000059605","","","","","2","html-slider-response","203","","","","2",""
"1796","key","miaka,chombo,goma,ahos","chombo","v","2","html-keyboard-response","204","n","ahos","false","",""
"1027.9000000059605","","","","","2","html-slider-response","205","","","","2",""
"2089","page","wakala,wimbo,ishiri,skina","wimbo","v","2","html-keyboard-response","206","f","wakala","false","",""
"1652.0999999940395","","","","","2","html-slider-response","207","","","","2",""
"3602","pants","pintal,haki,chuki,hari","haki","v","2","html-keyboard-response","208","n","hari","false","",""
"1867.4000000059605","","","","","2","html-slider-response","209","","","","2",""
"3630","sun","bendi,basi,luha,uongo","basi","v","2","html-keyboard-response","210","j","luha","false","",""
"1097.1000000089407","","","","","2","html-slider-response","211","","","","2",""
"2082","finger","simu,sufuria,lima,moyo","moyo","n","2","html-keyboard-response","212","j","lima","false","",""
"1363.5","","","","","2","html-slider-response","213","","","","2",""
"1724","shoe","nyeusi,hatua,kama,uyoga","uyoga","n","2","html-keyboard-response","214","f","nyeusi","false","",""
"2446.9000000059605","","","","","2","html-slider-response","215","","","","2",""
"3598","giraffe","daraja,jumatu,mahitabo,hangyo","mahitabo","j","2","html-keyboard-response","216","v","jumatu","false","",""
"1043.5","","","","","2","html-slider-response","217","","","","2",""
"1747","dog","lubi,washia,bahari,kalamu","bahari","j","2","html-keyboard-response","218","f","lubi","false","",""
"938","","","","","2","html-slider-response","219","","","","2",""
"5188","box","kuacha,adui,rafiki,kitande","adui","v","2","html-keyboard-response","220","v","adui","true","",""
"1153.2000000029802","","","","","2","html-slider-response","221","","","","2",""
"3349","scissors","tanuri,duga,mtawa,suga","tanuri","f","2","html-keyboard-response","222","j","mtawa","false","",""
"2453.300000011921","","","","","2","html-slider-response","223","","","","2",""
"2345","cat","paghukom,neyemba,baki,akili","paghukom","f","2","html-keyboard-response","224","j","baki","false","",""
"1871.300000011921","","","","","2","html-slider-response","225","","","","2",""
"1584","basket","kumbuka,utepe,hasira,kumba","kumba","n","2","html-keyboard-response","226","v","utepe","false","",""
"1841","","","","","2","html-slider-response","227","","","","2",""
"3699","snake","jansa,karon,pagtukod,mvringo","pagtukod","j","2","html-keyboard-response","228","n","mvringo","false","",""
"1462.8999999910593","","","","","2","html-slider-response","229","","","","2",""
"7544","gift","pagtawag,baba,nyange,baso","pagtawag","f","2","html-keyboard-response","230","v","baba","false","",""
"1352.5999999940395","","","","","2","html-slider-response","231","","","","2",""
"4228","train","itik,dakika,mungu,sayari","sayari","n","2","html-keyboard-response","232","f","itik","false","",""
"1029.5","","","","","2","html-slider-response","233","","","","2",""
"3177","pudding","abug,mpishi,iring,aibu","aibu","n","2","html-keyboard-response","234","j","iring","false","",""
"1802.2999999970198","","","","","2","html-slider-response","235","","","","1",""
"168881","tomato","chupi,chupa,takatak,mvua","mvua","n","2","html-keyboard-response","236","n","mvua","true","",""
"1470.7999999970198","","","","","2","html-slider-response","237","","","","2",""
"2144","stone","ulimwengu,wingi,mkasi,asili","wingi","v","2","html-keyboard-response","238","v","wingi","true","",""
"2257.4000000059605","","","","","2","html-slider-response","239","","","","2",""
"2723","hammer","mekno,kitovu,napakyas,layag","napakyas","j","2","html-keyboard-response","240","n","layag","false","",""
"1393.0999999940395","","","","","2","html-slider-response","241","","","","2",""
"13517","knee","mvuke,duka,kubale,bili","duka","v","2","html-keyboard-response","242","n","bili","false","",""
"1902.4000000059605","","","","","2","html-slider-response","243","","","","2",""
"1551","ceiling","kugita,maua,kawaida,rayna","maua","v","2","html-keyboard-response","244","j","kawaida","false","",""
"1519","","","","","2","html-slider-response","245","","","","2",""
"1424","spoon","pagsulod,betri,nzuri,ngazi","pagsulod","f","2","html-keyboard-response","246","v","betri","false","",""
"2547.4000000059605","","","","","2","html-slider-response","247","","","","2",""
"2189","marker","maji,mapafu,salita,atay","maji","f","2","html-keyboard-response","248","v","mapafu","false","",""
"1235.0999999940395","","","","","2","html-slider-response","249","","","","2",""
"3179","candle","gabi,geza,farasi,kupanda","geza","v","2","html-keyboard-response","250","v","geza","true","",""
"1199.7000000029802","","","","","2","html-slider-response","251","","","","2",""
"3470","tissue","ugomvi,lamigas,kisiwa,katika","ugomvi","f","2","html-keyboard-response","252","j","kisiwa","false","",""
"4304.9000000059605","","","","","2","html-slider-response","253","","","","2",""
"14286","bridge","daima,sahani,ngono,panya","sahani","v","2","html-keyboard-response","254","j","ngono","false","",""
"3581","","","","","2","html-slider-response","255","","","","2",""
"2930","berry","abogado,nogozi,kinywa,kofia","kofia","n","2","html-keyboard-response","256","n","kofia","true","",""
"1865.2999999970198","","","","","2","html-slider-response","257","","","","2",""
"2669","triangle","kasadpan,kihozi,bentaha,liog","kasadpan","f","2","html-keyboard-response","258","f","kasadpan","true","",""
"1016.9000000059605","","","","","2","html-slider-response","259","","","","2",""
"5206","door","tena,surali,soko,nyota","surali","v","2","html-keyboard-response","260","f","tena","false","",""
"1829.2000000029802","","","","","2","html-slider-response","261","","","","3",""
"2090","fish","buli,bala,baho,imani","buli","f","2","html-keyboard-response","262","f","buli","true","",""
"1997.2000000029802","","","","","2","html-slider-response","263","","","","3",""
"3090","curtain","lisud,mchanga,bulwawan,chubani","mchanga","v","2","html-keyboard-response","264","j","bulwawan","false","",""
"2373","","","","","2","html-slider-response","265","","","","1",""
"71175","flag","ndege,trekta,mkate,kawa","trekta","v","2","html-keyboard-response","266","n","kawa","false","",""
"1677.4000000059605","","","","","2","html-slider-response","267","","","","2",""
"1489","boat","hamsi,agalon,pombe,kitanda","agalon","v","2","html-keyboard-response","268","j","pombe","false","",""
"971.2999999970198","","","","","2","html-slider-response","269","","","","2",""
"1667","rose","singizi,mwanake,amani,paghalad","paghalad","n","2","html-keyboard-response","270","j","amani","false","",""
"1389.0999999940395","","","","","2","html-slider-response","271","","","","2",""
"1858","lamp","daub,bilaska,mbolea,afya","afya","n","2","html-keyboard-response","272","n","afya","true","",""
"940.9000000059605","","","","","2","html-slider-response","273","","","","2",""
"2599","cigar","ndugu,kuta,mlango,adhabu","adhabu","n","2","html-keyboard-response","274","j","mlango","false","",""
"933.2000000029802","","","","","2","html-slider-response","275","","","","2",""
"1465","list","alizeti,wingu,kuzama,kaso","wingu","v","2","html-keyboard-response","276","n","kaso","false","",""
"981.2000000029802","","","","","2","html-slider-response","277","","","","2",""
"2009","sheet","juuya,watu,kamantis,bililhon","bililhon","n","2","html-keyboard-response","278","v","watu","false","",""
"1245.6000000089407","","","","","2","html-slider-response","279","","","","2",""
"1729","picture","kubwa,silya,chaki,asin","kubwa","f","2","html-keyboard-response","280","n","asin","false","",""
"1441.6000000089407","","","","","2","html-slider-response","281","","","","2",""
"1405","towel","tembo,funzi,pito,pagpalit","pagpalit","n","2","html-keyboard-response","282","j","pito","false","",""
"987.2000000029802","","","","","2","html-slider-response","283","","","","2",""
"2627","window","nanga,kujenga,kweli,umaga","kweli","j","2","html-keyboard-response","284","n","umaga","false","",""
"1835.7999999970198","","","","","2","html-slider-response","285","","","","2",""
"13576","box","kuacha,rafiki,kitande,adui","adui","n","3","html-keyboard-response","293","v","rafiki","false","","4"
"3325.0999999940395","","","","","3","html-slider-response","294","","","","3",""
"9424","","","","","3","html-keyboard-response","295","","","","",""
"2558","pants","haki,pintal,chuki,hari","haki","f","3","html-keyboard-response","296","n","hari","false","","4"
"1619.0999999940395","","","","","3","html-slider-response","297","","","","2",""
"5983","","","","","3","html-keyboard-response","298","","","","",""
"3047","cup","dagat,shimoni,matumai,jeraha","matumai","j","3","html-keyboard-response","299","f","dagat","false","","4"
"1295.5999999940395","","","","","3","html-slider-response","300","","","","2",""
"6695","","","","","3","html-keyboard-response","301","","","","",""
"3383","triangle","kihozi,bentaha,kasadpan,liog","kasadpan","j","3","html-keyboard-response","302","f","kihozi","false","","4"
"1567.2000000029802","","","","","3","html-slider-response","303","","","","2",""
"8065","","","","","3","html-keyboard-response","304","","","","",""
"2435","curtain","mchanga,lisud,bulwawan,chubani","mchanga","f","3","html-keyboard-response","305","j","bulwawan","false","","4"
"1105.5999999940395","","","","","3","html-slider-response","306","","","","2",""
"6662","","","","","3","html-keyboard-response","307","","","","",""
"2438","clock","kartasi,mbwa,abang,osha","mbwa","v","3","html-keyboard-response","308","v","mbwa","true","","4"
"1713.5","","","","","3","html-slider-response","309","","","","5",""
"2181","","","","","3","html-keyboard-response","310","","","","",""
"3439","mirror","sulagma,rangi,kanding,furaha","sulagma","f","3","html-keyboard-response","311","v","rangi","false","","4"
"1869.4000000059605","","","","","3","html-slider-response","312","","","","2",""
"6938","","","","","3","html-keyboard-response","313","","","","",""
"1933","coffin","kioo,barua,tubag,hulma","kioo","f","3","html-keyboard-response","314","f","kioo","true","","1"
"1427.2999999970198","","","","","3","html-slider-response","315","","","","5",""
"9294","","","","","3","html-keyboard-response","316","","","","",""
"4553","magazine","kiti,gundi,mchawi,bahandi","kiti","f","3","html-keyboard-response","317","n","bahandi","false","","4"
"1719.7000000029802","","","","","3","html-slider-response","318","","","","3",""
"8085","","","","","3","html-keyboard-response","319","","","","",""
"3920","column","ufagio,pundok,dila,pala","ufagio","f","3","html-keyboard-response","320","f","ufagio","true","","1"
"2419.2000000029802","","","","","3","html-slider-response","321","","","","5",""
"6705","","","","","3","html-keyboard-response","322","","","","",""
"2815","number","shule,kengele,mundamo,choori","mundamo","j","3","html-keyboard-response","323","j","mundamo","true","","4"
"1147.2999999970198","","","","","3","html-slider-response","324","","","","2",""
"7699","","","","","3","html-keyboard-response","325","","","","",""
"3527","rose","singizi,paghalad,mwanake,amani","paghalad","v","3","html-keyboard-response","326","n","amani","false","","4"
"1135.800000011921","","","","","3","html-slider-response","327","","","","2",""
"5975","","","","","3","html-keyboard-response","328","","","","",""
"1912","eel","ishara,kunywa,msumari,kabuang","msumari","j","3","html-keyboard-response","329","f","ishara","false","","4"
"2066.2000000029802","","","","","3","html-slider-response","330","","","","2",""
"5534","","","","","3","html-keyboard-response","331","","","","",""
"2496","gift","pagtawag,baba,nyange,baso","pagtawag","f","3","html-keyboard-response","332","v","baba","false","","4"
"1554.2000000029802","","","","","3","html-slider-response","333","","","","2",""
"15940","","","","","3","html-keyboard-response","334","","","","",""
"1928","apple","ukame,estante,kisu,edad","kisu","j","3","html-keyboard-response","335","j","kisu","true","","1"
"1529.7000000029802","","","","","3","html-slider-response","336","","","","5",""
"5685","","","","","3","html-keyboard-response","337","","","","",""
"1560","wheel","punda,tawo,baadaye,bafuni","bafuni","n","3","html-keyboard-response","338","n","bafuni","true","","1"
"2045.4000000059605","","","","","3","html-slider-response","339","","","","5",""
"6041","","","","","3","html-keyboard-response","340","","","","",""
"1782","knee","mvuke,kubale,duka,bili","duka","j","3","html-keyboard-response","341","n","bili","false","","4"
"1983.2000000029802","","","","","3","html-slider-response","342","","","","2",""
"7591","","","","","3","html-keyboard-response","343","","","","",""
"17644","basket","kumba,kumbuka,utepe,hasira","kumba","f","3","html-keyboard-response","344","f","kumba","true","","1"
"1545.2999999970198","","","","","3","html-slider-response","345","","","","5",""
"1020","","","","","3","html-keyboard-response","346","","","","",""
"1599","park","tambok,pwani,ihalas,bunifu","bunifu","n","3","html-keyboard-response","347","n","bunifu","true","","4"
"1195.3999999910593","","","","","3","html-slider-response","348","","","","2",""
"8019","","","","","3","html-keyboard-response","349","","","","",""
"2575","finger","moyo,simu,sufuria,lima","moyo","f","3","html-keyboard-response","350","j","sufuria","false","","4"
"1429.1000000089407","","","","","3","html-slider-response","351","","","","2",""
"985","","","","","3","html-keyboard-response","352","","","","",""
"4168","boat","hamsi,pombe,kitanda,agalon","agalon","n","3","html-keyboard-response","353","n","agalon","true","","4"
"1494.199999988079","","","","","3","html-slider-response","354","","","","2",""
"7237","","","","","3","html-keyboard-response","355","","","","",""
"3199","hill","kushoto,matumbo,kukimba,sweta","matumbo","v","3","html-keyboard-response","356","n","sweta","false","","4"
"3043.2999999970198","","","","","3","html-slider-response","357","","","","3",""
"907","","","","","3","html-keyboard-response","358","","","","",""
"2672","train","itik,dakika,mungu,sayari","sayari","n","3","html-keyboard-response","359","f","itik","false","","4"
"1276.199999988079","","","","","3","html-slider-response","360","","","","2",""
"1138","","","","","3","html-keyboard-response","361","","","","",""
"1519","wolf","kaburi,ndizi,lugha,mchuzi","lugha","j","3","html-keyboard-response","362","j","lugha","true","","4"
"1883.2000000029802","","","","","3","html-slider-response","363","","","","2",""
"1484","","","","","3","html-keyboard-response","364","","","","",""
"10806","snake","pagtukod,jansa,karon,mvringo","pagtukod","f","3","html-keyboard-response","365","n","mvringo","false","","4"
"1064.5","","","","","3","html-slider-response","366","","","","2",""
"747","","","","","3","html-keyboard-response","367","","","","",""
"5647","tooth","kijiko,uadui,pahiyum,kabalaka","kabalaka","n","3","html-keyboard-response","368","f","kijiko","false","","4"
"1447.2999999970198","","","","","3","html-slider-response","369","","","","2",""
"784","","","","","3","html-keyboard-response","370","","","","",""
"1838","notebook","msitu,kila,kemia,mdudu","kemia","j","3","html-keyboard-response","371","n","mdudu","false","","4"
"1125.2999999970198","","","","","3","html-slider-response","372","","","","2",""
"2176","","","","","3","html-keyboard-response","373","","","","",""
"2712","flag","ndege,trekta,mkate,kawa","trekta","v","3","html-keyboard-response","374","n","kawa","false","","4"
"1519.2000000029802","","","","","3","html-slider-response","375","","","","2",""
"10821","","","","","3","html-keyboard-response","376","","","","",""
"2215","squirrel","mahugaw,ukweli,hofu,kichwa","hofu","j","3","html-keyboard-response","377","j","hofu","true","","4"
"2459.2999999970198","","","","","3","html-slider-response","378","","","","2",""
"9355","","","","","3","html-keyboard-response","379","","","","",""
"2360","door","surali,tena,soko,nyota","surali","f","3","html-keyboard-response","380","j","soko","false","","4"
"1181","","","","","3","html-slider-response","381","","","","2",""
"906","","","","","3","html-keyboard-response","382","","","","",""
"3119","salmon","mzungu,seri,baharia,sensilyo","sensilyo","n","3","html-keyboard-response","383","j","baharia","false","","4"
"1769","","","","","3","html-slider-response","384","","","","2",""
"797","","","","","3","html-keyboard-response","385","","","","",""
"1759","shoulder","kelele,ndaniya,guruwe,mkuu","mkuu","n","3","html-keyboard-response","386","j","guruwe","false","","4"
"1391.5999999940395","","","","","3","html-slider-response","387","","","","2",""
"799","","","","","3","html-keyboard-response","388","","","","",""
"1904","lamp","afya,daub,bilaska,mbolea","afya","f","3","html-keyboard-response","389","v","daub","false","","4"
"1213.2000000029802","","","","","3","html-slider-response","390","","","","2",""
"673","","","","","3","html-keyboard-response","391","","","","",""
"13144","shelf","bungtod,kadaot,pamahaw,awit","pamahaw","j","3","html-keyboard-response","392","j","pamahaw","true","","1"
"2081.5999999940395","","","","","3","html-slider-response","393","","","","5",""
"110340","","","","","3","html-keyboard-response","394","","","","",""
"31079","human","bado,kikapu,punguza,tinapay","tinapay","n","3","html-keyboard-response","395","v","kikapu","false","","4"
"1311.7000000029802","","","","","3","html-slider-response","396","","","","2",""
"662","","","","","3","html-keyboard-response","397","","","","",""
"1416","towel","pagpalit,tembo,funzi,pito","pagpalit","f","3","html-keyboard-response","398","n","pito","false","","4"
"1190.8999999910593","","","","","3","html-slider-response","399","","","","2",""
"719","","","","","3","html-keyboard-response","400","","","","",""
"2311","cat","neyemba,baki,paghukom,akili","paghukom","j","3","html-keyboard-response","401","v","baki","false","","4"
"1187.7000000029802","","","","","3","html-slider-response","402","","","","2",""
"1274","","","","","3","html-keyboard-response","403","","","","",""
"4487","spider","bunyag,mkboa,kamwe,atop","kamwe","j","3","html-keyboard-response","404","j","kamwe","true","","4"
"1331","","","","","3","html-slider-response","405","","","","2",""
"84402","","","","","3","html-keyboard-response","406","","","","",""
"2071","window","kweli,nanga,kujenga,umaga","kweli","f","3","html-keyboard-response","407","j","kujenga","false","","4"
"1340.7999999970198","","","","","3","html-slider-response","408","","","","2",""
"7489","","","","","3","html-keyboard-response","409","","","","",""
"1679","woman","bandari,bituin,kovuli,pagtabon","pagtabon","n","3","html-keyboard-response","410","n","pagtabon","true","","1"
"1291.2000000029802","","","","","3","html-slider-response","411","","","","5",""
"8259","","","","","3","html-keyboard-response","412","","","","",""
"2063","giraffe","daraja,jumatu,hangyo,mahitabo","mahitabo","n","3","html-keyboard-response","413","j","hangyo","false","","4"
"1229.7000000029802","","","","","3","html-slider-response","414","","","","2",""
"594","","","","","3","html-keyboard-response","415","","","","",""
"2703","elephant","petye,kito,pagduol,suka","kito","v","3","html-keyboard-response","416","v","kito","true","","4"
"1119.5","","","","","3","html-slider-response","417","","","","2",""
"6495","","","","","3","html-keyboard-response","418","","","","",""
"1751","cave","kesho,ganti,maisha,nyundo","kesho","f","3","html-keyboard-response","419","v","ganti","false","","4"
"1575.7999999970198","","","","","3","html-slider-response","420","","","","4",""
"959","","","","","3","html-keyboard-response","421","","","","",""
"3656","bread","dari,kaili,dizeli,bugas","dari","f","3","html-keyboard-response","422","f","dari","true","","4"
"2035.7000000029802","","","","","3","html-slider-response","423","","","","3",""
"5987","","","","","3","html-keyboard-response","424","","","","",""
"1943","stone","ulimwengu,wingi,mkasi,asili","wingi","v","3","html-keyboard-response","425","n","asili","false","","4"
"1089.2999999970198","","","","","3","html-slider-response","426","","","","2",""
"549","","","","","3","html-keyboard-response","427","","","","",""
"2000","donkey","bloke,lalake,rombus,elfu","elfu","n","3","html-keyboard-response","428","n","elfu","true","","4"
"1373.2000000029802","","","","","3","html-slider-response","429","","","","2",""
"6391","","","","","3","html-keyboard-response","430","","","","",""
"1647","bridge","sahani,daima,ngono,panya","sahani","f","3","html-keyboard-response","431","v","daima","false","","4"
"1072.800000011921","","","","","3","html-slider-response","432","","","","2",""
"469","","","","","3","html-keyboard-response","433","","","","",""
"2775","bonfire","mwezi,mfuko,goti,kusanya","goti","j","3","html-keyboard-response","434","j","goti","true","","4"
"1403.2000000029802","","","","","3","html-slider-response","435","","","","4",""
"17428","","","","","3","html-keyboard-response","436","","","","",""
"2622","book","kuhesa,picha,mali,mara","mali","j","3","html-keyboard-response","437","n","mara","false","","4"
"1968.9000000059605","","","","","3","html-slider-response","438","","","","2",""
"867","","","","","3","html-keyboard-response","439","","","","",""
"2808","fish","bala,baho,buli,imani","buli","j","3","html-keyboard-response","440","j","buli","true","","4"
"1597.4000000059605","","","","","3","html-slider-response","441","","","","2",""
"6384","","","","","3","html-keyboard-response","442","","","","",""
"2367","spoon","pagsulod,betri,nzuri,ngazi","pagsulod","f","3","html-keyboard-response","443","n","ngazi","false","","4"
"1021.5","","","","","3","html-slider-response","444","","","","2",""
"522","","","","","3","html-keyboard-response","445","","","","",""
"1670","scissors","duga,tanuri,mtawa,suga","tanuri","v","3","html-keyboard-response","446","v","tanuri","true","","4"
"1030.8999999910593","","","","","3","html-slider-response","447","","","","2",""
"25972","","","","","3","html-keyboard-response","448","","","","",""
"1954","page","wakala,ishiri,wimbo,skina","wimbo","j","3","html-keyboard-response","449","n","skina","false","","4"
"1807","","","","","3","html-slider-response","450","","","","2",""
"727","","","","","3","html-keyboard-response","451","","","","",""
"1303","nose","gubat,sehemu,kopa,kidole","sehemu","v","3","html-keyboard-response","452","v","sehemu","true","","1"
"1663.5999999940395","","","","","3","html-slider-response","453","","","","5",""
"7382","","","","","3","html-keyboard-response","454","","","","",""
"1719","ceiling","kugita,kawaida,maua,rayna","maua","j","3","html-keyboard-response","455","v","kawaida","false","","4"
"1109.2000000029802","","","","","3","html-slider-response","456","","","","2",""
"618","","","","","3","html-keyboard-response","457","","","","",""
"1989","bucket","baga,ijayo,init,kiatu","kiatu","n","3","html-keyboard-response","458","f","baga","false","","4"
"937.5","","","","","3","html-slider-response","459","","","","2",""
"660","","","","","3","html-keyboard-response","460","","","","",""
"1639","berry","abogado,kofia,nogozi,kinywa","kofia","v","3","html-keyboard-response","461","v","kofia","true","","1"
"1709.0999999940395","","","","","3","html-slider-response","462","","","","5",""
"834","","","","","3","html-keyboard-response","463","","","","",""
"2798","mother","babaye,kahawa,mbuzi,jokofu","babaye","f","3","html-keyboard-response","464","f","babaye","true","","1"
"1920.3999999910593","","","","","3","html-slider-response","465","","","","5",""
"1739","","","","","3","html-keyboard-response","466","","","","",""
"2103","mosquito","isda,taras,gutom,martilyo","martilyo","n","3","html-keyboard-response","467","n","martilyo","true","","4"
"1273.7000000029802","","","","","3","html-slider-response","468","","","","4",""
"1493","","","","","3","html-keyboard-response","469","","","","",""
"1736","perfume","katuyoan,bino,sungura,ndogo","katuyoan","f","3","html-keyboard-response","470","v","bino","false","","4"
"1455.2999999970198","","","","","3","html-slider-response","471","","","","2",""
"549","","","","","3","html-keyboard-response","472","","","","",""
"3703","sheet","juuya,watu,kamantis,bililhon","bililhon","n","3","html-keyboard-response","473","n","bililhon","true","","4"
"3605.2999999970198","","","","","3","html-slider-response","474","","","","3",""
"361","","","","","3","html-keyboard-response","475","","","","",""
"10943","puppet","mazishi,napulo,lamok,godoro","mazishi","f","3","html-keyboard-response","476","f","mazishi","true","","1"
"1887.5","","","","","3","html-slider-response","477","","","","5",""
"719","","","","","3","html-keyboard-response","478","","","","",""
"2488","poster","nchi,fedha,kasuko,madungog","madungog","n","3","html-keyboard-response","479","f","nchi","false","","4"
"1639.2999999970198","","","","","3","html-slider-response","480","","","","2",""
"559","","","","","3","html-keyboard-response","481","","","","",""
"2278","music","mraba,mageho,baiski,tumbo","baiski","j","3","html-keyboard-response","482","f","mraba","false","","4"
"1133.2000000029802","","","","","3","html-slider-response","483","","","","2",""
"393","","","","","3","html-keyboard-response","484","","","","",""
"1312","key","chombo,miaka,goma,ahos","chombo","f","3","html-keyboard-response","485","v","miaka","false","","4"
"1548.5999999940395","","","","","3","html-slider-response","486","","","","2",""
"417","","","","","3","html-keyboard-response","487","","","","",""
"2167","sock","ndoora,kimysa,mamba,mtirka","mamba","j","3","html-keyboard-response","488","j","mamba","true","","4"
"2679.2000000029802","","","","","3","html-slider-response","489","","","","3",""
"6736","","","","","3","html-keyboard-response","490","","","","",""
"1621","marker","maji,mapafu,salita,atay","maji","f","3","html-keyboard-response","491","v","mapafu","false","","4"
"959.3999999910593","","","","","3","html-slider-response","492","","","","2",""
"919","","","","","3","html-keyboard-response","493","","","","",""
"1655","office","hazini,yatima,kuna,leso","leso","n","3","html-keyboard-response","494","n","leso","true","","4"
"1102.7000000029802","","","","","3","html-slider-response","495","","","","2",""
"6295","","","","","3","html-keyboard-response","496","","","","",""
"1503","shoe","uyoga,nyeusi,hatua,kama","uyoga","f","3","html-keyboard-response","497","n","kama","false","","4"
"1845.2000000029802","","","","","3","html-slider-response","498","","","","1",""
"545","","","","","3","html-keyboard-response","499","","","","",""
"1848","cop","bustani,jikoni,mechezo,bakus","mechezo","j","3","html-keyboard-response","500","n","bakus","false","","4"
"1159.0999999940395","","","","","3","html-slider-response","501","","","","2",""
"669","","","","","3","html-keyboard-response","502","","","","",""
"2751","bank","kudhibi,tualya,ofisi,silingan","silingan","n","3","html-keyboard-response","503","f","kudhibi","false","","4"
"1451","","","","","3","html-slider-response","504","","","","2",""
"731","","","","","3","html-keyboard-response","505","","","","",""
"3296","letter","filimbi,chuma,kifua,uhuru","kifua","j","3","html-keyboard-response","506","j","kifua","true","","1"
"1286.5999999940395","","","","","3","html-slider-response","507","","","","5",""
"1925","","","","","3","html-keyboard-response","508","","","","",""
"12120","dog","lubi,washia,kalamu,bahari","bahari","n","3","html-keyboard-response","509","n","bahari","true","","1"
"1116.4000000059605","","","","","3","html-slider-response","510","","","","5",""
"1583","","","","","3","html-keyboard-response","511","","","","",""
"2167","shop","nopya,kerida,ndezu,samaki","samaki","n","3","html-keyboard-response","512","n","samaki","true","","4"
"1705.2000000029802","","","","","3","html-slider-response","513","","","","2",""
"437","","","","","3","html-keyboard-response","514","","","","",""
"1583","flower","tamasha,lobo,bega,usiku","bega","j","3","html-keyboard-response","515","v","lobo","false","","4"
"1225.7999999970198","","","","","3","html-slider-response","516","","","","2",""
"702","","","","","3","html-keyboard-response","517","","","","",""
"8421","cigar","ndugu,kuta,mlango,adhabu","adhabu","n","3","html-keyboard-response","518","n","adhabu","true","","1"
"2519.1000000089407","","","","","3","html-slider-response","519","","","","5",""
"712","","","","","3","html-keyboard-response","520","","","","",""
"3064","hammer","napakyas,mekno,kitovu,layag","napakyas","f","3","html-keyboard-response","521","v","mekno","false","","4"
"1065","","","","","3","html-slider-response","522","","","","2",""
"869","","","","","3","html-keyboard-response","523","","","","",""
"3560","fork","baboy,mgonjwa,paghago,gorisi","mgonjwa","v","3","html-keyboard-response","524","v","mgonjwa","true","","4"
"1516.7999999970198","","","","","3","html-slider-response","525","","","","5",""
"543","","","","","3","html-keyboard-response","526","","","","",""
"1424","sun","bendi,basi,luha,uongo","basi","v","3","html-keyboard-response","527","v","basi","true","","1"
"1633.8999999910593","","","","","3","html-slider-response","528","","","","5",""
"1069","","","","","3","html-keyboard-response","529","","","","",""
"8503","ladder","mashua,mwanga,kamba,pangalan","pangalan","n","3","html-keyboard-response","530","n","pangalan","true","","4"
"2335.1000000089407","","","","","3","html-slider-response","531","","","","3",""
"1401","","","","","3","html-keyboard-response","532","","","","",""
"2077","banana","kasamok,hagdan,twai,kazi","kazi","n","3","html-keyboard-response","533","n","kazi","true","","1"
"1353.6000000089407","","","","","3","html-slider-response","534","","","","5",""
"958","","","","","3","html-keyboard-response","535","","","","",""
"1839","pudding","abug,mpishi,aibu,iring","aibu","j","3","html-keyboard-response","536","v","mpishi","false","","4"
"828.5999999940395","","","","","3","html-slider-response","537","","","","2",""
"194","","","","","3","html-keyboard-response","538","","","","",""
"3271","body","nyundu,tindashan,jibini,kununa","tindashan","v","3","html-keyboard-response","539","j","jibini","false","","4"
"978.9000000059605","","","","","3","html-slider-response","540","","","","2",""
"1090","","","","","3","html-keyboard-response","541","","","","",""
"2303","bed","mapintas,kalipay,haraka,starehe","mapintas","f","3","html-keyboard-response","542","j","haraka","false","","4"
"1493.4000000059605","","","","","3","html-slider-response","543","","","","2",""
"8050","","","","","3","html-keyboard-response","544","","","","",""
"1560","tissue","lamigas,ugomvi,kisiwa,katika","ugomvi","v","3","html-keyboard-response","545","v","ugomvi","true","","4"
"1405.3999999910593","","","","","3","html-slider-response","546","","","","2",""
"810","","","","","3","html-keyboard-response","547","","","","",""
"1677","candle","gabi,farasi,geza,kupanda","geza","j","3","html-keyboard-response","548","f","gabi","false","","4"
"1304.0999999940395","","","","","3","html-slider-response","549","","","","2",""
"886","","","","","3","html-keyboard-response","550","","","","",""
"1503","tomato","chupi,chupa,mvua,takatak","mvua","j","3","html-keyboard-response","551","j","mvua","true","","1"
"1141.2000000029802","","","","","3","html-slider-response","552","","","","5",""
"1402","","","","","3","html-keyboard-response","553","","","","",""
"2285","list","wingu,alizeti,kuzama,kaso","wingu","f","3","html-keyboard-response","554","n","kaso","false","","4"
"1566.2999999970198","","","","","3","html-slider-response","555","","","","2",""
"335","","","","","3","html-keyboard-response","556","","","","",""
"1863","olive","jiwe,bata,siagi,welder","jiwe","f","3","html-keyboard-response","557","f","jiwe","true","","4"
"1979.3999999910593","","","","","3","html-slider-response","558","","","","2",""
"8595","","","","","3","html-keyboard-response","559","","","","",""
"1360","picture","silya,chaki,kubwa,asin","kubwa","j","3","html-keyboard-response","560","j","kubwa","true","","1"
"1120","","","","","3","html-slider-response","561","","","","5",""
"676","","","","","3","html-keyboard-response","562","","","","",""
"9156","page","wakala,ishiri,wimbo,skina","wimbo","j","4","html-keyboard-response","888","v","ishiri","false","",""
"2216.7000000029802","","","","","4","html-slider-response","889","","","","2",""
"11261","sheet","juuya,watu,kamantis,bililhon","bililhon","n","4","html-keyboard-response","890","n","bililhon","true","",""
"1065.4000000059605","","","","","4","html-slider-response","891","","","","4",""
"7150","ladder","pangalan,mashua,mwanga,kamba","pangalan","f","4","html-keyboard-response","892","v","mashua","false","",""
"1269.300000011921","","","","","4","html-slider-response","893","","","","2",""
"3768","door","surali,tena,soko,nyota","surali","f","4","html-keyboard-response","894","j","soko","false","",""
"1157.2000000029802","","","","","4","html-slider-response","895","","","","2",""
"6706","spider","bunyag,mkboa,kamwe,atop","kamwe","j","4","html-keyboard-response","896","j","kamwe","true","",""
"1437.1000000089407","","","","","4","html-slider-response","897","","","","4",""
"2722","picture","silya,chaki,asin,kubwa","kubwa","n","4","html-keyboard-response","898","n","kubwa","true","",""
"1265.6000000089407","","","","","4","html-slider-response","899","","","","2",""
"1764","boat","agalon,hamsi,pombe,kitanda","agalon","f","4","html-keyboard-response","900","v","hamsi","false","",""
"851.5999999940395","","","","","4","html-slider-response","901","","","","2",""
"2796","donkey","bloke,elfu,lalake,rombus","elfu","v","4","html-keyboard-response","902","v","elfu","true","",""
"1543.1000000089407","","","","","4","html-slider-response","903","","","","5",""
"14007","book","kuhesa,picha,mali,mara","mali","j","4","html-keyboard-response","904","v","picha","false","",""
"1994.7999999970198","","","","","4","html-slider-response","905","","","","3",""
"7876","cup","dagat,matumai,shimoni,jeraha","matumai","v","4","html-keyboard-response","906","v","matumai","true","",""
"2701","","","","","4","html-slider-response","907","","","","2",""
"2049","sun","bendi,luha,uongo,basi","basi","n","4","html-keyboard-response","908","n","basi","true","",""
"1797.2000000029802","","","","","4","html-slider-response","909","","","","5",""
"2995","pudding","abug,mpishi,iring,aibu","aibu","n","4","html-keyboard-response","910","v","mpishi","false","",""
"1991.300000011921","","","","","4","html-slider-response","911","","","","3",""
"12549","human","bado,kikapu,punguza,tinapay","tinapay","n","4","html-keyboard-response","912","v","kikapu","false","",""
"1367","","","","","4","html-slider-response","913","","","","2",""
"15471","squirrel","hofu,mahugaw,ukweli,kichwa","hofu","f","4","html-keyboard-response","914","f","hofu","true","",""
"947","","","","","4","html-slider-response","915","","","","4",""
"1651","park","tambok,pwani,bunifu,ihalas","bunifu","j","4","html-keyboard-response","916","n","ihalas","false","",""
"1689.1000000089407","","","","","4","html-slider-response","917","","","","2",""
"2309","poster","nchi,fedha,kasuko,madungog","madungog","n","4","html-keyboard-response","918","f","nchi","false","",""
"1914.9000000059605","","","","","4","html-slider-response","919","","","","3",""
"3755","wolf","kaburi,ndizi,mchuzi,lugha","lugha","n","4","html-keyboard-response","920","n","lugha","true","",""
"2684.5999999940395","","","","","4","html-slider-response","921","","","","3",""
"7529","cat","paghukom,neyemba,baki,akili","paghukom","f","4","html-keyboard-response","922","j","baki","false","",""
"898.5999999940395","","","","","4","html-slider-response","923","","","","2",""
"5019","fish","bala,buli,baho,imani","buli","v","4","html-keyboard-response","924","v","buli","true","",""
"1577","","","","","4","html-slider-response","925","","","","4",""
"1662","tooth","kijiko,uadui,pahiyum,kabalaka","kabalaka","n","4","html-keyboard-response","926","v","uadui","false","",""
"1266.7000000029802","","","","","4","html-slider-response","927","","","","2",""
"9649","cave","ganti,kesho,maisha,nyundo","kesho","v","4","html-keyboard-response","928","f","ganti","false","",""
"1820.7000000029802","","","","","4","html-slider-response","929","","","","3",""
"2185","lamp","daub,bilaska,afya,mbolea","afya","j","4","html-keyboard-response","930","j","afya","true","",""
"1031.2999999970198","","","","","4","html-slider-response","931","","","","2",""
"2087","banana","kasamok,hagdan,kazi,twai","kazi","j","4","html-keyboard-response","932","j","kazi","true","",""
"1553.4000000059605","","","","","4","html-slider-response","933","","","","5",""
"1639","bonfire","goti,mwezi,mfuko,kusanya","goti","f","4","html-keyboard-response","934","f","goti","true","",""
"1137.1000000089407","","","","","4","html-slider-response","935","","","","5",""
"6812","cop","bustani,jikoni,mechezo,bakus","mechezo","j","4","html-keyboard-response","936","n","bakus","false","",""
"1060.4000000059605","","","","","4","html-slider-response","937","","","","2",""
"2920","marker","mapafu,salita,maji,atay","maji","j","4","html-keyboard-response","938","f","mapafu","false","",""
"1075.1000000089407","","","","","4","html-slider-response","939","","","","2",""
"7900","window","nanga,kweli,kujenga,umaga","kweli","v","4","html-keyboard-response","940","n","umaga","false","",""
"1836.699999988079","","","","","4","html-slider-response","941","","","","3",""
"15393","body","nyundu,jibini,kununa,tindashan","tindashan","n","4","html-keyboard-response","942","n","tindashan","true","",""
"1571.0999999940395","","","","","4","html-slider-response","943","","","","3",""
"16387","apple","ukame,estante,kisu,edad","kisu","j","4","html-keyboard-response","944","j","kisu","true","",""
"1605.0999999940395","","","","","4","html-slider-response","945","","","","4",""
"2625","salmon","sensilyo,mzungu,seri,baharia","sensilyo","f","4","html-keyboard-response","946","n","baharia","false","",""
"1598.699999988079","","","","","4","html-slider-response","947","","","","3",""
"7567","bed","kalipay,haraka,mapintas,starehe","mapintas","j","4","html-keyboard-response","948","j","mapintas","true","",""
"3656.7999999970198","","","","","4","html-slider-response","949","","","","3",""
"6037","berry","kofia,abogado,nogozi,kinywa","kofia","f","4","html-keyboard-response","950","f","kofia","true","",""
"3399.5999999940395","","","","","4","html-slider-response","951","","","","3",""
"1703","mirror","rangi,sulagma,kanding,furaha","sulagma","v","4","html-keyboard-response","952","n","furaha","false","",""
"1021.7999999970198","","","","","4","html-slider-response","953","","","","2",""
"1809","flag","ndege,mkate,trekta,kawa","trekta","j","4","html-keyboard-response","954","n","kawa","false","",""
"2245","","","","","4","html-slider-response","955","","","","3",""
"2385","shoulder","kelele,ndaniya,guruwe,mkuu","mkuu","n","4","html-keyboard-response","956","v","ndaniya","false","",""
"1260.7999999970198","","","","","4","html-slider-response","957","","","","1",""
"1673","tissue","lamigas,kisiwa,ugomvi,katika","ugomvi","j","4","html-keyboard-response","958","n","katika","false","",""
"1389.699999988079","","","","","4","html-slider-response","959","","","","2",""
"2057","notebook","kemia,msitu,kila,mdudu","kemia","f","4","html-keyboard-response","960","f","kemia","true","",""
"1274.9000000059605","","","","","4","html-slider-response","961","","","","2",""
"15267","snake","jansa,karon,pagtukod,mvringo","pagtukod","j","4","html-keyboard-response","962","n","mvringo","false","",""
"1652.7000000029802","","","","","4","html-slider-response","963","","","","4",""
"2625","finger","simu,sufuria,moyo,lima","moyo","j","4","html-keyboard-response","964","n","lima","false","",""
"1705.199999988079","","","","","4","html-slider-response","965","","","","2",""
"8853","basket","kumbuka,utepe,kumba,hasira","kumba","j","4","html-keyboard-response","966","j","kumba","true","",""
"3601.199999988079","","","","","4","html-slider-response","967","","","","4",""
"3725","curtain","lisud,mchanga,bulwawan,chubani","mchanga","v","4","html-keyboard-response","968","j","bulwawan","false","",""
"3947.1000000089407","","","","","4","html-slider-response","969","","","","3",""
"30139","perfume","bino,katuyoan,sungura,ndogo","katuyoan","v","4","html-keyboard-response","970","v","katuyoan","true","",""
"2347.6000000089407","","","","","4","html-slider-response","971","","","","3",""
"8300","key","miaka,goma,chombo,ahos","chombo","j","4","html-keyboard-response","972","n","ahos","false","",""
"2310.3999999910593","","","","","4","html-slider-response","973","","","","2",""
"7148","olive","bata,siagi,welder,jiwe","jiwe","n","4","html-keyboard-response","974","n","jiwe","true","",""
"1563.0999999940395","","","","","4","html-slider-response","975","","","","3",""
"9565","rose","singizi,mwanake,amani,paghalad","paghalad","n","4","html-keyboard-response","976","f","singizi","false","",""
"786.3000000119209","","","","","4","html-slider-response","977","","","","2",""
"1762","bridge","daima,ngono,sahani,panya","sahani","j","4","html-keyboard-response","978","v","ngono","false","",""
"1901.0999999940395","","","","","4","html-slider-response","979","","","","2",""
"9473","hill","kushoto,kukimba,matumbo,sweta","matumbo","j","4","html-keyboard-response","980","j","matumbo","true","",""
"4019.199999988079","","","","","4","html-slider-response","981","","","","3",""
"14666","letter","filimbi,chuma,uhuru,kifua","kifua","n","4","html-keyboard-response","982","v","chuma","false","",""
"1271","","","","","4","html-slider-response","983","","","","2",""
"2176","sock","ndoora,mamba,kimysa,mtirka","mamba","v","4","html-keyboard-response","984","v","mamba","true","",""
"1347.5","","","","","4","html-slider-response","985","","","","5",""
"2137","fork","mgonjwa,baboy,paghago,gorisi","mgonjwa","f","4","html-keyboard-response","986","f","mgonjwa","true","",""
"1263.300000011921","","","","","4","html-slider-response","987","","","","5",""
"2703","box","kuacha,adui,rafiki,kitande","adui","v","4","html-keyboard-response","988","v","adui","true","",""
"1391","","","","","4","html-slider-response","989","","","","4",""
"5055","gift","baba,nyange,pagtawag,baso","pagtawag","j","4","html-keyboard-response","990","j","pagtawag","true","",""
"1277","","","","","4","html-slider-response","991","","","","4",""
"3881","bucket","baga,ijayo,kiatu,init","kiatu","j","4","html-keyboard-response","992","f","baga","false","",""
"3692.800000011921","","","","","4","html-slider-response","993","","","","3",""
"2193","shop","nopya,kerida,ndezu,samaki","samaki","n","4","html-keyboard-response","994","n","samaki","true","",""
"2031.2000000178814","","","","","4","html-slider-response","995","","","","2",""
"13599","puppet","mazishi,napulo,lamok,godoro","mazishi","f","4","html-keyboard-response","996","v","napulo","false","",""
"1328.8999999761581","","","","","4","html-slider-response","997","","","","2",""
"2725","nose","gubat,kopa,sehemu,kidole","sehemu","j","4","html-keyboard-response","998","n","kidole","false","",""
"1059.0999999940395","","","","","4","html-slider-response","999","","","","2",""
"6132","music","mraba,mageho,tumbo,baiski","baiski","n","4","html-keyboard-response","1000","v","mageho","false","",""
"1170.199999988079","","","","","4","html-slider-response","1001","","","","2",""
"5905","dog","lubi,washia,kalamu,bahari","bahari","n","4","html-keyboard-response","1002","n","bahari","true","",""
"2138.899999976158","","","","","4","html-slider-response","1003","","","","4",""
"5861","eel","ishara,msumari,kunywa,kabuang","msumari","v","4","html-keyboard-response","1004","v","msumari","true","",""
"1988.2999999821186","","","","","4","html-slider-response","1005","","","","3",""
"2679","number","shule,mundamo,kengele,choori","mundamo","v","4","html-keyboard-response","1006","v","mundamo","true","",""
"2993.7999999821186","","","","","4","html-slider-response","1007","","","","2",""
"5005","tomato","chupi,mvua,chupa,takatak","mvua","v","4","html-keyboard-response","1008","j","chupa","false","",""
"937.2999999821186","","","","","4","html-slider-response","1009","","","","2",""
"16717","coffin","barua,kioo,tubag,hulma","kioo","v","4","html-keyboard-response","1010","v","kioo","true","",""
"1579","","","","","4","html-slider-response","1011","","","","4",""
"31283","knee","mvuke,duka,kubale,bili","duka","v","4","html-keyboard-response","1012","v","duka","true","",""
"1722.8999999761581","","","","","4","html-slider-response","1013","","","","4",""
"3339","woman","pagtabon,bandari,bituin,kovuli","pagtabon","f","4","html-keyboard-response","1014","f","pagtabon","true","",""
"1849","","","","","4","html-slider-response","1015","","","","4",""
"2261","stone","ulimwengu,wingi,mkasi,asili","wingi","v","4","html-keyboard-response","1016","n","asili","false","",""
"823.1999999880791","","","","","4","html-slider-response","1017","","","","2",""
"1761","bread","kaili,dizeli,bugas,dari","dari","n","4","html-keyboard-response","1018","v","dizeli","false","",""
"1178.5999999940395","","","","","4","html-slider-response","1019","","","","3",""
"1809","triangle","kihozi,bentaha,kasadpan,liog","kasadpan","j","4","html-keyboard-response","1020","j","kasadpan","true","",""
"1866.9000000059605","","","","","4","html-slider-response","1021","","","","2",""
"10308","scissors","duga,mtawa,tanuri,suga","tanuri","j","4","html-keyboard-response","1022","j","tanuri","true","",""
"2032.5999999940395","","","","","4","html-slider-response","1023","","","","3",""
"1229","giraffe","daraja,jumatu,mahitabo,hangyo","mahitabo","j","4","html-keyboard-response","1024","v","jumatu","false","",""
"887","","","","","4","html-slider-response","1025","","","","2",""
"1767","flower","tamasha,lobo,usiku,bega","bega","n","4","html-keyboard-response","1026","n","bega","true","",""
"1924.9000000059605","","","","","4","html-slider-response","1027","","","","3",""
"2097","candle","gabi,farasi,kupanda,geza","geza","n","4","html-keyboard-response","1028","n","geza","true","",""
"1926.9000000059605","","","","","4","html-slider-response","1029","","","","2",""
"15416","mother","kahawa,babaye,mbuzi,jokofu","babaye","v","4","html-keyboard-response","1030","v","babaye","true","",""
"1368.699999988079","","","","","4","html-slider-response","1031","","","","5",""
"1629","towel","tembo,funzi,pagpalit,pito","pagpalit","j","4","html-keyboard-response","1032","n","pito","false","",""
"2087.0999999940395","","","","","4","html-slider-response","1033","","","","2",""
"7159","elephant","petye,kito,pagduol,suka","kito","v","4","html-keyboard-response","1034","v","kito","true","",""
"2492.9000000059605","","","","","4","html-slider-response","1035","","","","2",""
"1537","shelf","bungtod,pamahaw,kadaot,awit","pamahaw","v","4","html-keyboard-response","1036","v","pamahaw","true","",""
"1125.2000000178814","","","","","4","html-slider-response","1037","","","","5",""
"2409","mosquito","martilyo,isda,taras,gutom","martilyo","f","4","html-keyboard-response","1038","f","martilyo","true","",""
"1075.199999988079","","","","","4","html-slider-response","1039","","","","4",""
"20131","column","pundok,dila,ufagio,pala","ufagio","j","4","html-keyboard-response","1040","v","dila","false","",""
"911.5999999940395","","","","","4","html-slider-response","1041","","","","2",""
"1295","pants","haki,pintal,chuki,hari","haki","f","4","html-keyboard-response","1042","v","pintal","false","",""
"1373.300000011921","","","","","4","html-slider-response","1043","","","","2",""
"1362","list","alizeti,wingu,kuzama,kaso","wingu","v","4","html-keyboard-response","1044","n","kaso","false","",""
"917","","","","","4","html-slider-response","1045","","","","2",""
"3233","bank","kudhibi,silingan,tualya,ofisi","silingan","v","4","html-keyboard-response","1046","j","tualya","false","",""
"1667.0999999940395","","","","","4","html-slider-response","1047","","","","3",""
"3011","clock","mbwa,kartasi,abang,osha","mbwa","f","4","html-keyboard-response","1048","f","mbwa","true","",""
"1568.300000011921","","","","","4","html-slider-response","1049","","","","5",""
"2038","ceiling","kugita,kawaida,maua,rayna","maua","j","4","html-keyboard-response","1050","j","maua","true","",""
"1523.8999999761581","","","","","4","html-slider-response","1051","","","","2",""
"5963","train","itik,dakika,mungu,sayari","sayari","n","4","html-keyboard-response","1052","n","sayari","true","",""
"2024.5","","","","","4","html-slider-response","1053","","","","4",""
"6693","magazine","gundi,kiti,mchawi,bahandi","kiti","v","4","html-keyboard-response","1054","v","kiti","true","",""
"1603.2000000178814","","","","","4","html-slider-response","1055","","","","3",""
"3579","office","hazini,yatima,leso,kuna","leso","j","4","html-keyboard-response","1056","j","leso","true","",""
"939.6000000238419","","","","","4","html-slider-response","1057","","","","4",""
"1330","wheel","bafuni,punda,tawo,baadaye","bafuni","f","4","html-keyboard-response","1058","f","bafuni","true","",""
"2255.300000011921","","","","","4","html-slider-response","1059","","","","2",""
"2751","spoon","betri,nzuri,ngazi,pagsulod","pagsulod","n","4","html-keyboard-response","1060","v","nzuri","false","",""
"1951.5","","","","","4","html-slider-response","1061","","","","2",""
"6735","hammer","mekno,kitovu,layag,napakyas","napakyas","n","4","html-keyboard-response","1062","v","kitovu","false","",""
"1044.9000000059605","","","","","4","html-slider-response","1063","","","","2",""
"19313","cigar","adhabu,ndugu,kuta,mlango","adhabu","f","4","html-keyboard-response","1064","n","mlango","false","",""
"1429.2000000178814","","","","","4","html-slider-response","1065","","","","2",""
"1177","shoe","nyeusi,uyoga,hatua,kama","uyoga","v","4","html-keyboard-response","1066","v","uyoga","true","",""
"867.8000000119209","","","","","4","html-slider-response","1067","","","","2",""
"19066","list","alizeti,wingu,kuzama,kaso","wingu","v","5","html-keyboard-response","1069","n","kaso","false","",""
"1289","","","","","5","html-slider-response","1070","","","","2",""
"1765","number","mundamo,shule,kengele,choori","mundamo","f","5","html-keyboard-response","1071","f","mundamo","true","",""
"1113.199999988079","","","","","5","html-slider-response","1072","","","","2",""
"4877","apple","ukame,estante,kisu,edad","kisu","j","5","html-keyboard-response","1073","j","kisu","true","",""
"1703.0999999940395","","","","","5","html-slider-response","1074","","","","4",""
"6415","knee","mvuke,kubale,duka,bili","duka","j","5","html-keyboard-response","1075","j","duka","true","",""
"1257.199999988079","","","","","5","html-slider-response","1076","","","","3",""
"1805","tooth","kijiko,uadui,pahiyum,kabalaka","kabalaka","n","5","html-keyboard-response","1077","n","kabalaka","true","",""
"1063","","","","","5","html-slider-response","1078","","","","2",""
"1767","berry","kofia,abogado,nogozi,kinywa","kofia","f","5","html-keyboard-response","1079","f","kofia","true","",""
"1119","","","","","5","html-slider-response","1080","","","","4",""
"1760","bridge","daima,sahani,ngono,panya","sahani","v","5","html-keyboard-response","1081","v","sahani","true","",""
"1200.5","","","","","5","html-slider-response","1082","","","","3",""
"2012","perfume","bino,sungura,ndogo,katuyoan","katuyoan","n","5","html-keyboard-response","1083","n","katuyoan","true","",""
"1433.0999999940395","","","","","5","html-slider-response","1084","","","","3",""
"2771","ladder","mashua,mwanga,kamba,pangalan","pangalan","n","5","html-keyboard-response","1085","n","pangalan","true","",""
"1607.0999999940395","","","","","5","html-slider-response","1086","","","","3",""
"2919","pants","pintal,chuki,hari,haki","haki","n","5","html-keyboard-response","1087","n","haki","true","",""
"2497.0999999940395","","","","","5","html-slider-response","1088","","","","3",""
"3549","salmon","mzungu,seri,sensilyo,baharia","sensilyo","j","5","html-keyboard-response","1089","n","baharia","false","",""
"2060.699999988079","","","","","5","html-slider-response","1090","","","","3",""
"7937","coffin","barua,tubag,hulma,kioo","kioo","n","5","html-keyboard-response","1091","n","kioo","true","",""
"1213.4000000059605","","","","","5","html-slider-response","1092","","","","5",""
"1778","park","bunifu,tambok,pwani,ihalas","bunifu","f","5","html-keyboard-response","1093","n","ihalas","false","",""
"831.8999999761581","","","","","5","html-slider-response","1094","","","","2",""
"15503","giraffe","daraja,mahitabo,jumatu,hangyo","mahitabo","v","5","html-keyboard-response","1095","v","mahitabo","true","",""
"3030.9000000059605","","","","","5","html-slider-response","1096","","","","3",""
"1975","mirror","rangi,sulagma,kanding,furaha","sulagma","v","5","html-keyboard-response","1097","j","kanding","false","",""
"833.0999999940395","","","","","5","html-slider-response","1098","","","","2",""
"2221","ceiling","kugita,kawaida,rayna,maua","maua","n","5","html-keyboard-response","1099","f","kugita","false","",""
"1249.699999988079","","","","","5","html-slider-response","1100","","","","2",""
"3286","marker","maji,mapafu,salita,atay","maji","f","5","html-keyboard-response","1101","f","maji","true","",""
"828.5999999940395","","","","","5","html-slider-response","1102","","","","2",""
"1440","sock","ndoora,kimysa,mtirka,mamba","mamba","n","5","html-keyboard-response","1103","n","mamba","true","",""
"1184.9000000059605","","","","","5","html-slider-response","1104","","","","5",""
"2829","cop","bustani,jikoni,mechezo,bakus","mechezo","j","5","html-keyboard-response","1105","n","bakus","false","",""
"2811.2999999821186","","","","","5","html-slider-response","1106","","","","3",""
"1964","gift","baba,nyange,baso,pagtawag","pagtawag","n","5","html-keyboard-response","1107","f","baba","false","",""
"1315.4000000059605","","","","","5","html-slider-response","1108","","","","4",""
"1554","notebook","msitu,kila,kemia,mdudu","kemia","j","5","html-keyboard-response","1109","n","mdudu","false","",""
"1375.5","","","","","5","html-slider-response","1110","","","","3",""
"1734","bank","kudhibi,tualya,ofisi,silingan","silingan","n","5","html-keyboard-response","1111","n","silingan","true","",""
"1003.6999999880791","","","","","5","html-slider-response","1112","","","","3",""
"1682","letter","kifua,filimbi,chuma,uhuru","kifua","f","5","html-keyboard-response","1113","v","filimbi","false","",""
"1303.199999988079","","","","","5","html-slider-response","1114","","","","3",""
"4704","candle","gabi,farasi,kupanda,geza","geza","n","5","html-keyboard-response","1115","n","geza","true","",""
"1521.5999999940395","","","","","5","html-slider-response","1116","","","","4",""
"6907","bread","kaili,dari,dizeli,bugas","dari","v","5","html-keyboard-response","1117","v","dari","true","",""
"827","","","","","5","html-slider-response","1118","","","","4",""
"2259","snake","jansa,karon,pagtukod,mvringo","pagtukod","j","5","html-keyboard-response","1119","n","mvringo","false","",""
"1088.5","","","","","5","html-slider-response","1120","","","","4",""
"7382","rose","singizi,paghalad,mwanake,amani","paghalad","v","5","html-keyboard-response","1121","v","paghalad","true","",""
"1077","","","","","5","html-slider-response","1122","","","","4",""
"5249","hill","kushoto,matumbo,kukimba,sweta","matumbo","v","5","html-keyboard-response","1123","v","matumbo","true","",""
"3062.5","","","","","5","html-slider-response","1124","","","","3",""
"2223","train","itik,dakika,sayari,mungu","sayari","j","5","html-keyboard-response","1125","j","sayari","true","",""
"961","","","","","5","html-slider-response","1126","","","","4",""
"1541","shop","nopya,kerida,ndezu,samaki","samaki","n","5","html-keyboard-response","1127","n","samaki","true","",""
"10126.5","","","","","5","html-slider-response","1128","","","","3",""
"2136","nose","gubat,kopa,kidole,sehemu","sehemu","n","5","html-keyboard-response","1129","v","kopa","false","",""
"1241.0999999940395","","","","","5","html-slider-response","1130","","","","2",""
"3108","boat","agalon,hamsi,pombe,kitanda","agalon","f","5","html-keyboard-response","1131","v","hamsi","false","",""
"1249.2999999821186","","","","","5","html-slider-response","1132","","","","2",""
"2630","body","tindashan,nyundu,jibini,kununa","tindashan","f","5","html-keyboard-response","1133","v","nyundu","false","",""
"1233.199999988079","","","","","5","html-slider-response","1134","","","","3",""
"4302","bed","mapintas,kalipay,haraka,starehe","mapintas","f","5","html-keyboard-response","1135","f","mapintas","true","",""
"1171","","","","","5","html-slider-response","1136","","","","4",""
"9284","squirrel","hofu,mahugaw,ukweli,kichwa","hofu","f","5","html-keyboard-response","1137","f","hofu","true","",""
"1747.199999988079","","","","","5","html-slider-response","1138","","","","5",""
"7796","window","nanga,kujenga,kweli,umaga","kweli","j","5","html-keyboard-response","1139","n","umaga","false","",""
"1618.699999988079","","","","","5","html-slider-response","1140","","","","3",""
"1948","bonfire","mwezi,mfuko,goti,kusanya","goti","j","5","html-keyboard-response","1141","j","goti","true","",""
"1137.7000000178814","","","","","5","html-slider-response","1142","","","","5",""
"3429","fish","buli,bala,baho,imani","buli","f","5","html-keyboard-response","1143","j","baho","false","",""
"997.0999999940395","","","","","5","html-slider-response","1144","","","","2",""
"10922","cat","paghukom,neyemba,baki,akili","paghukom","f","5","html-keyboard-response","1145","v","neyemba","false","",""
"1280.800000011921","","","","","5","html-slider-response","1146","","","","2",""
"6573","spider","bunyag,mkboa,kamwe,atop","kamwe","j","5","html-keyboard-response","1147","j","kamwe","true","",""
"1107","","","","","5","html-slider-response","1148","","","","5",""
"9860","eel","ishara,kunywa,kabuang,msumari","msumari","n","5","html-keyboard-response","1149","n","msumari","true","",""
"1427.4000000059605","","","","","5","html-slider-response","1150","","","","5",""
"3635","woman","pagtabon,bandari,bituin,kovuli","pagtabon","f","5","html-keyboard-response","1151","f","pagtabon","true","",""
"1391","","","","","5","html-slider-response","1152","","","","5",""
"7327","magazine","kiti,gundi,mchawi,bahandi","kiti","f","5","html-keyboard-response","1153","f","kiti","true","",""
"979.5999999940395","","","","","5","html-slider-response","1154","","","","4",""
"2043","pudding","abug,aibu,mpishi,iring","aibu","v","5","html-keyboard-response","1155","j","mpishi","false","",""
"2203","","","","","5","html-slider-response","1156","","","","3",""
"4275","lamp","afya,daub,bilaska,mbolea","afya","f","5","html-keyboard-response","1157","f","afya","true","",""
"2059.0999999940395","","","","","5","html-slider-response","1158","","","","3",""
"2843","cave","kesho,ganti,maisha,nyundo","kesho","f","5","html-keyboard-response","1159","v","ganti","false","",""
"1313.300000011921","","","","","5","html-slider-response","1160","","","","4",""
"23309","shoulder","kelele,ndaniya,guruwe,mkuu","mkuu","n","5","html-keyboard-response","1161","j","guruwe","false","",""
"1299.2000000178814","","","","","5","html-slider-response","1162","","","","2",""
"100297","stone","ulimwengu,mkasi,wingi,asili","wingi","j","5","html-keyboard-response","1163","n","asili","false","",""
"1382.7999999821186","","","","","5","html-slider-response","1164","","","","2",""
"3623","column","pundok,dila,pala,ufagio","ufagio","n","5","html-keyboard-response","1165","n","ufagio","true","",""
"3265.5","","","","","5","html-slider-response","1166","","","","3",""
"1405","page","wakala,ishiri,skina,wimbo","wimbo","n","5","html-keyboard-response","1167","v","ishiri","false","",""
"863","","","","","5","html-slider-response","1168","","","","2",""
"17807","shoe","uyoga,nyeusi,hatua,kama","uyoga","f","5","html-keyboard-response","1169","n","kama","false","",""
"1761","","","","","5","html-slider-response","1170","","","","2",""
"1678","clock","kartasi,abang,osha,mbwa","mbwa","n","5","html-keyboard-response","1171","n","mbwa","true","",""
"1146.2999999821186","","","","","5","html-slider-response","1172","","","","5",""
"1619","towel","tembo,pagpalit,funzi,pito","pagpalit","v","5","html-keyboard-response","1173","v","pagpalit","true","",""
"865.9000000059605","","","","","5","html-slider-response","1174","","","","2",""
"1748","tomato","chupi,mvua,chupa,takatak","mvua","v","5","html-keyboard-response","1175","n","takatak","false","",""
"1113.3999999761581","","","","","5","html-slider-response","1176","","","","2",""
"1397","bucket","baga,kiatu,ijayo,init","kiatu","v","5","html-keyboard-response","1177","f","baga","false","",""
"1048.9000000059605","","","","","5","html-slider-response","1178","","","","2",""
"2022","finger","simu,sufuria,lima,moyo","moyo","n","5","html-keyboard-response","1179","j","lima","false","",""
"2030.9000000059605","","","","","5","html-slider-response","1180","","","","3",""
"50021","mother","kahawa,babaye,mbuzi,jokofu","babaye","v","5","html-keyboard-response","1181","v","babaye","true","",""
"1900.5999999940395","","","","","5","html-slider-response","1182","","","","5",""
"2601","human","tinapay,bado,kikapu,punguza","tinapay","f","5","html-keyboard-response","1183","v","bado","false","",""
"2353.300000011921","","","","","5","html-slider-response","1184","","","","3",""
"1542","sun","bendi,luha,uongo,basi","basi","n","5","html-keyboard-response","1185","n","basi","true","",""
"1013","","","","","5","html-slider-response","1186","","","","5",""
"1673","fork","mgonjwa,baboy,paghago,gorisi","mgonjwa","f","5","html-keyboard-response","1187","f","mgonjwa","true","",""
"1103.199999988079","","","","","5","html-slider-response","1188","","","","5",""
"1303","donkey","bloke,lalake,rombus,elfu","elfu","n","5","html-keyboard-response","1189","n","elfu","true","",""
"1211.5","","","","","5","html-slider-response","1190","","","","5",""
"13467","wolf","lugha,kaburi,ndizi,mchuzi","lugha","f","5","html-keyboard-response","1191","f","lugha","true","",""
"1472.800000011921","","","","","5","html-slider-response","1192","","","","4",""
"2141","cigar","ndugu,adhabu,kuta,mlango","adhabu","v","5","html-keyboard-response","1193","n","mlango","false","",""
"1011","","","","","5","html-slider-response","1194","","","","3",""
"6419","olive","bata,jiwe,siagi,welder","jiwe","v","5","html-keyboard-response","1195","v","jiwe","true","",""
"1984.7000000178814","","","","","5","html-slider-response","1196","","","","4",""
"6798","key","chombo,miaka,goma,ahos","chombo","f","5","html-keyboard-response","1197","n","ahos","false","",""
"1208.4000000059605","","","","","5","html-slider-response","1198","","","","2",""
"1596","door","surali,tena,soko,nyota","surali","f","5","html-keyboard-response","1199","j","soko","false","",""
"1171.4000000059605","","","","","5","html-slider-response","1200","","","","2",""
"1722","wheel","punda,tawo,baadaye,bafuni","bafuni","n","5","html-keyboard-response","1201","n","bafuni","true","",""
"2139.0999999940395","","","","","5","html-slider-response","1202","","","","4",""
"7355","basket","kumbuka,utepe,hasira,kumba","kumba","n","5","html-keyboard-response","1203","f","kumbuka","false","",""
"949","","","","","5","html-slider-response","1204","","","","2",""
"3705","elephant","kito,petye,pagduol,suka","kito","f","5","html-keyboard-response","1205","f","kito","true","",""
"1127.2000000178814","","","","","5","html-slider-response","1206","","","","4",""
"6440","office","hazini,yatima,kuna,leso","leso","n","5","html-keyboard-response","1207","n","leso","true","",""
"830.6999999880791","","","","","5","html-slider-response","1208","","","","4",""
"2693","music","mraba,mageho,tumbo,baiski","baiski","n","5","html-keyboard-response","1209","n","baiski","true","",""
"1885.4000000059605","","","","","5","html-slider-response","1210","","","","4",""
"1417","tissue","lamigas,kisiwa,katika,ugomvi","ugomvi","n","5","html-keyboard-response","1211","f","lamigas","false","",""
"1261.5","","","","","5","html-slider-response","1212","","","","3",""
"6866","curtain","lisud,mchanga,bulwawan,chubani","mchanga","v","5","html-keyboard-response","1213","v","mchanga","true","",""
"989.8000000119209","","","","","5","html-slider-response","1214","","","","5",""
"2424","flag","ndege,mkate,kawa,trekta","trekta","n","5","html-keyboard-response","1215","n","trekta","true","",""
"3332.300000011921","","","","","5","html-slider-response","1216","","","","2",""
"8039","dog","bahari,lubi,washia,kalamu","bahari","f","5","html-keyboard-response","1217","v","lubi","false","",""
"1083.1000000238419","","","","","5","html-slider-response","1218","","","","2",""
"1523","cup","dagat,shimoni,jeraha,matumai","matumai","n","5","html-keyboard-response","1219","j","jeraha","false","",""
"983.5","","","","","5","html-slider-response","1220","","","","2",""
"2350","sheet","juuya,watu,kamantis,bililhon","bililhon","n","5","html-keyboard-response","1221","n","bililhon","true","",""
"2203.4000000059605","","","","","5","html-slider-response","1222","","","","5",""
"142833","spoon","betri,pagsulod,nzuri,ngazi","pagsulod","v","5","html-keyboard-response","1223","n","ngazi","false","",""
"919","","","","","5","html-slider-response","1224","","","","2",""
"2183","flower","bega,tamasha,lobo,usiku","bega","f","5","html-keyboard-response","1225","v","tamasha","false","",""
"3765.5","","","","","5","html-slider-response","1226","","","","3",""
"52633","picture","silya,chaki,asin,kubwa","kubwa","n","5","html-keyboard-response","1227","v","chaki","false","",""
"1924","","","","","5","html-slider-response","1228","","","","2",""
"2177","puppet","napulo,lamok,godoro,mazishi","mazishi","n","5","html-keyboard-response","1229","n","mazishi","true","",""
"1061.0999999940395","","","","","5","html-slider-response","1230","","","","4",""
"2465","banana","kasamok,kazi,hagdan,twai","kazi","v","5","html-keyboard-response","1231","v","kazi","true","",""
"1600.7999999821186","","","","","5","html-slider-response","1232","","","","5",""
"44699","book","mali,kuhesa,picha,mara","mali","f","5","html-keyboard-response","1233","n","mara","false","",""
"1724.9000000059605","","","","","5","html-slider-response","1234","","","","2",""
"2369","triangle","kihozi,bentaha,liog,kasadpan","kasadpan","n","5","html-keyboard-response","1235","v","bentaha","false","",""
"1321.2000000178814","","","","","5","html-slider-response","1236","","","","2",""
"5870","poster","nchi,madungog,fedha,kasuko","madungog","v","5","html-keyboard-response","1237","f","nchi","false","",""
"2100.300000011921","","","","","5","html-slider-response","1238","","","","2",""
"14359","box","adui,kuacha,rafiki,kitande","adui","f","5","html-keyboard-response","1239","f","adui","true","",""
"977.1999999880791","","","","","5","html-slider-response","1240","","","","5",""
"2221","mosquito","isda,taras,martilyo,gutom","martilyo","j","5","html-keyboard-response","1241","j","martilyo","true","",""
"1139.800000011921","","","","","5","html-slider-response","1242","","","","5",""
"1850","shelf","pamahaw,bungtod,kadaot,awit","pamahaw","f","5","html-keyboard-response","1243","f","pamahaw","true","",""
"941.3000000119209","","","","","5","html-slider-response","1244","","","","5",""
"4274","scissors","tanuri,duga,mtawa,suga","tanuri","f","5","html-keyboard-response","1245","f","tanuri","true","",""
"949.6999999880791","","","","","5","html-slider-response","1246","","","","4",""
"2168","hammer","mekno,kitovu,layag,napakyas","napakyas","n","5","html-keyboard-response","1247","n","napakyas","true","",""
"1307","","","","","5","html-slider-response","1248","","","","2",""
