"rt","en_word","options","swa_word","correct_answer","phase","trial_type","trial_index","input_answer","input_word","accuracy","certainty","amt_choices"
"9215","bonfire","mwezi,mfuko,goti,kusanya","goti","j","2","html-keyboard-response","106","n","kusanya","false","",""
"2313.4000000427477","","","","","2","html-slider-response","107","","","","5",""
"16403","flower","bega,tamasha,lobo,usiku","bega","f","2","html-keyboard-response","108","v","tamasha","false","",""
"1671.4999999967404","","","","","2","html-slider-response","109","","","","1",""
"8484","column","pundok,dila,pala,ufagio","ufagio","n","2","html-keyboard-response","110","n","ufagio","true","",""
"2123.699999996461","","","","","2","html-slider-response","111","","","","1",""
"7751","music","baiski,mraba,mageho,tumbo","baiski","f","2","html-keyboard-response","112","f","baiski","true","",""
"2493.799999996554","","","","","2","html-slider-response","113","","","","5",""
"11116","spider","bunyag,mkboa,kamwe,atop","kamwe","j","2","html-keyboard-response","114","f","bunyag","false","",""
"1966.8999999994412","","","","","2","html-slider-response","115","","","","2",""
"10514","fork","baboy,mgonjwa,paghago,gorisi","mgonjwa","v","2","html-keyboard-response","116","j","paghago","false","",""
"1981.5999999991618","","","","","2","html-slider-response","117","","","","1",""
"13385","mosquito","isda,martilyo,taras,gutom","martilyo","v","2","html-keyboard-response","118","v","martilyo","true","",""
"2129.499999980908","","","","","2","html-slider-response","119","","","","5",""
"6712","banana","kasamok,hagdan,kazi,twai","kazi","j","2","html-keyboard-response","120","j","kazi","true","",""
"2026.3999999733642","","","","","2","html-slider-response","121","","","","5",""
"24741","cup","dagat,shimoni,matumai,jeraha","matumai","j","2","html-keyboard-response","122","j","matumai","true","",""
"2497.6999999489635","","","","","2","html-slider-response","123","","","","5",""
"6984","shop","nopya,samaki,kerida,ndezu","samaki","v","2","html-keyboard-response","124","v","samaki","true","",""
"3682.0999999763444","","","","","2","html-slider-response","125","","","","4",""
"9863","elephant","petye,pagduol,kito,suka","kito","j","2","html-keyboard-response","126","j","kito","true","",""
"1900.8000000030734","","","","","2","html-slider-response","127","","","","5",""
"7760","bucket","baga,ijayo,init,kiatu","kiatu","n","2","html-keyboard-response","128","n","kiatu","true","",""
"3743.900000001304","","","","","2","html-slider-response","129","","","","5",""
"7436","book","mali,kuhesa,picha,mara","mali","f","2","html-keyboard-response","130","f","mali","true","",""
"2567.1000000438653","","","","","2","html-slider-response","131","","","","5",""
"42050","mirror","sulagma,rangi,kanding,furaha","sulagma","f","2","html-keyboard-response","132","f","sulagma","true","",""
"3070.6999999820255","","","","","2","html-slider-response","133","","","","1",""
"6354","office","hazini,yatima,leso,kuna","leso","j","2","html-keyboard-response","134","n","kuna","false","",""
"4188.800000003539","","","","","2","html-slider-response","135","","","","5",""
"8271","body","tindashan,nyundu,jibini,kununa","tindashan","f","2","html-keyboard-response","136","v","nyundu","false","",""
"1791.4999999920838","","","","","2","html-slider-response","137","","","","5",""
"5894","perfume","bino,katuyoan,sungura,ndogo","katuyoan","v","2","html-keyboard-response","138","f","bino","false","",""
"3767.900000035297","","","","","2","html-slider-response","139","","","","4",""
"33259","olive","bata,siagi,welder,jiwe","jiwe","n","2","html-keyboard-response","140","n","jiwe","true","",""
"3830.0999999628402","","","","","2","html-slider-response","141","","","","2",""
"7594","magazine","kiti,gundi,mchawi,bahandi","kiti","f","2","html-keyboard-response","142","f","kiti","true","",""
"4848.400000017136","","","","","2","html-slider-response","143","","","","1",""
"6322","bread","kaili,dizeli,dari,bugas","dari","j","2","html-keyboard-response","144","f","kaili","false","",""
"2212.7000000327826","","","","","2","html-slider-response","145","","","","1",""
"9836","cave","ganti,maisha,nyundo,kesho","kesho","n","2","html-keyboard-response","146","v","maisha","false","",""
"2075.5999999819323","","","","","2","html-slider-response","147","","","","5",""
"9840","ladder","mashua,mwanga,kamba,pangalan","pangalan","n","2","html-keyboard-response","148","n","pangalan","true","",""
"2060.1000000024214","","","","","2","html-slider-response","149","","","","5",""
"23889","human","bado,kikapu,punguza,tinapay","tinapay","n","2","html-keyboard-response","150","v","kikapu","false","",""
"6246.099999989383","","","","","2","html-slider-response","151","","","","1",""
"14955","clock","mbwa,kartasi,abang,osha","mbwa","f","2","html-keyboard-response","152","f","mbwa","true","",""
"2126.9999999785796","","","","","2","html-slider-response","153","","","","5",""
"8796","shelf","bungtod,pamahaw,kadaot,awit","pamahaw","v","2","html-keyboard-response","154","v","pamahaw","true","",""
"2023.9999999757856","","","","","2","html-slider-response","155","","","","5",""
"6863","salmon","mzungu,seri,baharia,sensilyo","sensilyo","n","2","html-keyboard-response","156","n","sensilyo","true","",""
"3600.4000000539236","","","","","2","html-slider-response","157","","","","1",""
"8595","coffin","kioo,barua,tubag,hulma","kioo","f","2","html-keyboard-response","158","f","kioo","true","",""
"3625.3000000142492","","","","","2","html-slider-response","159","","","","1",""
"28428","notebook","msitu,kila,kemia,mdudu","kemia","j","2","html-keyboard-response","160","v","kila","false","",""
"3069.199999968987","","","","","2","html-slider-response","161","","","","5",""
"5215","shoulder","mkuu,kelele,ndaniya,guruwe","mkuu","f","2","html-keyboard-response","162","n","guruwe","false","",""
"4069.7999999974854","","","","","2","html-slider-response","163","","","","1",""
"8579","park","bunifu,tambok,pwani,ihalas","bunifu","f","2","html-keyboard-response","164","f","bunifu","true","",""
"4107.599999988452","","","","","2","html-slider-response","165","","","","1",""
"8059","number","shule,kengele,choori,mundamo","mundamo","n","2","html-keyboard-response","166","j","choori","false","",""
"14098.899999982677","","","","","2","html-slider-response","167","","","","5",""
"6125","apple","ukame,kisu,estante,edad","kisu","v","2","html-keyboard-response","168","v","kisu","true","",""
"2173.9999999990687","","","","","2","html-slider-response","169","","","","5",""
"8193","letter","filimbi,kifua,chuma,uhuru","kifua","v","2","html-keyboard-response","170","j","chuma","false","",""
"3327.50000001397","","","","","2","html-slider-response","171","","","","2",""
"7634","eel","msumari,ishara,kunywa,kabuang","msumari","f","2","html-keyboard-response","172","j","kunywa","false","",""
"2815.8999999868684","","","","","2","html-slider-response","173","","","","5",""
"11184","cop","mechezo,bustani,jikoni,bakus","mechezo","f","2","html-keyboard-response","174","f","mechezo","true","",""
"1996.6000000131316","","","","","2","html-slider-response","175","","","","5",""
"4249","wolf","lugha,kaburi,ndizi,mchuzi","lugha","f","2","html-keyboard-response","176","j","ndizi","false","",""
"3092.30000001844","","","","","2","html-slider-response","177","","","","5",""
"11791","squirrel","mahugaw,ukweli,kichwa,hofu","hofu","n","2","html-keyboard-response","178","f","mahugaw","false","",""
"2081.000000005588","","","","","2","html-slider-response","179","","","","5",""
"5062","nose","gubat,kopa,kidole,sehemu","sehemu","n","2","html-keyboard-response","180","n","sehemu","true","",""
"2513.10000004014","","","","","2","html-slider-response","181","","","","4",""
"36717","sock","ndoora,kimysa,mamba,mtirka","mamba","j","2","html-keyboard-response","182","j","mamba","true","",""
"3043.2000000146218","","","","","2","html-slider-response","183","","","","5",""
"7412","bank","kudhibi,tualya,ofisi,silingan","silingan","n","2","html-keyboard-response","184","v","tualya","false","",""
"2730.5999999516644","","","","","2","html-slider-response","185","","","","1",""
"6432","donkey","elfu,bloke,lalake,rombus","elfu","f","2","html-keyboard-response","186","f","elfu","true","",""
"3563.1000000284985","","","","","2","html-slider-response","187","","","","1",""
"30043","poster","nchi,fedha,kasuko,madungog","madungog","n","2","html-keyboard-response","188","n","madungog","true","",""
"2786.2000000313856","","","","","2","html-slider-response","189","","","","1",""
"4342","puppet","napulo,lamok,godoro,mazishi","mazishi","n","2","html-keyboard-response","190","j","godoro","false","",""
"2572.9999999748543","","","","","2","html-slider-response","191","","","","5",""
"5767","hill","matumbo,kushoto,kukimba,sweta","matumbo","f","2","html-keyboard-response","192","f","matumbo","true","",""
"1901.4000000315718","","","","","2","html-slider-response","193","","","","5",""
"5512","tooth","kijiko,uadui,kabalaka,pahiyum","kabalaka","j","2","html-keyboard-response","194","j","kabalaka","true","",""
"1872.7000000071712","","","","","2","html-slider-response","195","","","","5",""
"5131","woman","bandari,pagtabon,bituin,kovuli","pagtabon","v","2","html-keyboard-response","196","v","pagtabon","true","",""
"2052.800000004936","","","","","2","html-slider-response","197","","","","5",""
"20642","wheel","punda,tawo,bafuni,baadaye","bafuni","j","2","html-keyboard-response","198","j","bafuni","true","",""
"2839.299999992363","","","","","2","html-slider-response","199","","","","5",""
"8304","mother","babaye,kahawa,mbuzi,jokofu","babaye","f","2","html-keyboard-response","200","f","babaye","true","",""
"3606.7000000039116","","","","","2","html-slider-response","201","","","","5",""
"7281","bed","kalipay,haraka,mapintas,starehe","mapintas","j","2","html-keyboard-response","202","n","starehe","false","",""
"3131.8999999784864","","","","","2","html-slider-response","203","","","","1",""
"30113","key","chombo,miaka,goma,ahos","chombo","f","2","html-keyboard-response","204","f","chombo","true","",""
"3068.8999999547377","","","","","2","html-slider-response","205","","","","1",""
"13178","page","wakala,ishiri,skina,wimbo","wimbo","n","2","html-keyboard-response","206","j","skina","false","",""
"2572.799999965355","","","","","2","html-slider-response","207","","","","1",""
"11960","pants","pintal,haki,chuki,hari","haki","v","2","html-keyboard-response","208","v","haki","true","",""
"1968.30000000773","","","","","2","html-slider-response","209","","","","5",""
"9941","sun","bendi,luha,basi,uongo","basi","j","2","html-keyboard-response","210","j","basi","true","",""
"2027.4999999674037","","","","","2","html-slider-response","211","","","","5",""
"11707","finger","simu,sufuria,moyo,lima","moyo","j","2","html-keyboard-response","212","v","sufuria","false","",""
"2995.4000000143424","","","","","2","html-slider-response","213","","","","5",""
"56200","shoe","nyeusi,hatua,uyoga,kama","uyoga","j","2","html-keyboard-response","214","j","uyoga","true","",""
"2112.3000000370666","","","","","2","html-slider-response","215","","","","5",""
"5781","giraffe","daraja,jumatu,hangyo,mahitabo","mahitabo","n","2","html-keyboard-response","216","v","jumatu","false","",""
"2464.5000000018626","","","","","2","html-slider-response","217","","","","1",""
"7453","dog","lubi,washia,bahari,kalamu","bahari","j","2","html-keyboard-response","218","j","bahari","true","",""
"2610.3000000002794","","","","","2","html-slider-response","219","","","","5",""
"14608","box","kuacha,adui,rafiki,kitande","adui","v","2","html-keyboard-response","220","n","kitande","false","",""
"2541.4999999920838","","","","","2","html-slider-response","221","","","","1",""
"8095","scissors","duga,tanuri,mtawa,suga","tanuri","v","2","html-keyboard-response","222","j","mtawa","false","",""
"2330.6999999913387","","","","","2","html-slider-response","223","","","","1",""
"29413","cat","neyemba,baki,akili,paghukom","paghukom","n","2","html-keyboard-response","224","n","paghukom","true","",""
"3761.3000000128523","","","","","2","html-slider-response","225","","","","5",""
"13099","basket","kumba,kumbuka,utepe,hasira","kumba","f","2","html-keyboard-response","226","j","utepe","false","",""
"2122.399999992922","","","","","2","html-slider-response","227","","","","1",""
"7985","snake","jansa,karon,mvringo,pagtukod","pagtukod","n","2","html-keyboard-response","228","n","pagtukod","true","",""
"3323.7999999546446","","","","","2","html-slider-response","229","","","","1",""
"4958","gift","baba,nyange,pagtawag,baso","pagtawag","j","2","html-keyboard-response","230","f","baba","false","",""
"2391.8000000412576","","","","","2","html-slider-response","231","","","","5",""
"5091","train","sayari,itik,dakika,mungu","sayari","f","2","html-keyboard-response","232","f","sayari","true","",""
"2901.499999978114","","","","","2","html-slider-response","233","","","","2",""
"3988","pudding","aibu,abug,mpishi,iring","aibu","f","2","html-keyboard-response","234","n","iring","false","",""
"3500.5000000237487","","","","","2","html-slider-response","235","","","","1",""
"5492","tomato","chupi,mvua,chupa,takatak","mvua","v","2","html-keyboard-response","236","n","takatak","false","",""
"2400.2999999793246","","","","","2","html-slider-response","237","","","","5",""
"6291","stone","wingi,ulimwengu,mkasi,asili","wingi","f","2","html-keyboard-response","238","j","mkasi","false","",""
"2517.099999997299","","","","","2","html-slider-response","239","","","","1",""
"4857","hammer","napakyas,mekno,kitovu,layag","napakyas","f","2","html-keyboard-response","240","f","napakyas","true","",""
"3808.499999984633","","","","","2","html-slider-response","241","","","","1",""
"9308","knee","mvuke,kubale,bili,duka","duka","n","2","html-keyboard-response","242","f","mvuke","false","",""
"1675.7000000216067","","","","","2","html-slider-response","243","","","","1",""
"4455","ceiling","maua,kugita,kawaida,rayna","maua","f","2","html-keyboard-response","244","j","kawaida","false","",""
"1905.4999999934807","","","","","2","html-slider-response","245","","","","2",""
"13936","spoon","betri,nzuri,ngazi,pagsulod","pagsulod","n","2","html-keyboard-response","246","v","nzuri","false","",""
"1666.7000000015832","","","","","2","html-slider-response","247","","","","5",""
"8958","marker","mapafu,salita,maji,atay","maji","j","2","html-keyboard-response","248","j","maji","true","",""
"2616.799999959767","","","","","2","html-slider-response","249","","","","5",""
"7811","candle","geza,gabi,farasi,kupanda","geza","f","2","html-keyboard-response","250","f","geza","true","",""
"1597.6999999838881","","","","","2","html-slider-response","251","","","","5",""
"7180","tissue","ugomvi,lamigas,kisiwa,katika","ugomvi","f","2","html-keyboard-response","252","f","ugomvi","true","",""
"1779.00000003865","","","","","2","html-slider-response","253","","","","5",""
"13071","bridge","sahani,daima,ngono,panya","sahani","f","2","html-keyboard-response","254","f","sahani","true","",""
"2383.700000005774","","","","","2","html-slider-response","255","","","","1",""
"4425","berry","abogado,nogozi,kofia,kinywa","kofia","j","2","html-keyboard-response","256","j","kofia","true","",""
"3085.900000005495","","","","","2","html-slider-response","257","","","","5",""
"8524","triangle","kihozi,bentaha,kasadpan,liog","kasadpan","j","2","html-keyboard-response","258","j","kasadpan","true","",""
"2515.2000000234693","","","","","2","html-slider-response","259","","","","1",""
"4153","door","surali,tena,soko,nyota","surali","f","2","html-keyboard-response","260","f","surali","true","",""
"3361.0000000335276","","","","","2","html-slider-response","261","","","","1",""
"30543","fish","bala,buli,baho,imani","buli","v","2","html-keyboard-response","262","v","buli","true","",""
"2366.0999999847263","","","","","2","html-slider-response","263","","","","5",""
"6339","curtain","lisud,bulwawan,mchanga,chubani","mchanga","j","2","html-keyboard-response","264","v","bulwawan","false","",""
"1817.0999999856576","","","","","2","html-slider-response","265","","","","5",""
"3032","flag","ndege,mkate,trekta,kawa","trekta","j","2","html-keyboard-response","266","j","trekta","true","",""
"1769.9999999604188","","","","","2","html-slider-response","267","","","","5",""
"5766","boat","hamsi,pombe,agalon,kitanda","agalon","j","2","html-keyboard-response","268","n","kitanda","false","",""
"1945.1000000117347","","","","","2","html-slider-response","269","","","","5",""
"13522","rose","singizi,mwanake,paghalad,amani","paghalad","j","2","html-keyboard-response","270","f","singizi","false","",""
"2065.600000030827","","","","","2","html-slider-response","271","","","","1",""
"9051","lamp","daub,afya,bilaska,mbolea","afya","v","2","html-keyboard-response","272","j","bilaska","false","",""
"2209.499999997206","","","","","2","html-slider-response","273","","","","1",""
"4064","cigar","ndugu,kuta,mlango,adhabu","adhabu","n","2","html-keyboard-response","274","v","kuta","false","",""
"1579.8000000067987","","","","","2","html-slider-response","275","","","","5",""
"3796","list","alizeti,kuzama,kaso,wingu","wingu","n","2","html-keyboard-response","276","n","wingu","true","",""
"1606.2000000383705","","","","","2","html-slider-response","277","","","","5",""
"14643","sheet","juuya,watu,bililhon,kamantis","bililhon","j","2","html-keyboard-response","278","j","bililhon","true","",""
"1990.799999970477","","","","","2","html-slider-response","279","","","","1",""
"8963","picture","silya,chaki,asin,kubwa","kubwa","n","2","html-keyboard-response","280","j","asin","false","",""
"1975.399999995716","","","","","2","html-slider-response","281","","","","5",""
"5930","towel","tembo,funzi,pito,pagpalit","pagpalit","n","2","html-keyboard-response","282","f","tembo","false","",""
"3030.5999999982305","","","","","2","html-slider-response","283","","","","1",""
"6351","window","nanga,kujenga,umaga,kweli","kweli","n","2","html-keyboard-response","284","j","umaga","false","",""
"2110.09999999078","","","","","2","html-slider-response","285","","","","1",""
"5425","box","kuacha,adui,rafiki,kitande","adui","v","3","html-keyboard-response","293","j","rafiki","false","","4"
"2589.700000011362","","","","","3","html-slider-response","294","","","","5",""
"26995","","","","","3","html-keyboard-response","295","","","","",""
"25664","pants","pintal,haki,chuki,hari","haki","v","3","html-keyboard-response","296","j","chuki","false","","4"
"2325.8999999961816","","","","","3","html-slider-response","297","","","","1",""
"11348","","","","","3","html-keyboard-response","298","","","","",""
"10244","cup","matumai,dagat,shimoni,jeraha","matumai","f","3","html-keyboard-response","299","f","matumai","true","","4"
"2976.3000000384636","","","","","3","html-slider-response","300","","","","5",""
"3777","","","","","3","html-keyboard-response","301","","","","",""
"6893","triangle","kihozi,kasadpan,bentaha,liog","kasadpan","v","3","html-keyboard-response","302","f","kihozi","false","","4"
"1976.699999999255","","","","","3","html-slider-response","303","","","","1",""
"4749","","","","","3","html-keyboard-response","304","","","","",""
"14885","curtain","mchanga,lisud,bulwawan,chubani","mchanga","f","3","html-keyboard-response","305","n","chubani","false","","4"
"2720.09999997681","","","","","3","html-slider-response","306","","","","1",""
"7363","","","","","3","html-keyboard-response","307","","","","",""
"6512","clock","kartasi,abang,osha,mbwa","mbwa","n","3","html-keyboard-response","308","n","mbwa","true","","4"
"2004.2000000248663","","","","","3","html-slider-response","309","","","","1",""
"4872","","","","","3","html-keyboard-response","310","","","","",""
"4694","mirror","rangi,sulagma,kanding,furaha","sulagma","v","3","html-keyboard-response","311","v","sulagma","true","","4"
"1931.6999999573454","","","","","3","html-slider-response","312","","","","1",""
"3174","","","","","3","html-keyboard-response","313","","","","",""
"8027","coffin","barua,tubag,kioo,hulma","kioo","j","3","html-keyboard-response","314","j","kioo","true","","1"
"1674.9000000418164","","","","","3","html-slider-response","315","","","","1",""
"2963","","","","","3","html-keyboard-response","316","","","","",""
"2897","magazine","gundi,mchawi,bahandi,kiti","kiti","n","3","html-keyboard-response","317","j","bahandi","false","","4"
"2163.699999975506","","","","","3","html-slider-response","318","","","","1",""
"3982","","","","","3","html-keyboard-response","319","","","","",""
"6472","column","pundok,dila,pala,ufagio","ufagio","n","3","html-keyboard-response","320","n","ufagio","true","","1"
"2482.30000003241","","","","","3","html-slider-response","321","","","","5",""
"3869","","","","","3","html-keyboard-response","322","","","","",""
"11716","number","mundamo,shule,kengele,choori","mundamo","f","3","html-keyboard-response","323","j","kengele","false","","4"
"2907.100000011269","","","","","3","html-slider-response","324","","","","1",""
"4323","","","","","3","html-keyboard-response","325","","","","",""
"7804","rose","singizi,mwanake,paghalad,amani","paghalad","j","3","html-keyboard-response","326","n","amani","false","","4"
"2709.7000000067055","","","","","3","html-slider-response","327","","","","1",""
"6400","","","","","3","html-keyboard-response","328","","","","",""
"4410","eel","ishara,kunywa,kabuang,msumari","msumari","n","3","html-keyboard-response","329","v","kunywa","false","","4"
"3078.800000017509","","","","","3","html-slider-response","330","","","","1",""
"3402","","","","","3","html-keyboard-response","331","","","","",""
"17064","gift","pagtawag,baba,nyange,baso","pagtawag","f","3","html-keyboard-response","332","n","baso","false","","4"
"2469.7000000160187","","","","","3","html-slider-response","333","","","","1",""
"3622","","","","","3","html-keyboard-response","334","","","","",""
"6336","apple","ukame,estante,kisu,edad","kisu","j","3","html-keyboard-response","335","j","kisu","true","","1"
"3106.900000013411","","","","","3","html-slider-response","336","","","","5",""
"3651","","","","","3","html-keyboard-response","337","","","","",""
"1888","wheel","punda,bafuni,tawo,baadaye","bafuni","v","3","html-keyboard-response","338","v","bafuni","true","","1"
"3311.50000001071","","","","","3","html-slider-response","339","","","","5",""
"3200","","","","","3","html-keyboard-response","340","","","","",""
"6615","knee","duka,mvuke,kubale,bili","duka","f","3","html-keyboard-response","341","v","mvuke","false","","4"
"2660.3999999933876","","","","","3","html-slider-response","342","","","","1",""
"3497","","","","","3","html-keyboard-response","343","","","","",""
"2576","basket","kumbuka,kumba,utepe,hasira","kumba","v","3","html-keyboard-response","344","v","kumba","true","","1"
"1951.50000002468","","","","","3","html-slider-response","345","","","","5",""
"3531","","","","","3","html-keyboard-response","346","","","","",""
"13282","park","tambok,pwani,ihalas,bunifu","bunifu","n","3","html-keyboard-response","347","f","tambok","false","","4"
"2947.500000009313","","","","","3","html-slider-response","348","","","","1",""
"4188","","","","","3","html-keyboard-response","349","","","","",""
"15219","finger","simu,sufuria,lima,moyo","moyo","n","3","html-keyboard-response","350","f","simu","false","","4"
"2843.30000000773","","","","","3","html-slider-response","351","","","","1",""
"14670","","","","","3","html-keyboard-response","352","","","","",""
"9612","boat","hamsi,pombe,kitanda,agalon","agalon","n","3","html-keyboard-response","353","f","hamsi","false","","4"
"3711.1000000149943","","","","","3","html-slider-response","354","","","","1",""
"3796","","","","","3","html-keyboard-response","355","","","","",""
"7249","hill","matumbo,kushoto,kukimba,sweta","matumbo","f","3","html-keyboard-response","356","f","matumbo","true","","4"
"2419.099999999162","","","","","3","html-slider-response","357","","","","1",""
"3352","","","","","3","html-keyboard-response","358","","","","",""
"12123","train","itik,dakika,sayari,mungu","sayari","j","3","html-keyboard-response","359","n","mungu","false","","4"
"1972.4000000278465","","","","","3","html-slider-response","360","","","","1",""
"3838","","","","","3","html-keyboard-response","361","","","","",""
"7009","wolf","kaburi,lugha,ndizi,mchuzi","lugha","v","3","html-keyboard-response","362","f","kaburi","false","","4"
"1821.1000000010245","","","","","3","html-slider-response","363","","","","1",""
"4143","","","","","3","html-keyboard-response","364","","","","",""
"10427","snake","jansa,pagtukod,karon,mvringo","pagtukod","v","3","html-keyboard-response","365","v","pagtukod","true","","4"
"4274.899999960326","","","","","3","html-slider-response","366","","","","1",""
"6684","","","","","3","html-keyboard-response","367","","","","",""
"13575","tooth","kijiko,uadui,kabalaka,pahiyum","kabalaka","j","3","html-keyboard-response","368","f","kijiko","false","","4"
"2824.800000002142","","","","","3","html-slider-response","369","","","","1",""
"3456","","","","","3","html-keyboard-response","370","","","","",""
"10570","notebook","msitu,kila,kemia,mdudu","kemia","j","3","html-keyboard-response","371","j","kemia","true","","4"
"1863.4999999776483","","","","","3","html-slider-response","372","","","","1",""
"3846","","","","","3","html-keyboard-response","373","","","","",""
"7941","flag","ndege,trekta,mkate,kawa","trekta","v","3","html-keyboard-response","374","v","trekta","true","","4"
"3410.0999999791384","","","","","3","html-slider-response","375","","","","5",""
"3686","","","","","3","html-keyboard-response","376","","","","",""
"6097","squirrel","mahugaw,hofu,ukweli,kichwa","hofu","v","3","html-keyboard-response","377","f","mahugaw","false","","4"
"1921.3999999919906","","","","","3","html-slider-response","378","","","","1",""
"3566","","","","","3","html-keyboard-response","379","","","","",""
"8092","door","tena,soko,nyota,surali","surali","n","3","html-keyboard-response","380","j","nyota","false","","4"
"1966.4999999804422","","","","","3","html-slider-response","381","","","","1",""
"3069","","","","","3","html-keyboard-response","382","","","","",""
"4224","salmon","mzungu,seri,sensilyo,baharia","sensilyo","j","3","html-keyboard-response","383","n","baharia","false","","4"
"3194.499999983236","","","","","3","html-slider-response","384","","","","1",""
"7757","","","","","3","html-keyboard-response","385","","","","",""
"8630","shoulder","kelele,mkuu,ndaniya,guruwe","mkuu","v","3","html-keyboard-response","386","v","mkuu","true","","4"
"1957.0999999996275","","","","","3","html-slider-response","387","","","","1",""
"8306","","","","","3","html-keyboard-response","388","","","","",""
"7310","lamp","afya,daub,bilaska,mbolea","afya","f","3","html-keyboard-response","389","j","bilaska","false","","4"
"2435.9000000404194","","","","","3","html-slider-response","390","","","","1",""
"3523","","","","","3","html-keyboard-response","391","","","","",""
"2197","shelf","pamahaw,bungtod,kadaot,awit","pamahaw","f","3","html-keyboard-response","392","f","pamahaw","true","","1"
"2024.9000000185333","","","","","3","html-slider-response","393","","","","5",""
"3973","","","","","3","html-keyboard-response","394","","","","",""
"7187","human","bado,kikapu,punguza,tinapay","tinapay","n","3","html-keyboard-response","395","v","kikapu","false","","4"
"4227.7999999932945","","","","","3","html-slider-response","396","","","","1",""
"3970","","","","","3","html-keyboard-response","397","","","","",""
"3565","towel","pagpalit,tembo,funzi,pito","pagpalit","f","3","html-keyboard-response","398","n","pito","false","","4"
"1693.4999999939464","","","","","3","html-slider-response","399","","","","1",""
"3420","","","","","3","html-keyboard-response","400","","","","",""
"13445","cat","neyemba,paghukom,baki,akili","paghukom","v","3","html-keyboard-response","401","v","paghukom","true","","4"
"4689.29999996908","","","","","3","html-slider-response","402","","","","5",""
"3678","","","","","3","html-keyboard-response","403","","","","",""
"4554","spider","bunyag,kamwe,mkboa,atop","kamwe","v","3","html-keyboard-response","404","v","kamwe","true","","4"
"2364.2000000108965","","","","","3","html-slider-response","405","","","","1",""
"2917","","","","","3","html-keyboard-response","406","","","","",""
"4280","window","nanga,kujenga,kweli,umaga","kweli","j","3","html-keyboard-response","407","n","umaga","false","","4"
"2598.0999999446794","","","","","3","html-slider-response","408","","","","1",""
"3107","","","","","3","html-keyboard-response","409","","","","",""
"1834","woman","bandari,pagtabon,bituin,kovuli","pagtabon","v","3","html-keyboard-response","410","v","pagtabon","true","","1"
"1896.8000000459142","","","","","3","html-slider-response","411","","","","5",""
"2941","","","","","3","html-keyboard-response","412","","","","",""
"8416","giraffe","daraja,mahitabo,jumatu,hangyo","mahitabo","v","3","html-keyboard-response","413","j","jumatu","false","","4"
"3095.19999998156","","","","","3","html-slider-response","414","","","","1",""
"4401","","","","","3","html-keyboard-response","415","","","","",""
"2033","elephant","petye,pagduol,kito,suka","kito","j","3","html-keyboard-response","416","j","kito","true","","4"
"1904.8000000184402","","","","","3","html-slider-response","417","","","","5",""
"3412","","","","","3","html-keyboard-response","418","","","","",""
"5650","cave","ganti,kesho,maisha,nyundo","kesho","v","3","html-keyboard-response","419","j","maisha","false","","4"
"1918.3999999659136","","","","","3","html-slider-response","420","","","","5",""
"2774","","","","","3","html-keyboard-response","421","","","","",""
"14843","bread","kaili,dizeli,dari,bugas","dari","j","3","html-keyboard-response","422","f","kaili","false","","4"
"3419.80000003241","","","","","3","html-slider-response","423","","","","1",""
"3043","","","","","3","html-keyboard-response","424","","","","",""
"3318","stone","ulimwengu,mkasi,wingi,asili","wingi","j","3","html-keyboard-response","425","j","wingi","true","","4"
"2421.60000000149","","","","","3","html-slider-response","426","","","","1",""
"2835","","","","","3","html-keyboard-response","427","","","","",""
"11681","donkey","bloke,lalake,elfu,rombus","elfu","j","3","html-keyboard-response","428","j","elfu","true","","4"
"2853.000000002794","","","","","3","html-slider-response","429","","","","1",""
"2878","","","","","3","html-keyboard-response","430","","","","",""
"3586","bridge","daima,sahani,ngono,panya","sahani","v","3","html-keyboard-response","431","j","ngono","false","","4"
"2117.199999978766","","","","","3","html-slider-response","432","","","","1",""
"3544","","","","","3","html-keyboard-response","433","","","","",""
"15784","bonfire","mwezi,mfuko,kusanya,goti","goti","n","3","html-keyboard-response","434","v","mfuko","false","","4"
"2569.6999999927357","","","","","3","html-slider-response","435","","","","1",""
"3469","","","","","3","html-keyboard-response","436","","","","",""
"5066","book","kuhesa,picha,mara,mali","mali","n","3","html-keyboard-response","437","n","mali","true","","4"
"3902.300000016112","","","","","3","html-slider-response","438","","","","4",""
"2808","","","","","3","html-keyboard-response","439","","","","",""
"3620","fish","bala,baho,imani,buli","buli","n","3","html-keyboard-response","440","n","buli","true","","4"
"1849.1999999969266","","","","","3","html-slider-response","441","","","","5",""
"2608","","","","","3","html-keyboard-response","442","","","","",""
"3565","spoon","betri,nzuri,pagsulod,ngazi","pagsulod","j","3","html-keyboard-response","443","j","pagsulod","true","","4"
"1990.6000000191852","","","","","3","html-slider-response","444","","","","2",""
"2755","","","","","3","html-keyboard-response","445","","","","",""
"3168","scissors","duga,mtawa,tanuri,suga","tanuri","j","3","html-keyboard-response","446","v","mtawa","false","","4"
"2403.200000000652","","","","","3","html-slider-response","447","","","","1",""
"2653","","","","","3","html-keyboard-response","448","","","","",""
"3847","page","wakala,ishiri,skina,wimbo","wimbo","n","3","html-keyboard-response","449","j","skina","false","","4"
"1945.1000000117347","","","","","3","html-slider-response","450","","","","1",""
"2506","","","","","3","html-keyboard-response","451","","","","",""
"2350","nose","gubat,sehemu,kopa,kidole","sehemu","v","3","html-keyboard-response","452","v","sehemu","true","","1"
"1836.7999999900348","","","","","3","html-slider-response","453","","","","5",""
"2641","","","","","3","html-keyboard-response","454","","","","",""
"3401","ceiling","kugita,kawaida,rayna,maua","maua","n","3","html-keyboard-response","455","f","kugita","false","","4"
"2358.5000000311993","","","","","3","html-slider-response","456","","","","1",""
"2505","","","","","3","html-keyboard-response","457","","","","",""
"12016","bucket","baga,ijayo,kiatu,init","kiatu","j","3","html-keyboard-response","458","j","kiatu","true","","4"
"2872.399999992922","","","","","3","html-slider-response","459","","","","1",""
"2931","","","","","3","html-keyboard-response","460","","","","",""
"2066","berry","kofia,abogado,nogozi,kinywa","kofia","f","3","html-keyboard-response","461","f","kofia","true","","1"
"1714.2999999923632","","","","","3","html-slider-response","462","","","","5",""
"2994","","","","","3","html-keyboard-response","463","","","","",""
"1921","mother","kahawa,mbuzi,babaye,jokofu","babaye","j","3","html-keyboard-response","464","j","babaye","true","","1"
"1745.5999999656342","","","","","3","html-slider-response","465","","","","5",""
"3210","","","","","3","html-keyboard-response","466","","","","",""
"5222","mosquito","martilyo,isda,taras,gutom","martilyo","f","3","html-keyboard-response","467","j","taras","false","","4"
"1742.2000000369735","","","","","3","html-slider-response","468","","","","1",""
"2981","","","","","3","html-keyboard-response","469","","","","",""
"6677","perfume","bino,sungura,katuyoan,ndogo","katuyoan","j","3","html-keyboard-response","470","v","sungura","false","","4"
"1830.9000000008382","","","","","3","html-slider-response","471","","","","1",""
"4557","","","","","3","html-keyboard-response","472","","","","",""
"3474","sheet","juuya,watu,kamantis,bililhon","bililhon","n","3","html-keyboard-response","473","v","watu","false","","4"
"2438.9000000082888","","","","","3","html-slider-response","474","","","","1",""
"3144","","","","","3","html-keyboard-response","475","","","","",""
"2175","puppet","napulo,lamok,godoro,mazishi","mazishi","n","3","html-keyboard-response","476","n","mazishi","true","","1"
"2697.100000048522","","","","","3","html-slider-response","477","","","","5",""
"2558","","","","","3","html-keyboard-response","478","","","","",""
"3703","poster","nchi,fedha,madungog,kasuko","madungog","j","3","html-keyboard-response","479","n","kasuko","false","","4"
"1707.6000000233762","","","","","3","html-slider-response","480","","","","1",""
"2317","","","","","3","html-keyboard-response","481","","","","",""
"3241","music","baiski,mraba,mageho,tumbo","baiski","f","3","html-keyboard-response","482","f","baiski","true","","4"
"1768.7999999616295","","","","","3","html-slider-response","483","","","","5",""
"2498","","","","","3","html-keyboard-response","484","","","","",""
"6454","key","chombo,miaka,goma,ahos","chombo","f","3","html-keyboard-response","485","f","chombo","true","","4"
"2521.999999997206","","","","","3","html-slider-response","486","","","","1",""
"2845","","","","","3","html-keyboard-response","487","","","","",""
"7250","sock","ndoora,kimysa,mamba,mtirka","mamba","j","3","html-keyboard-response","488","j","mamba","true","","4"
"1702.0999999949709","","","","","3","html-slider-response","489","","","","5",""
"2820","","","","","3","html-keyboard-response","490","","","","",""
"6122","marker","mapafu,salita,maji,atay","maji","j","3","html-keyboard-response","491","j","maji","true","","4"
"1819.6000000461936","","","","","3","html-slider-response","492","","","","1",""
"2696","","","","","3","html-keyboard-response","493","","","","",""
"4405","office","hazini,yatima,leso,kuna","leso","j","3","html-keyboard-response","494","n","kuna","false","","4"
"4811.800000024959","","","","","3","html-slider-response","495","","","","1",""
"3552","","","","","3","html-keyboard-response","496","","","","",""
"3467","shoe","nyeusi,uyoga,hatua,kama","uyoga","v","3","html-keyboard-response","497","n","kama","false","","4"
"1711.3999999710359","","","","","3","html-slider-response","498","","","","1",""
"2600","","","","","3","html-keyboard-response","499","","","","",""
"6369","cop","bustani,jikoni,bakus,mechezo","mechezo","n","3","html-keyboard-response","500","n","mechezo","true","","4"
"2412.000000011176","","","","","3","html-slider-response","501","","","","2",""
"2681","","","","","3","html-keyboard-response","502","","","","",""
"8485","bank","silingan,kudhibi,tualya,ofisi","silingan","f","3","html-keyboard-response","503","j","tualya","false","","4"
"1775.7999999448657","","","","","3","html-slider-response","504","","","","1",""
"2469","","","","","3","html-keyboard-response","505","","","","",""
"1761","letter","filimbi,chuma,kifua,uhuru","kifua","j","3","html-keyboard-response","506","j","kifua","true","","1"
"2723.4000000171363","","","","","3","html-slider-response","507","","","","5",""
"2670","","","","","3","html-keyboard-response","508","","","","",""
"1746","dog","lubi,washia,kalamu,bahari","bahari","n","3","html-keyboard-response","509","n","bahari","true","","1"
"1705.100000021048","","","","","3","html-slider-response","510","","","","5",""
"2463","","","","","3","html-keyboard-response","511","","","","",""
"4494","shop","nopya,kerida,samaki,ndezu","samaki","j","3","html-keyboard-response","512","n","ndezu","false","","4"
"2513.0999999819323","","","","","3","html-slider-response","513","","","","1",""
"2478","","","","","3","html-keyboard-response","514","","","","",""
"5215","flower","tamasha,lobo,bega,usiku","bega","j","3","html-keyboard-response","515","f","tamasha","false","","4"
"1894.399999990128","","","","","3","html-slider-response","516","","","","1",""
"3081","","","","","3","html-keyboard-response","517","","","","",""
"2006","cigar","adhabu,ndugu,kuta,mlango","adhabu","f","3","html-keyboard-response","518","f","adhabu","true","","1"
"2997.9999999632128","","","","","3","html-slider-response","519","","","","5",""
"2647","","","","","3","html-keyboard-response","520","","","","",""
"3522","hammer","mekno,napakyas,kitovu,layag","napakyas","v","3","html-keyboard-response","521","v","napakyas","true","","4"
"2371.899999969173","","","","","3","html-slider-response","522","","","","1",""
"2693","","","","","3","html-keyboard-response","523","","","","",""
"5156","fork","baboy,mgonjwa,paghago,gorisi","mgonjwa","v","3","html-keyboard-response","524","j","paghago","false","","4"
"1645.1000000233762","","","","","3","html-slider-response","525","","","","1",""
"2413","","","","","3","html-keyboard-response","526","","","","",""
"1802","sun","bendi,luha,basi,uongo","basi","j","3","html-keyboard-response","527","j","basi","true","","1"
"1707.700000028126","","","","","3","html-slider-response","528","","","","5",""
"6550","","","","","3","html-keyboard-response","529","","","","",""
"13801","ladder","pangalan,mashua,mwanga,kamba","pangalan","f","3","html-keyboard-response","530","f","pangalan","true","","4"
"3476.0999999707565","","","","","3","html-slider-response","531","","","","5",""
"2914","","","","","3","html-keyboard-response","532","","","","",""
"2252","banana","kasamok,hagdan,kazi,twai","kazi","j","3","html-keyboard-response","533","j","kazi","true","","1"
"1720.900000014808","","","","","3","html-slider-response","534","","","","5",""
"2771","","","","","3","html-keyboard-response","535","","","","",""
"5113","pudding","abug,aibu,mpishi,iring","aibu","v","3","html-keyboard-response","536","v","aibu","true","","4"
"1686.60000001546","","","","","3","html-slider-response","537","","","","1",""
"3229","","","","","3","html-keyboard-response","538","","","","",""
"5217","body","nyundu,jibini,kununa,tindashan","tindashan","n","3","html-keyboard-response","539","j","kununa","false","","4"
"1841.4999999804422","","","","","3","html-slider-response","540","","","","1",""
"2498","","","","","3","html-keyboard-response","541","","","","",""
"6936","bed","kalipay,haraka,starehe,mapintas","mapintas","n","3","html-keyboard-response","542","n","mapintas","true","","4"
"1774.600000004284","","","","","3","html-slider-response","543","","","","1",""
"3121","","","","","3","html-keyboard-response","544","","","","",""
"3299","tissue","lamigas,kisiwa,ugomvi,katika","ugomvi","j","3","html-keyboard-response","545","j","ugomvi","true","","4"
"1805.4999999585561","","","","","3","html-slider-response","546","","","","5",""
"3678","","","","","3","html-keyboard-response","547","","","","",""
"7409","candle","gabi,farasi,geza,kupanda","geza","j","3","html-keyboard-response","548","j","geza","true","","4"
"1661.0999999684282","","","","","3","html-slider-response","549","","","","5",""
"2451","","","","","3","html-keyboard-response","550","","","","",""
"2191","tomato","chupi,chupa,takatak,mvua","mvua","n","3","html-keyboard-response","551","n","mvua","true","","1"
"1750.6000000284985","","","","","3","html-slider-response","552","","","","5",""
"2531","","","","","3","html-keyboard-response","553","","","","",""
"8201","list","alizeti,wingu,kuzama,kaso","wingu","v","3","html-keyboard-response","554","f","alizeti","false","","4"
"2776.799999992363","","","","","3","html-slider-response","555","","","","1",""
"3128","","","","","3","html-keyboard-response","556","","","","",""
"4016","olive","bata,siagi,welder,jiwe","jiwe","n","3","html-keyboard-response","557","f","bata","false","","4"
"1809.9999999976717","","","","","3","html-slider-response","558","","","","2",""
"2723","","","","","3","html-keyboard-response","559","","","","",""
"1832","picture","silya,chaki,asin,kubwa","kubwa","n","3","html-keyboard-response","560","n","kubwa","true","","1"
"1636.3000000128523","","","","","3","html-slider-response","561","","","","5",""
"3779","","","","","3","html-keyboard-response","562","","","","",""
"11517","page","wakala,wimbo,ishiri,skina","wimbo","v","4","html-keyboard-response","888","n","skina","false","",""
"1952.3999999510124","","","","","4","html-slider-response","889","","","","2",""
"6396","sheet","juuya,watu,bililhon,kamantis","bililhon","j","4","html-keyboard-response","890","j","bililhon","true","",""
"3821.5000000200234","","","","","4","html-slider-response","891","","","","5",""
"7990","ladder","mashua,mwanga,pangalan,kamba","pangalan","j","4","html-keyboard-response","892","j","pangalan","true","",""
"3103.000000002794","","","","","4","html-slider-response","893","","","","5",""
"8552","door","tena,soko,nyota,surali","surali","n","4","html-keyboard-response","894","n","surali","true","",""
"2164.199999999255","","","","","4","html-slider-response","895","","","","5",""
"5079","spider","bunyag,kamwe,mkboa,atop","kamwe","v","4","html-keyboard-response","896","v","kamwe","true","",""
"2369.299999962095","","","","","4","html-slider-response","897","","","","5",""
"9470","picture","silya,chaki,asin,kubwa","kubwa","n","4","html-keyboard-response","898","j","asin","false","",""
"3047.500000044238","","","","","4","html-slider-response","899","","","","1",""
"6894","boat","hamsi,pombe,agalon,kitanda","agalon","j","4","html-keyboard-response","900","f","hamsi","false","",""
"1645.8999999449588","","","","","4","html-slider-response","901","","","","5",""
"8915","donkey","bloke,elfu,lalake,rombus","elfu","v","4","html-keyboard-response","902","v","elfu","true","",""
"2048.39999997057","","","","","4","html-slider-response","903","","","","5",""
"6127","book","mali,kuhesa,picha,mara","mali","f","4","html-keyboard-response","904","f","mali","true","",""
"1775.2000000327826","","","","","4","html-slider-response","905","","","","5",""
"8703","cup","matumai,dagat,shimoni,jeraha","matumai","f","4","html-keyboard-response","906","f","matumai","true","",""
"3431.9999999715947","","","","","4","html-slider-response","907","","","","5",""
"3694","sun","bendi,luha,uongo,basi","basi","n","4","html-keyboard-response","908","n","basi","true","",""
"2976.4999999897555","","","","","4","html-slider-response","909","","","","5",""
"6816","pudding","abug,mpishi,iring,aibu","aibu","n","4","html-keyboard-response","910","v","mpishi","false","",""
"1790.500000002794","","","","","4","html-slider-response","911","","","","2",""
"4497","human","tinapay,bado,kikapu,punguza","tinapay","f","4","html-keyboard-response","912","n","punguza","false","",""
"1992.1999999787658","","","","","4","html-slider-response","913","","","","1",""
"4587","squirrel","mahugaw,ukweli,hofu,kichwa","hofu","j","4","html-keyboard-response","914","j","hofu","true","",""
"1647.5999999674968","","","","","4","html-slider-response","915","","","","5",""
"8250","park","tambok,bunifu,pwani,ihalas","bunifu","v","4","html-keyboard-response","916","v","bunifu","true","",""
"2378.2999999821186","","","","","4","html-slider-response","917","","","","1",""
"4749","poster","nchi,madungog,fedha,kasuko","madungog","v","4","html-keyboard-response","918","v","madungog","true","",""
"3013.0000000353903","","","","","4","html-slider-response","919","","","","1",""
"7586","wolf","kaburi,lugha,ndizi,mchuzi","lugha","v","4","html-keyboard-response","920","f","kaburi","false","",""
"3144.0999999758787","","","","","4","html-slider-response","921","","","","5",""
"4707","cat","neyemba,baki,akili,paghukom","paghukom","n","4","html-keyboard-response","922","v","baki","false","",""
"5539.800000027753","","","","","4","html-slider-response","923","","","","5",""
"6473","fish","buli,bala,baho,imani","buli","f","4","html-keyboard-response","924","f","buli","true","",""
"3111.1999999848194","","","","","4","html-slider-response","925","","","","5",""
"7677","tooth","kijiko,uadui,pahiyum,kabalaka","kabalaka","n","4","html-keyboard-response","926","n","kabalaka","true","",""
"2747.0999999786727","","","","","4","html-slider-response","927","","","","5",""
"5430","cave","ganti,maisha,nyundo,kesho","kesho","n","4","html-keyboard-response","928","v","maisha","false","",""
"2482.099999964703","","","","","4","html-slider-response","929","","","","1",""
"7196","lamp","daub,bilaska,afya,mbolea","afya","j","4","html-keyboard-response","930","f","daub","false","",""
"3426.1999999871477","","","","","4","html-slider-response","931","","","","1",""
"5323","banana","kasamok,hagdan,kazi,twai","kazi","j","4","html-keyboard-response","932","j","kazi","true","",""
"1810.5000000214204","","","","","4","html-slider-response","933","","","","5",""
"4807","bonfire","mwezi,goti,mfuko,kusanya","goti","v","4","html-keyboard-response","934","v","goti","true","",""
"2521.699999982957","","","","","4","html-slider-response","935","","","","5",""
"7135","cop","bustani,jikoni,mechezo,bakus","mechezo","j","4","html-keyboard-response","936","j","mechezo","true","",""
"1738.6000000406057","","","","","4","html-slider-response","937","","","","5",""
"6068","marker","mapafu,salita,atay,maji","maji","n","4","html-keyboard-response","938","n","maji","true","",""
"1746.500000008382","","","","","4","html-slider-response","939","","","","5",""
"6426","window","nanga,kujenga,umaga,kweli","kweli","n","4","html-keyboard-response","940","v","kujenga","false","",""
"2803.0000000144355","","","","","4","html-slider-response","941","","","","1",""
"5663","body","nyundu,jibini,tindashan,kununa","tindashan","j","4","html-keyboard-response","942","j","tindashan","true","",""
"2362.0999999693595","","","","","4","html-slider-response","943","","","","1",""
"24125","apple","ukame,kisu,estante,edad","kisu","v","4","html-keyboard-response","944","v","kisu","true","",""
"1783.9999999850988","","","","","4","html-slider-response","945","","","","5",""
"5274","salmon","mzungu,seri,sensilyo,baharia","sensilyo","j","4","html-keyboard-response","946","j","sensilyo","true","",""
"2391.700000036508","","","","","4","html-slider-response","947","","","","5",""
"6293","bed","kalipay,mapintas,haraka,starehe","mapintas","v","4","html-keyboard-response","948","v","mapintas","true","",""
"1726.0000000242144","","","","","4","html-slider-response","949","","","","1",""
"3216","berry","abogado,nogozi,kofia,kinywa","kofia","j","4","html-keyboard-response","950","j","kofia","true","",""
"1961.9999999995343","","","","","4","html-slider-response","951","","","","5",""
"4152","mirror","rangi,kanding,sulagma,furaha","sulagma","j","4","html-keyboard-response","952","j","sulagma","true","",""
"1626.4000000082888","","","","","4","html-slider-response","953","","","","1",""
"33126","flag","trekta,ndege,mkate,kawa","trekta","f","4","html-keyboard-response","954","f","trekta","true","",""
"2242.8000000072643","","","","","4","html-slider-response","955","","","","4",""
"5190","shoulder","mkuu,kelele,ndaniya,guruwe","mkuu","f","4","html-keyboard-response","956","j","ndaniya","false","",""
"2923.700000043027","","","","","4","html-slider-response","957","","","","1",""
"4045","tissue","ugomvi,lamigas,kisiwa,katika","ugomvi","f","4","html-keyboard-response","958","f","ugomvi","true","",""
"1657.6000000350177","","","","","4","html-slider-response","959","","","","5",""
"5001","notebook","msitu,kila,mdudu,kemia","kemia","n","4","html-keyboard-response","960","v","kila","false","",""
"2424.8000000370666","","","","","4","html-slider-response","961","","","","1",""
"6235","snake","jansa,pagtukod,karon,mvringo","pagtukod","v","4","html-keyboard-response","962","v","pagtukod","true","",""
"1719.0000000409782","","","","","4","html-slider-response","963","","","","2",""
"8109","finger","simu,sufuria,lima,moyo","moyo","n","4","html-keyboard-response","964","j","lima","false","",""
"2128.000000026077","","","","","4","html-slider-response","965","","","","1",""
"5670","basket","kumba,kumbuka,utepe,hasira","kumba","f","4","html-keyboard-response","966","f","kumba","true","",""
"2831.7999999853782","","","","","4","html-slider-response","967","","","","5",""
"11216","curtain","lisud,bulwawan,chubani,mchanga","mchanga","n","4","html-keyboard-response","968","j","chubani","false","",""
"2627.299999992829","","","","","4","html-slider-response","969","","","","5",""
"17655","perfume","katuyoan,bino,sungura,ndogo","katuyoan","f","4","html-keyboard-response","970","f","katuyoan","true","",""
"2467.1000000089407","","","","","4","html-slider-response","971","","","","1",""
"5664","key","miaka,goma,chombo,ahos","chombo","j","4","html-keyboard-response","972","j","chombo","true","",""
"1855.4000000003725","","","","","4","html-slider-response","973","","","","5",""
"6821","olive","jiwe,bata,siagi,welder","jiwe","f","4","html-keyboard-response","974","f","jiwe","true","",""
"1554.9999999925494","","","","","4","html-slider-response","975","","","","5",""
"4879","rose","paghalad,singizi,mwanake,amani","paghalad","f","4","html-keyboard-response","976","f","paghalad","true","",""
"2387.099999993108","","","","","4","html-slider-response","977","","","","5",""
"7585","bridge","sahani,daima,ngono,panya","sahani","f","4","html-keyboard-response","978","v","daima","false","",""
"2309.5999999791384","","","","","4","html-slider-response","979","","","","1",""
"5798","hill","kushoto,matumbo,kukimba,sweta","matumbo","v","4","html-keyboard-response","980","v","matumbo","true","",""
"1869.0000000065193","","","","","4","html-slider-response","981","","","","2",""
"6444","letter","filimbi,chuma,uhuru,kifua","kifua","n","4","html-keyboard-response","982","n","kifua","true","",""
"2904.6000000089407","","","","","4","html-slider-response","983","","","","1",""
"14759","sock","ndoora,kimysa,mtirka,mamba","mamba","n","4","html-keyboard-response","984","n","mamba","true","",""
"1878.1999999769032","","","","","4","html-slider-response","985","","","","5",""
"4886","fork","mgonjwa,baboy,paghago,gorisi","mgonjwa","f","4","html-keyboard-response","986","j","paghago","false","",""
"2378.2999999821186","","","","","4","html-slider-response","987","","","","1",""
"11402","box","kuacha,rafiki,kitande,adui","adui","n","4","html-keyboard-response","988","n","adui","true","",""
"2597.6999999834225","","","","","4","html-slider-response","989","","","","5",""
"5494","gift","baba,pagtawag,nyange,baso","pagtawag","v","4","html-keyboard-response","990","f","baba","false","",""
"1587.2000000094995","","","","","4","html-slider-response","991","","","","1",""
"6280","bucket","baga,ijayo,kiatu,init","kiatu","j","4","html-keyboard-response","992","j","kiatu","true","",""
"1517.4999999590218","","","","","4","html-slider-response","993","","","","1",""
"6165","shop","nopya,kerida,samaki,ndezu","samaki","j","4","html-keyboard-response","994","v","kerida","false","",""
"1585.199999973178","","","","","4","html-slider-response","995","","","","1",""
"8618","puppet","napulo,lamok,mazishi,godoro","mazishi","j","4","html-keyboard-response","996","j","mazishi","true","",""
"1566.4999999571592","","","","","4","html-slider-response","997","","","","1",""
"8178","nose","gubat,kopa,sehemu,kidole","sehemu","j","4","html-keyboard-response","998","n","kidole","false","",""
"2303.100000018254","","","","","4","html-slider-response","999","","","","4",""
"4465","music","mraba,mageho,tumbo,baiski","baiski","n","4","html-keyboard-response","1000","n","baiski","true","",""
"1916.499999991618","","","","","4","html-slider-response","1001","","","","5",""
"7492","dog","bahari,lubi,washia,kalamu","bahari","f","4","html-keyboard-response","1002","f","bahari","true","",""
"3559.099999954924","","","","","4","html-slider-response","1003","","","","5",""
"5491","eel","ishara,kunywa,msumari,kabuang","msumari","j","4","html-keyboard-response","1004","j","msumari","true","",""
"1596.599999989383","","","","","4","html-slider-response","1005","","","","1",""
"7875","number","shule,kengele,choori,mundamo","mundamo","n","4","html-keyboard-response","1006","n","mundamo","true","",""
"1822.4000000040978","","","","","4","html-slider-response","1007","","","","1",""
"9342","tomato","chupi,chupa,mvua,takatak","mvua","j","4","html-keyboard-response","1008","n","takatak","false","",""
"4186.700000020675","","","","","4","html-slider-response","1009","","","","1",""
"9321","coffin","barua,tubag,hulma,kioo","kioo","n","4","html-keyboard-response","1010","f","barua","false","",""
"2978.100000007078","","","","","4","html-slider-response","1011","","","","2",""
"9331","knee","mvuke,kubale,duka,bili","duka","j","4","html-keyboard-response","1012","j","duka","true","",""
"1695.7999999867752","","","","","4","html-slider-response","1013","","","","5",""
"4111","woman","bandari,pagtabon,bituin,kovuli","pagtabon","v","4","html-keyboard-response","1014","v","pagtabon","true","",""
"1544.2000000039116","","","","","4","html-slider-response","1015","","","","5",""
"4517","stone","ulimwengu,wingi,mkasi,asili","wingi","v","4","html-keyboard-response","1016","v","wingi","true","",""
"2011.2000000076368","","","","","4","html-slider-response","1017","","","","5",""
"9661","bread","dari,kaili,dizeli,bugas","dari","f","4","html-keyboard-response","1018","v","kaili","false","",""
"2414.699999964796","","","","","4","html-slider-response","1019","","","","1",""
"7119","triangle","kihozi,bentaha,liog,kasadpan","kasadpan","n","4","html-keyboard-response","1020","n","kasadpan","true","",""
"2914.7000000234693","","","","","4","html-slider-response","1021","","","","5",""
"9594","scissors","duga,tanuri,mtawa,suga","tanuri","v","4","html-keyboard-response","1022","f","duga","false","",""
"1598.1000000033528","","","","","4","html-slider-response","1023","","","","5",""
"4831","giraffe","mahitabo,daraja,jumatu,hangyo","mahitabo","f","4","html-keyboard-response","1024","f","mahitabo","true","",""
"2240.2000000001863","","","","","4","html-slider-response","1025","","","","5",""
"5160","flower","bega,tamasha,lobo,usiku","bega","f","4","html-keyboard-response","1026","v","tamasha","false","",""
"3528.2000000011176","","","","","4","html-slider-response","1027","","","","5",""
"20165","candle","gabi,farasi,geza,kupanda","geza","j","4","html-keyboard-response","1028","j","geza","true","",""
"1769.3999999891967","","","","","4","html-slider-response","1029","","","","1",""
"3747","mother","kahawa,babaye,mbuzi,jokofu","babaye","v","4","html-keyboard-response","1030","v","babaye","true","",""
"1722.4999999748543","","","","","4","html-slider-response","1031","","","","5",""
"7876","towel","tembo,pagpalit,funzi,pito","pagpalit","v","4","html-keyboard-response","1032","v","pagpalit","true","",""
"2629.9000000003725","","","","","4","html-slider-response","1033","","","","2",""
"3418","elephant","petye,kito,pagduol,suka","kito","v","4","html-keyboard-response","1034","v","kito","true","",""
"2391.300000017509","","","","","4","html-slider-response","1035","","","","5",""
"5162","shelf","bungtod,kadaot,awit,pamahaw","pamahaw","n","4","html-keyboard-response","1036","n","pamahaw","true","",""
"2303.2999999709427","","","","","4","html-slider-response","1037","","","","5",""
"3375","mosquito","isda,taras,martilyo,gutom","martilyo","j","4","html-keyboard-response","1038","j","martilyo","true","",""
"1562.1999999862164","","","","","4","html-slider-response","1039","","","","1",""
"17724","column","pundok,dila,ufagio,pala","ufagio","j","4","html-keyboard-response","1040","j","ufagio","true","",""
"2171.800000011921","","","","","4","html-slider-response","1041","","","","1",""
"5713","pants","pintal,chuki,haki,hari","haki","j","4","html-keyboard-response","1042","j","haki","true","",""
"1573.3999999938533","","","","","4","html-slider-response","1043","","","","5",""
"4055","list","alizeti,kuzama,kaso,wingu","wingu","n","4","html-keyboard-response","1044","n","wingu","true","",""
"2699.900000006892","","","","","4","html-slider-response","1045","","","","1",""
"10684","bank","kudhibi,tualya,ofisi,silingan","silingan","n","4","html-keyboard-response","1046","n","silingan","true","",""
"2509.2999999765307","","","","","4","html-slider-response","1047","","","","2",""
"6370","clock","mbwa,kartasi,abang,osha","mbwa","f","4","html-keyboard-response","1048","f","mbwa","true","",""
"1677.1999999769032","","","","","4","html-slider-response","1049","","","","5",""
"6486","ceiling","maua,kugita,kawaida,rayna","maua","f","4","html-keyboard-response","1050","j","kawaida","false","",""
"2466.000000014901","","","","","4","html-slider-response","1051","","","","2",""
"5999","train","itik,dakika,mungu,sayari","sayari","n","4","html-keyboard-response","1052","j","mungu","false","",""
"1615.8999999752268","","","","","4","html-slider-response","1053","","","","1",""
"4148","magazine","gundi,kiti,mchawi,bahandi","kiti","v","4","html-keyboard-response","1054","v","kiti","true","",""
"2067.6000000089407","","","","","4","html-slider-response","1055","","","","5",""
"5507","office","leso,hazini,yatima,kuna","leso","f","4","html-keyboard-response","1056","n","kuna","false","",""
"1698.4999999981374","","","","","4","html-slider-response","1057","","","","1",""
"28589","wheel","punda,tawo,bafuni,baadaye","bafuni","j","4","html-keyboard-response","1058","n","baadaye","false","",""
"2442.4000000003725","","","","","4","html-slider-response","1059","","","","4",""
"8745","spoon","pagsulod,betri,nzuri,ngazi","pagsulod","f","4","html-keyboard-response","1060","f","pagsulod","true","",""
"1965.6000000545755","","","","","4","html-slider-response","1061","","","","5",""
"5193","hammer","napakyas,mekno,kitovu,layag","napakyas","f","4","html-keyboard-response","1062","v","mekno","false","",""
"1541.5999999968335","","","","","4","html-slider-response","1063","","","","1",""
"5707","cigar","adhabu,ndugu,kuta,mlango","adhabu","f","4","html-keyboard-response","1064","f","adhabu","true","",""
"1677.9000000096858","","","","","4","html-slider-response","1065","","","","5",""
"5024","shoe","nyeusi,hatua,uyoga,kama","uyoga","j","4","html-keyboard-response","1066","j","uyoga","true","",""
"2335.2000000299886","","","","","4","html-slider-response","1067","","","","1",""
"14330","list","wingu,alizeti,kuzama,kaso","wingu","f","5","html-keyboard-response","1069","f","wingu","true","",""
"2069.499999983236","","","","","5","html-slider-response","1070","","","","5",""
"3716","number","shule,kengele,mundamo,choori","mundamo","j","5","html-keyboard-response","1071","j","mundamo","true","",""
"1468.400000013411","","","","","5","html-slider-response","1072","","","","5",""
"4605","apple","ukame,estante,kisu,edad","kisu","j","5","html-keyboard-response","1073","j","kisu","true","",""
"1497.2000000411645","","","","","5","html-slider-response","1074","","","","5",""
"2844","knee","mvuke,kubale,duka,bili","duka","j","5","html-keyboard-response","1075","j","duka","true","",""
"2349.1999999973923","","","","","5","html-slider-response","1076","","","","5",""
"3772","tooth","kijiko,uadui,pahiyum,kabalaka","kabalaka","n","5","html-keyboard-response","1077","n","kabalaka","true","",""
"1532.2000000160187","","","","","5","html-slider-response","1078","","","","5",""
"2730","berry","abogado,nogozi,kofia,kinywa","kofia","j","5","html-keyboard-response","1079","j","kofia","true","",""
"1823.8999999593943","","","","","5","html-slider-response","1080","","","","5",""
"4505","bridge","daima,sahani,ngono,panya","sahani","v","5","html-keyboard-response","1081","f","daima","false","",""
"1523.300000000745","","","","","5","html-slider-response","1082","","","","2",""
"7802","perfume","bino,sungura,katuyoan,ndogo","katuyoan","j","5","html-keyboard-response","1083","j","katuyoan","true","",""
"2090.100000030361","","","","","5","html-slider-response","1084","","","","5",""
"7677","ladder","mashua,mwanga,kamba,pangalan","pangalan","n","5","html-keyboard-response","1085","n","pangalan","true","",""
"1545.0000000428408","","","","","5","html-slider-response","1086","","","","5",""
"3110","pants","pintal,haki,chuki,hari","haki","v","5","html-keyboard-response","1087","n","hari","false","",""
"1717.7000000383705","","","","","5","html-slider-response","1088","","","","5",""
"2804","salmon","mzungu,seri,sensilyo,baharia","sensilyo","j","5","html-keyboard-response","1089","j","sensilyo","true","",""
"1527.0000000018626","","","","","5","html-slider-response","1090","","","","5",""
"8841","coffin","kioo,barua,tubag,hulma","kioo","f","5","html-keyboard-response","1091","f","kioo","true","",""
"2831.400000024587","","","","","5","html-slider-response","1092","","","","5",""
"6540","park","tambok,pwani,bunifu,ihalas","bunifu","j","5","html-keyboard-response","1093","j","bunifu","true","",""
"1923.9999999990687","","","","","5","html-slider-response","1094","","","","4",""
"4985","giraffe","mahitabo,daraja,jumatu,hangyo","mahitabo","f","5","html-keyboard-response","1095","v","daraja","false","",""
"1503.1000000303611","","","","","5","html-slider-response","1096","","","","1",""
"5382","mirror","rangi,kanding,furaha,sulagma","sulagma","n","5","html-keyboard-response","1097","v","kanding","false","",""
"1580.19999996759","","","","","5","html-slider-response","1098","","","","2",""
"3714","ceiling","maua,kugita,kawaida,rayna","maua","f","5","html-keyboard-response","1099","j","kawaida","false","",""
"1430.8999999770895","","","","","5","html-slider-response","1100","","","","5",""
"2863","marker","mapafu,salita,atay,maji","maji","n","5","html-keyboard-response","1101","n","maji","true","",""
"1426.200000045821","","","","","5","html-slider-response","1102","","","","5",""
"8926","sock","ndoora,mamba,kimysa,mtirka","mamba","v","5","html-keyboard-response","1103","v","mamba","true","",""
"2745.600000023842","","","","","5","html-slider-response","1104","","","","5",""
"4624","cop","mechezo,bustani,jikoni,bakus","mechezo","f","5","html-keyboard-response","1105","f","mechezo","true","",""
"2996.8999999687076","","","","","5","html-slider-response","1106","","","","5",""
"4133","gift","baba,pagtawag,nyange,baso","pagtawag","v","5","html-keyboard-response","1107","v","pagtawag","true","",""
"1595.5000000540167","","","","","5","html-slider-response","1108","","","","5",""
"4409","notebook","msitu,kila,mdudu,kemia","kemia","n","5","html-keyboard-response","1109","v","kila","false","",""
"1525.800000003539","","","","","5","html-slider-response","1110","","","","1",""
"5306","bank","kudhibi,tualya,ofisi,silingan","silingan","n","5","html-keyboard-response","1111","v","tualya","false","",""
"1836.3999999715015","","","","","5","html-slider-response","1112","","","","1",""
"5030","letter","kifua,filimbi,chuma,uhuru","kifua","f","5","html-keyboard-response","1113","v","filimbi","false","",""
"1706.100000009872","","","","","5","html-slider-response","1114","","","","1",""
"3897","candle","gabi,farasi,kupanda,geza","geza","n","5","html-keyboard-response","1115","n","geza","true","",""
"1472.5000000325963","","","","","5","html-slider-response","1116","","","","5",""
"5735","bread","kaili,dizeli,bugas,dari","dari","n","5","html-keyboard-response","1117","n","dari","true","",""
"2371.7000000178814","","","","","5","html-slider-response","1118","","","","5",""
"3635","snake","jansa,karon,pagtukod,mvringo","pagtukod","j","5","html-keyboard-response","1119","j","pagtukod","true","",""
"3673.700000043027","","","","","5","html-slider-response","1120","","","","5",""
"7127","rose","singizi,paghalad,mwanake,amani","paghalad","v","5","html-keyboard-response","1121","v","paghalad","true","",""
"2023.5000000102445","","","","","5","html-slider-response","1122","","","","5",""
"3450","hill","kushoto,kukimba,sweta,matumbo","matumbo","n","5","html-keyboard-response","1123","f","kushoto","false","",""
"1667.0999999623746","","","","","5","html-slider-response","1124","","","","1",""
"8220","train","sayari,itik,dakika,mungu","sayari","f","5","html-keyboard-response","1125","j","dakika","false","",""
"1968.7000000262633","","","","","5","html-slider-response","1126","","","","1",""
"9828","shop","nopya,kerida,ndezu,samaki","samaki","n","5","html-keyboard-response","1127","n","samaki","true","",""
"1644.899999955669","","","","","5","html-slider-response","1128","","","","5",""
"5496","nose","sehemu,gubat,kopa,kidole","sehemu","f","5","html-keyboard-response","1129","j","kopa","false","",""
"1608.0000000074506","","","","","5","html-slider-response","1130","","","","5",""
"5169","boat","hamsi,pombe,agalon,kitanda","agalon","j","5","html-keyboard-response","1131","f","hamsi","false","",""
"2283.6999999713153","","","","","5","html-slider-response","1132","","","","1",""
"5966","body","nyundu,jibini,tindashan,kununa","tindashan","j","5","html-keyboard-response","1133","j","tindashan","true","",""
"1566.2999999476597","","","","","5","html-slider-response","1134","","","","5",""
"5711","bed","kalipay,haraka,starehe,mapintas","mapintas","n","5","html-keyboard-response","1135","n","mapintas","true","",""
"1485.2999999998137","","","","","5","html-slider-response","1136","","","","5",""
"3709","squirrel","mahugaw,hofu,ukweli,kichwa","hofu","v","5","html-keyboard-response","1137","v","hofu","true","",""
"1440.0000000018626","","","","","5","html-slider-response","1138","","","","5",""
"4904","window","nanga,kujenga,umaga,kweli","kweli","n","5","html-keyboard-response","1139","j","umaga","false","",""
"1525.000000023283","","","","","5","html-slider-response","1140","","","","5",""
"5200","bonfire","mwezi,goti,mfuko,kusanya","goti","v","5","html-keyboard-response","1141","v","goti","true","",""
"1487.5000000465661","","","","","5","html-slider-response","1142","","","","5",""
"3364","fish","buli,bala,baho,imani","buli","f","5","html-keyboard-response","1143","f","buli","true","",""
"3053.499999980442","","","","","5","html-slider-response","1144","","","","5",""
"3373","cat","neyemba,baki,akili,paghukom","paghukom","n","5","html-keyboard-response","1145","v","baki","false","",""
"1480.0000000400469","","","","","5","html-slider-response","1146","","","","5",""
"5888","spider","bunyag,mkboa,kamwe,atop","kamwe","j","5","html-keyboard-response","1147","n","atop","false","",""
"1663","","","","","5","html-slider-response","1148","","","","5",""
"6230","eel","ishara,kunywa,kabuang,msumari","msumari","n","5","html-keyboard-response","1149","j","kabuang","false","",""
"1585.5000000447035","","","","","5","html-slider-response","1150","","","","5",""
"4645","woman","bandari,bituin,kovuli,pagtabon","pagtabon","n","5","html-keyboard-response","1151","n","pagtabon","true","",""
"2089.6000000061467","","","","","5","html-slider-response","1152","","","","5",""
"3176","magazine","gundi,kiti,mchawi,bahandi","kiti","v","5","html-keyboard-response","1153","v","kiti","true","",""
"2974.3000000016764","","","","","5","html-slider-response","1154","","","","5",""
"4499","pudding","aibu,abug,mpishi,iring","aibu","f","5","html-keyboard-response","1155","f","aibu","true","",""
"1566.00000004936","","","","","5","html-slider-response","1156","","","","1",""
"4562","lamp","daub,afya,bilaska,mbolea","afya","v","5","html-keyboard-response","1157","f","daub","false","",""
"3485.5000000102445","","","","","5","html-slider-response","1158","","","","2",""
"11340","cave","ganti,maisha,kesho,nyundo","kesho","j","5","html-keyboard-response","1159","j","kesho","true","",""
"2714.6000000061467","","","","","5","html-slider-response","1160","","","","4",""
"6569","shoulder","kelele,ndaniya,guruwe,mkuu","mkuu","n","5","html-keyboard-response","1161","n","mkuu","true","",""
"1842.600000033155","","","","","5","html-slider-response","1162","","","","1",""
"4504","stone","wingi,ulimwengu,mkasi,asili","wingi","f","5","html-keyboard-response","1163","f","wingi","true","",""
"2831.9000000488013","","","","","5","html-slider-response","1164","","","","5",""
"4642","column","pundok,ufagio,dila,pala","ufagio","v","5","html-keyboard-response","1165","n","pala","false","",""
"1629.5000000391155","","","","","5","html-slider-response","1166","","","","1",""
"8481","page","wakala,wimbo,ishiri,skina","wimbo","v","5","html-keyboard-response","1167","n","skina","false","",""
"1505.6999999806285","","","","","5","html-slider-response","1168","","","","1",""
"5866","shoe","uyoga,nyeusi,hatua,kama","uyoga","f","5","html-keyboard-response","1169","f","uyoga","true","",""
"1669.6999999694526","","","","","5","html-slider-response","1170","","","","5",""
"3146","clock","kartasi,mbwa,abang,osha","mbwa","v","5","html-keyboard-response","1171","v","mbwa","true","",""
"1558.299999974668","","","","","5","html-slider-response","1172","","","","5",""
"3810","towel","tembo,pagpalit,funzi,pito","pagpalit","v","5","html-keyboard-response","1173","v","pagpalit","true","",""
"1470.8000000100583","","","","","5","html-slider-response","1174","","","","5",""
"3398","tomato","chupi,chupa,takatak,mvua","mvua","n","5","html-keyboard-response","1175","j","takatak","false","",""
"2044.7000000271946","","","","","5","html-slider-response","1176","","","","5",""
"8455","bucket","baga,ijayo,kiatu,init","kiatu","j","5","html-keyboard-response","1177","j","kiatu","true","",""
"2863.799999992363","","","","","5","html-slider-response","1178","","","","5",""
"7242","finger","simu,moyo,sufuria,lima","moyo","v","5","html-keyboard-response","1179","n","lima","false","",""
"1605.5000000046566","","","","","5","html-slider-response","1180","","","","1",""
"3543","mother","kahawa,mbuzi,babaye,jokofu","babaye","j","5","html-keyboard-response","1181","j","babaye","true","",""
"1448.3999999938533","","","","","5","html-slider-response","1182","","","","5",""
"9664","human","bado,kikapu,tinapay,punguza","tinapay","j","5","html-keyboard-response","1183","f","bado","false","",""
"2428.6999999899417","","","","","5","html-slider-response","1184","","","","1",""
"4097","sun","basi,bendi,luha,uongo","basi","f","5","html-keyboard-response","1185","f","basi","true","",""
"2360.7000000188127","","","","","5","html-slider-response","1186","","","","5",""
"6129","fork","mgonjwa,baboy,paghago,gorisi","mgonjwa","f","5","html-keyboard-response","1187","j","paghago","false","",""
"1799.0999999456108","","","","","5","html-slider-response","1188","","","","1",""
"16671","donkey","elfu,bloke,lalake,rombus","elfu","f","5","html-keyboard-response","1189","f","elfu","true","",""
"2092.8000000426546","","","","","5","html-slider-response","1190","","","","5",""
"5241","wolf","lugha,kaburi,ndizi,mchuzi","lugha","f","5","html-keyboard-response","1191","v","kaburi","false","",""
"2651.100000018254","","","","","5","html-slider-response","1192","","","","5",""
"4919","cigar","ndugu,kuta,adhabu,mlango","adhabu","j","5","html-keyboard-response","1193","j","adhabu","true","",""
"3395.9000000031665","","","","","5","html-slider-response","1194","","","","5",""
"10331","olive","bata,jiwe,siagi,welder","jiwe","v","5","html-keyboard-response","1195","v","jiwe","true","",""
"1575.4000000311062","","","","","5","html-slider-response","1196","","","","1",""
"5160","key","miaka,goma,chombo,ahos","chombo","j","5","html-keyboard-response","1197","j","chombo","true","",""
"1663.1000000052154","","","","","5","html-slider-response","1198","","","","5",""
"6702","door","tena,soko,surali,nyota","surali","j","5","html-keyboard-response","1199","f","tena","false","",""
"2197.000000043772","","","","","5","html-slider-response","1200","","","","1",""
"10489","wheel","punda,tawo,baadaye,bafuni","bafuni","n","5","html-keyboard-response","1201","n","bafuni","true","",""
"4026.0000000130385","","","","","5","html-slider-response","1202","","","","5",""
"15699","basket","kumbuka,utepe,hasira,kumba","kumba","n","5","html-keyboard-response","1203","n","kumba","true","",""
"3156.2000000262633","","","","","5","html-slider-response","1204","","","","2",""
"3522","elephant","petye,pagduol,kito,suka","kito","j","5","html-keyboard-response","1205","j","kito","true","",""
"1668.2999999606982","","","","","5","html-slider-response","1206","","","","5",""
"4591","office","hazini,yatima,leso,kuna","leso","j","5","html-keyboard-response","1207","j","leso","true","",""
"2467.4000000236556","","","","","5","html-slider-response","1208","","","","1",""
"4930","music","mraba,mageho,tumbo,baiski","baiski","n","5","html-keyboard-response","1209","n","baiski","true","",""
"1970.4999999953434","","","","","5","html-slider-response","1210","","","","5",""
"5241","tissue","lamigas,ugomvi,kisiwa,katika","ugomvi","v","5","html-keyboard-response","1211","v","ugomvi","true","",""
"1819.5999999875203","","","","","5","html-slider-response","1212","","","","5",""
"11237","curtain","mchanga,lisud,bulwawan,chubani","mchanga","f","5","html-keyboard-response","1213","n","chubani","false","",""
"2150.099999969825","","","","","5","html-slider-response","1214","","","","1",""
"3921","flag","ndege,mkate,trekta,kawa","trekta","j","5","html-keyboard-response","1215","j","trekta","true","",""
"1715.4999999906868","","","","","5","html-slider-response","1216","","","","5",""
"6874","dog","bahari,lubi,washia,kalamu","bahari","f","5","html-keyboard-response","1217","f","bahari","true","",""
"2342.0000000037253","","","","","5","html-slider-response","1218","","","","5",""
"5752","cup","dagat,shimoni,matumai,jeraha","matumai","j","5","html-keyboard-response","1219","j","matumai","true","",""
"2570.9999999962747","","","","","5","html-slider-response","1220","","","","5",""
"7281","sheet","juuya,watu,kamantis,bililhon","bililhon","n","5","html-keyboard-response","1221","j","kamantis","false","",""
"2449.599999993108","","","","","5","html-slider-response","1222","","","","1",""
"11674","spoon","betri,nzuri,ngazi,pagsulod","pagsulod","n","5","html-keyboard-response","1223","n","pagsulod","true","",""
"2098.8000000361353","","","","","5","html-slider-response","1224","","","","1",""
"6249","flower","tamasha,lobo,bega,usiku","bega","j","5","html-keyboard-response","1225","f","tamasha","false","",""
"1752.2999999932945","","","","","5","html-slider-response","1226","","","","1",""
"5007","picture","silya,kubwa,chaki,asin","kubwa","v","5","html-keyboard-response","1227","n","asin","false","",""
"2552.099999971688","","","","","5","html-slider-response","1228","","","","5",""
"5304","puppet","mazishi,napulo,lamok,godoro","mazishi","f","5","html-keyboard-response","1229","f","mazishi","true","",""
"2645.1000000229105","","","","","5","html-slider-response","1230","","","","5",""
"11081","banana","kasamok,kazi,hagdan,twai","kazi","v","5","html-keyboard-response","1231","v","kazi","true","",""
"2589.9000000208616","","","","","5","html-slider-response","1232","","","","5",""
"7167","book","kuhesa,mali,picha,mara","mali","v","5","html-keyboard-response","1233","v","mali","true","",""
"1718.2000000029802","","","","","5","html-slider-response","1234","","","","5",""
"6956","triangle","kihozi,bentaha,kasadpan,liog","kasadpan","j","5","html-keyboard-response","1235","j","kasadpan","true","",""
"2079.5999999968335","","","","","5","html-slider-response","1236","","","","5",""
"5561","poster","madungog,nchi,fedha,kasuko","madungog","f","5","html-keyboard-response","1237","f","madungog","true","",""
"1664.4999999552965","","","","","5","html-slider-response","1238","","","","1",""
"3779","box","kuacha,rafiki,adui,kitande","adui","j","5","html-keyboard-response","1239","j","adui","true","",""
"1682.6999999471009","","","","","5","html-slider-response","1240","","","","5",""
"5087","mosquito","isda,taras,martilyo,gutom","martilyo","j","5","html-keyboard-response","1241","j","martilyo","true","",""
"1584.999999962747","","","","","5","html-slider-response","1242","","","","5",""
"5936","shelf","bungtod,pamahaw,kadaot,awit","pamahaw","v","5","html-keyboard-response","1243","v","pamahaw","true","",""
"1830.19999996759","","","","","5","html-slider-response","1244","","","","5",""
"11596","scissors","duga,mtawa,suga,tanuri","tanuri","n","5","html-keyboard-response","1245","v","mtawa","false","",""
"1953.1999999899417","","","","","5","html-slider-response","1246","","","","1",""
"7767","hammer","napakyas,mekno,kitovu,layag","napakyas","f","5","html-keyboard-response","1247","j","kitovu","false","",""
"2537.6999999862164","","","","","5","html-slider-response","1248","","","","5",""
