"rt","en_word","options","swa_word","correct_answer","phase","trial_type","trial_index","input_answer","input_word","accuracy","certainty","amt_choices"
"2935","bonfire","mwezi,mfuko,kusanya,goti","goti","n","2","html-keyboard-response","106","f","mwezi","false","",""
"2268.399999856949","","","","","2","html-slider-response","107","","","","2",""
"2989","flower","tamasha,lobo,usiku,bega","bega","n","2","html-keyboard-response","108","n","bega","true","",""
"1403.7999999523163","","","","","2","html-slider-response","109","","","","4",""
"2412","column","pundok,ufagio,dila,pala","ufagio","v","2","html-keyboard-response","110","j","dila","false","",""
"1260","","","","","2","html-slider-response","111","","","","2",""
"2266","music","mraba,mageho,tumbo,baiski","baiski","n","2","html-keyboard-response","112","j","tumbo","false","",""
"2864.4000000953674","","","","","2","html-slider-response","113","","","","2",""
"4825","spider","bunyag,mkboa,kamwe,atop","kamwe","j","2","html-keyboard-response","114","f","bunyag","false","",""
"8842.699999809265","","","","","2","html-slider-response","115","","","","3",""
"2899","fork","baboy,paghago,gorisi,mgonjwa","mgonjwa","n","2","html-keyboard-response","116","n","mgonjwa","true","",""
"2106.0999999046326","","","","","2","html-slider-response","117","","","","2",""
"4982","mosquito","isda,martilyo,taras,gutom","martilyo","v","2","html-keyboard-response","118","n","gutom","false","",""
"1261.2000000476837","","","","","2","html-slider-response","119","","","","2",""
"2691","banana","kasamok,hagdan,twai,kazi","kazi","n","2","html-keyboard-response","120","v","hagdan","false","",""
"1093.5","","","","","2","html-slider-response","121","","","","2",""
"1859","cup","dagat,matumai,shimoni,jeraha","matumai","v","2","html-keyboard-response","122","f","dagat","false","",""
"1551.7000000476837","","","","","2","html-slider-response","123","","","","1",""
"3121","shop","nopya,samaki,kerida,ndezu","samaki","v","2","html-keyboard-response","124","j","kerida","false","",""
"1191.0999999046326","","","","","2","html-slider-response","125","","","","2",""
"2854","elephant","petye,kito,pagduol,suka","kito","v","2","html-keyboard-response","126","f","petye","false","",""
"1214","","","","","2","html-slider-response","127","","","","4",""
"2360","bucket","baga,kiatu,ijayo,init","kiatu","v","2","html-keyboard-response","128","v","kiatu","true","",""
"1126.2000000476837","","","","","2","html-slider-response","129","","","","2",""
"2049","book","mali,kuhesa,picha,mara","mali","f","2","html-keyboard-response","130","n","mara","false","",""
"1977.5999999046326","","","","","2","html-slider-response","131","","","","2",""
"2538","mirror","sulagma,rangi,kanding,furaha","sulagma","f","2","html-keyboard-response","132","j","kanding","false","",""
"1205.4000000953674","","","","","2","html-slider-response","133","","","","2",""
"2454","office","hazini,leso,yatima,kuna","leso","v","2","html-keyboard-response","134","f","hazini","false","",""
"1246.1000001430511","","","","","2","html-slider-response","135","","","","2",""
"1879","body","tindashan,nyundu,jibini,kununa","tindashan","f","2","html-keyboard-response","136","j","jibini","false","",""
"2256.2999999523163","","","","","2","html-slider-response","137","","","","3",""
"1994","perfume","bino,sungura,katuyoan,ndogo","katuyoan","j","2","html-keyboard-response","138","v","sungura","false","",""
"1222.4000000953674","","","","","2","html-slider-response","139","","","","2",""
"2278","olive","bata,siagi,jiwe,welder","jiwe","j","2","html-keyboard-response","140","j","jiwe","true","",""
"1878.0999999046326","","","","","2","html-slider-response","141","","","","4",""
"3391","magazine","kiti,gundi,mchawi,bahandi","kiti","f","2","html-keyboard-response","142","j","mchawi","false","",""
"1012","","","","","2","html-slider-response","143","","","","2",""
"1550","bread","dari,kaili,dizeli,bugas","dari","f","2","html-keyboard-response","144","f","dari","true","",""
"1428.3999998569489","","","","","2","html-slider-response","145","","","","4",""
"3113","cave","kesho,ganti,maisha,nyundo","kesho","f","2","html-keyboard-response","146","j","maisha","false","",""
"945","","","","","2","html-slider-response","147","","","","2",""
"2455","ladder","mashua,mwanga,kamba,pangalan","pangalan","n","2","html-keyboard-response","148","v","mwanga","false","",""
"1638.5","","","","","2","html-slider-response","149","","","","4",""
"1617","human","bado,tinapay,kikapu,punguza","tinapay","v","2","html-keyboard-response","150","v","tinapay","true","",""
"1183.4000000953674","","","","","2","html-slider-response","151","","","","4",""
"1255","clock","kartasi,abang,mbwa,osha","mbwa","j","2","html-keyboard-response","152","f","kartasi","false","",""
"944.0999999046326","","","","","2","html-slider-response","153","","","","2",""
"2038","shelf","bungtod,kadaot,awit,pamahaw","pamahaw","n","2","html-keyboard-response","154","v","kadaot","false","",""
"1452","","","","","2","html-slider-response","155","","","","2",""
"1849","salmon","sensilyo,mzungu,seri,baharia","sensilyo","f","2","html-keyboard-response","156","j","seri","false","",""
"1681.2000000476837","","","","","2","html-slider-response","157","","","","4",""
"2142","coffin","barua,tubag,kioo,hulma","kioo","j","2","html-keyboard-response","158","f","barua","false","",""
"1147.1000001430511","","","","","2","html-slider-response","159","","","","2",""
"1304","notebook","msitu,kila,kemia,mdudu","kemia","j","2","html-keyboard-response","160","f","msitu","false","",""
"1004.2999999523163","","","","","2","html-slider-response","161","","","","4",""
"2599","shoulder","mkuu,kelele,ndaniya,guruwe","mkuu","f","2","html-keyboard-response","162","v","kelele","false","",""
"982","","","","","2","html-slider-response","163","","","","2",""
"1689","park","tambok,pwani,bunifu,ihalas","bunifu","j","2","html-keyboard-response","164","n","ihalas","false","",""
"1574","","","","","2","html-slider-response","165","","","","2",""
"2672","number","shule,mundamo,kengele,choori","mundamo","v","2","html-keyboard-response","166","v","mundamo","true","",""
"933.9000000953674","","","","","2","html-slider-response","167","","","","4",""
"1838","apple","ukame,estante,kisu,edad","kisu","j","2","html-keyboard-response","168","f","ukame","false","",""
"959.7000000476837","","","","","2","html-slider-response","169","","","","4",""
"1993","letter","filimbi,chuma,kifua,uhuru","kifua","j","2","html-keyboard-response","170","v","chuma","false","",""
"1128.5999999046326","","","","","2","html-slider-response","171","","","","2",""
"3575","eel","ishara,kunywa,kabuang,msumari","msumari","n","2","html-keyboard-response","172","f","ishara","false","",""
"831.1999998092651","","","","","2","html-slider-response","173","","","","4",""
"1721","cop","bustani,jikoni,mechezo,bakus","mechezo","j","2","html-keyboard-response","174","v","jikoni","false","",""
"982.8999998569489","","","","","2","html-slider-response","175","","","","2",""
"2669","wolf","kaburi,lugha,ndizi,mchuzi","lugha","v","2","html-keyboard-response","176","v","lugha","true","",""
"981.2999999523163","","","","","2","html-slider-response","177","","","","1",""
"1749","squirrel","mahugaw,ukweli,hofu,kichwa","hofu","j","2","html-keyboard-response","178","f","mahugaw","false","",""
"930.7999999523163","","","","","2","html-slider-response","179","","","","4",""
"2778","nose","gubat,sehemu,kopa,kidole","sehemu","v","2","html-keyboard-response","180","j","kopa","false","",""
"1124.3000001907349","","","","","2","html-slider-response","181","","","","2",""
"2029","sock","mamba,ndoora,kimysa,mtirka","mamba","f","2","html-keyboard-response","182","n","mtirka","false","",""
"1602.0999999046326","","","","","2","html-slider-response","183","","","","4",""
"1876","bank","silingan,kudhibi,tualya,ofisi","silingan","f","2","html-keyboard-response","184","v","kudhibi","false","",""
"887.1000001430511","","","","","2","html-slider-response","185","","","","2",""
"2437","donkey","bloke,lalake,rombus,elfu","elfu","n","2","html-keyboard-response","186","n","elfu","true","",""
"1023.8999998569489","","","","","2","html-slider-response","187","","","","4",""
"5850","poster","nchi,fedha,kasuko,madungog","madungog","n","2","html-keyboard-response","188","n","madungog","true","",""
"1186.3999998569489","","","","","2","html-slider-response","189","","","","5",""
"1498","puppet","napulo,lamok,mazishi,godoro","mazishi","j","2","html-keyboard-response","190","f","napulo","false","",""
"930.3999998569489","","","","","2","html-slider-response","191","","","","2",""
"1031","hill","kushoto,kukimba,sweta,matumbo","matumbo","n","2","html-keyboard-response","192","f","kushoto","false","",""
"1399.9000000953674","","","","","2","html-slider-response","193","","","","4",""
"2409","tooth","kijiko,uadui,kabalaka,pahiyum","kabalaka","j","2","html-keyboard-response","194","j","kabalaka","true","",""
"988.3999998569489","","","","","2","html-slider-response","195","","","","5",""
"1302","woman","pagtabon,bandari,bituin,kovuli","pagtabon","f","2","html-keyboard-response","196","f","pagtabon","true","",""
"1977.5","","","","","2","html-slider-response","197","","","","4",""
"1088","wheel","punda,bafuni,tawo,baadaye","bafuni","v","2","html-keyboard-response","198","f","punda","false","",""
"937.2000000476837","","","","","2","html-slider-response","199","","","","4",""
"2336","mother","kahawa,babaye,mbuzi,jokofu","babaye","v","2","html-keyboard-response","200","v","babaye","true","",""
"1013.7000000476837","","","","","2","html-slider-response","201","","","","2",""
"3425","bed","mapintas,kalipay,haraka,starehe","mapintas","f","2","html-keyboard-response","202","v","kalipay","false","",""
"777.3000001907349","","","","","2","html-slider-response","203","","","","4",""
"2368","key","miaka,chombo,goma,ahos","chombo","v","2","html-keyboard-response","204","j","goma","false","",""
"935.5999999046326","","","","","2","html-slider-response","205","","","","2",""
"2739","page","wakala,ishiri,skina,wimbo","wimbo","n","2","html-keyboard-response","206","v","ishiri","false","",""
"889.3000001907349","","","","","2","html-slider-response","207","","","","4",""
"6047","pants","pintal,haki,chuki,hari","haki","v","2","html-keyboard-response","208","f","pintal","false","",""
"1270.4000000953674","","","","","2","html-slider-response","209","","","","4",""
"2040","sun","bendi,basi,luha,uongo","basi","v","2","html-keyboard-response","210","v","basi","true","",""
"1304.4000000953674","","","","","2","html-slider-response","211","","","","2",""
"3618","finger","moyo,simu,sufuria,lima","moyo","f","2","html-keyboard-response","212","f","moyo","true","",""
"916.7999999523163","","","","","2","html-slider-response","213","","","","4",""
"3493","shoe","nyeusi,uyoga,hatua,kama","uyoga","v","2","html-keyboard-response","214","n","kama","false","",""
"1734.6000001430511","","","","","2","html-slider-response","215","","","","2",""
"1959","giraffe","daraja,jumatu,hangyo,mahitabo","mahitabo","n","2","html-keyboard-response","216","f","daraja","false","",""
"875.8999998569489","","","","","2","html-slider-response","217","","","","4",""
"2088","dog","lubi,bahari,washia,kalamu","bahari","v","2","html-keyboard-response","218","v","bahari","true","",""
"826.5","","","","","2","html-slider-response","219","","","","4",""
"1860","box","kuacha,rafiki,kitande,adui","adui","n","2","html-keyboard-response","220","v","rafiki","false","",""
"973.4000000953674","","","","","2","html-slider-response","221","","","","2",""
"1777","scissors","duga,tanuri,mtawa,suga","tanuri","v","2","html-keyboard-response","222","j","mtawa","false","",""
"843.8000001907349","","","","","2","html-slider-response","223","","","","4",""
"2836","cat","neyemba,baki,paghukom,akili","paghukom","j","2","html-keyboard-response","224","f","neyemba","false","",""
"969.5","","","","","2","html-slider-response","225","","","","4",""
"1869","basket","kumba,kumbuka,utepe,hasira","kumba","f","2","html-keyboard-response","226","j","utepe","false","",""
"846.5999999046326","","","","","2","html-slider-response","227","","","","2",""
"1735","snake","pagtukod,jansa,karon,mvringo","pagtukod","f","2","html-keyboard-response","228","j","karon","false","",""
"808.2999999523163","","","","","2","html-slider-response","229","","","","4",""
"1522","gift","baba,nyange,baso,pagtawag","pagtawag","n","2","html-keyboard-response","230","f","baba","false","",""
"890.4000000953674","","","","","2","html-slider-response","231","","","","4",""
"1726","train","itik,dakika,sayari,mungu","sayari","j","2","html-keyboard-response","232","j","sayari","true","",""
"779.5","","","","","2","html-slider-response","233","","","","2",""
"2917","pudding","abug,mpishi,iring,aibu","aibu","n","2","html-keyboard-response","234","n","aibu","true","",""
"798.5","","","","","2","html-slider-response","235","","","","4",""
"1795","tomato","chupi,mvua,chupa,takatak","mvua","v","2","html-keyboard-response","236","j","chupa","false","",""
"867.5","","","","","2","html-slider-response","237","","","","4",""
"1278","stone","ulimwengu,mkasi,asili,wingi","wingi","n","2","html-keyboard-response","238","v","mkasi","false","",""
"859.3000001907349","","","","","2","html-slider-response","239","","","","2",""
"2613","hammer","napakyas,mekno,kitovu,layag","napakyas","f","2","html-keyboard-response","240","n","layag","false","",""
"785.7999999523163","","","","","2","html-slider-response","241","","","","4",""
"1072","knee","mvuke,duka,kubale,bili","duka","v","2","html-keyboard-response","242","v","duka","true","",""
"813.8000001907349","","","","","2","html-slider-response","243","","","","4",""
"956","ceiling","maua,kugita,kawaida,rayna","maua","f","2","html-keyboard-response","244","v","kugita","false","",""
"847.5","","","","","2","html-slider-response","245","","","","4",""
"1097","spoon","betri,nzuri,ngazi,pagsulod","pagsulod","n","2","html-keyboard-response","246","f","betri","false","",""
"765.5","","","","","2","html-slider-response","247","","","","4",""
"2638","marker","mapafu,maji,salita,atay","maji","v","2","html-keyboard-response","248","n","atay","false","",""
"1648.1000001430511","","","","","2","html-slider-response","249","","","","2",""
"1458","candle","gabi,geza,farasi,kupanda","geza","v","2","html-keyboard-response","250","v","geza","true","",""
"873.7000000476837","","","","","2","html-slider-response","251","","","","4",""
"1282","tissue","lamigas,kisiwa,katika,ugomvi","ugomvi","n","2","html-keyboard-response","252","v","kisiwa","false","",""
"772.7000000476837","","","","","2","html-slider-response","253","","","","4",""
"2633","bridge","daima,ngono,panya,sahani","sahani","n","2","html-keyboard-response","254","j","panya","false","",""
"973.6000001430511","","","","","2","html-slider-response","255","","","","2",""
"2116","berry","kofia,abogado,nogozi,kinywa","kofia","f","2","html-keyboard-response","256","j","nogozi","false","",""
"867.0999999046326","","","","","2","html-slider-response","257","","","","4",""
"1738","triangle","kihozi,bentaha,liog,kasadpan","kasadpan","n","2","html-keyboard-response","258","f","kihozi","false","",""
"892","","","","","2","html-slider-response","259","","","","2",""
"2181","door","tena,soko,surali,nyota","surali","j","2","html-keyboard-response","260","n","nyota","false","",""
"873","","","","","2","html-slider-response","261","","","","2",""
"1061","fish","bala,buli,baho,imani","buli","v","2","html-keyboard-response","262","f","bala","false","",""
"751.7000000476837","","","","","2","html-slider-response","263","","","","4",""
"1559","curtain","lisud,mchanga,bulwawan,chubani","mchanga","v","2","html-keyboard-response","264","f","lisud","false","",""
"846","","","","","2","html-slider-response","265","","","","2",""
"1638","flag","ndege,trekta,mkate,kawa","trekta","v","2","html-keyboard-response","266","j","mkate","false","",""
"783.2999999523163","","","","","2","html-slider-response","267","","","","4",""
"1224","boat","agalon,hamsi,pombe,kitanda","agalon","f","2","html-keyboard-response","268","v","hamsi","false","",""
"1142.7000000476837","","","","","2","html-slider-response","269","","","","2",""
"1538","rose","singizi,paghalad,mwanake,amani","paghalad","v","2","html-keyboard-response","270","n","amani","false","",""
"831.0999999046326","","","","","2","html-slider-response","271","","","","2",""
"1274","lamp","daub,bilaska,mbolea,afya","afya","n","2","html-keyboard-response","272","f","daub","false","",""
"852.5","","","","","2","html-slider-response","273","","","","4",""
"2170","cigar","adhabu,ndugu,kuta,mlango","adhabu","f","2","html-keyboard-response","274","n","mlango","false","",""
"811.6999998092651","","","","","2","html-slider-response","275","","","","4",""
"1561","list","alizeti,wingu,kuzama,kaso","wingu","v","2","html-keyboard-response","276","v","wingu","true","",""
"811.5","","","","","2","html-slider-response","277","","","","4",""
"2719","sheet","juuya,watu,bililhon,kamantis","bililhon","j","2","html-keyboard-response","278","n","kamantis","false","",""
"1438","","","","","2","html-slider-response","279","","","","2",""
"1244","picture","kubwa,silya,chaki,asin","kubwa","f","2","html-keyboard-response","280","v","silya","false","",""
"859.3000001907349","","","","","2","html-slider-response","281","","","","2",""
"1214","towel","tembo,funzi,pito,pagpalit","pagpalit","n","2","html-keyboard-response","282","f","tembo","false","",""
"758.3999998569489","","","","","2","html-slider-response","283","","","","4",""
"1458","window","kweli,nanga,kujenga,umaga","kweli","f","2","html-keyboard-response","284","v","nanga","false","",""
"798.8999998569489","","","","","2","html-slider-response","285","","","","4",""
"2480","box","adui,kuacha,rafiki,kitande","adui","f","3","html-keyboard-response","293","j","rafiki","false","","4"
"1928.1000001430511","","","","","3","html-slider-response","294","","","","2",""
"2637","","","","","3","html-keyboard-response","295","","","","",""
"3338","pants","pintal,haki,chuki,hari","haki","v","3","html-keyboard-response","296","v","haki","true","","4"
"1785.3999998569489","","","","","3","html-slider-response","297","","","","2",""
"1558","","","","","3","html-keyboard-response","298","","","","",""
"2269","cup","dagat,shimoni,matumai,jeraha","matumai","j","3","html-keyboard-response","299","j","matumai","true","","4"
"1203.2000000476837","","","","","3","html-slider-response","300","","","","2",""
"890","","","","","3","html-keyboard-response","301","","","","",""
"2045","triangle","kasadpan,kihozi,bentaha,liog","kasadpan","f","3","html-keyboard-response","302","v","kihozi","false","","4"
"1150.5999999046326","","","","","3","html-slider-response","303","","","","2",""
"868","","","","","3","html-keyboard-response","304","","","","",""
"1527","curtain","lisud,bulwawan,chubani,mchanga","mchanga","n","3","html-keyboard-response","305","f","lisud","false","","4"
"1545.4000000953674","","","","","3","html-slider-response","306","","","","2",""
"485","","","","","3","html-keyboard-response","307","","","","",""
"3640","clock","kartasi,abang,mbwa,osha","mbwa","j","3","html-keyboard-response","308","v","abang","false","","4"
"1489.9000000953674","","","","","3","html-slider-response","309","","","","2",""
"769","","","","","3","html-keyboard-response","310","","","","",""
"3045","mirror","sulagma,rangi,kanding,furaha","sulagma","f","3","html-keyboard-response","311","n","furaha","false","","4"
"1039","","","","","3","html-slider-response","312","","","","2",""
"738","","","","","3","html-keyboard-response","313","","","","",""
"1389","coffin","barua,tubag,hulma,kioo","kioo","n","3","html-keyboard-response","314","n","kioo","true","","1"
"1392","","","","","3","html-slider-response","315","","","","4",""
"747","","","","","3","html-keyboard-response","316","","","","",""
"2823","magazine","gundi,kiti,mchawi,bahandi","kiti","v","3","html-keyboard-response","317","n","bahandi","false","","4"
"1065.1000001430511","","","","","3","html-slider-response","318","","","","2",""
"527","","","","","3","html-keyboard-response","319","","","","",""
"1134","column","ufagio,pundok,dila,pala","ufagio","f","3","html-keyboard-response","320","f","ufagio","true","","1"
"1104.5","","","","","3","html-slider-response","321","","","","4",""
"646","","","","","3","html-keyboard-response","322","","","","",""
"1977","number","mundamo,shule,kengele,choori","mundamo","f","3","html-keyboard-response","323","f","mundamo","true","","4"
"1657.5","","","","","3","html-slider-response","324","","","","2",""
"707","","","","","3","html-keyboard-response","325","","","","",""
"1712","rose","singizi,mwanake,paghalad,amani","paghalad","j","3","html-keyboard-response","326","v","mwanake","false","","4"
"907.2999999523163","","","","","3","html-slider-response","327","","","","4",""
"512","","","","","3","html-keyboard-response","328","","","","",""
"2604","eel","ishara,kunywa,msumari,kabuang","msumari","j","3","html-keyboard-response","329","f","ishara","false","","4"
"1127.7000000476837","","","","","3","html-slider-response","330","","","","2",""
"674","","","","","3","html-keyboard-response","331","","","","",""
"2970","gift","baba,nyange,pagtawag,baso","pagtawag","j","3","html-keyboard-response","332","n","baso","false","","4"
"1140.4000000953674","","","","","3","html-slider-response","333","","","","2",""
"469","","","","","3","html-keyboard-response","334","","","","",""
"964","apple","ukame,estante,kisu,edad","kisu","j","3","html-keyboard-response","335","j","kisu","true","","1"
"1220.5","","","","","3","html-slider-response","336","","","","5",""
"443","","","","","3","html-keyboard-response","337","","","","",""
"999","wheel","punda,bafuni,tawo,baadaye","bafuni","v","3","html-keyboard-response","338","v","bafuni","true","","1"
"1032.8999998569489","","","","","3","html-slider-response","339","","","","5",""
"453","","","","","3","html-keyboard-response","340","","","","",""
"1272","knee","mvuke,kubale,duka,bili","duka","j","3","html-keyboard-response","341","f","mvuke","false","","4"
"1278.0999999046326","","","","","3","html-slider-response","342","","","","2",""
"490","","","","","3","html-keyboard-response","343","","","","",""
"851","basket","kumbuka,kumba,utepe,hasira","kumba","v","3","html-keyboard-response","344","v","kumba","true","","1"
"1125","","","","","3","html-slider-response","345","","","","5",""
"520","","","","","3","html-keyboard-response","346","","","","",""
"1965","park","tambok,pwani,ihalas,bunifu","bunifu","n","3","html-keyboard-response","347","j","ihalas","false","","4"
"1044.0999999046326","","","","","3","html-slider-response","348","","","","2",""
"444","","","","","3","html-keyboard-response","349","","","","",""
"1393","finger","simu,moyo,sufuria,lima","moyo","v","3","html-keyboard-response","350","n","lima","false","","4"
"1131.0999999046326","","","","","3","html-slider-response","351","","","","4",""
"545","","","","","3","html-keyboard-response","352","","","","",""
"1132","boat","hamsi,pombe,kitanda,agalon","agalon","n","3","html-keyboard-response","353","v","pombe","false","","4"
"961.6999998092651","","","","","3","html-slider-response","354","","","","2",""
"482","","","","","3","html-keyboard-response","355","","","","",""
"839","hill","kushoto,matumbo,kukimba,sweta","matumbo","v","3","html-keyboard-response","356","v","matumbo","true","","4"
"803","","","","","3","html-slider-response","357","","","","4",""
"321","","","","","3","html-keyboard-response","358","","","","",""
"1864","train","itik,dakika,sayari,mungu","sayari","j","3","html-keyboard-response","359","f","itik","false","","4"
"902.5999999046326","","","","","3","html-slider-response","360","","","","2",""
"455","","","","","3","html-keyboard-response","361","","","","",""
"767","wolf","kaburi,ndizi,mchuzi,lugha","lugha","n","3","html-keyboard-response","362","v","ndizi","false","","4"
"791.3000001907349","","","","","3","html-slider-response","363","","","","4",""
"571","","","","","3","html-keyboard-response","364","","","","",""
"2339","snake","jansa,karon,pagtukod,mvringo","pagtukod","j","3","html-keyboard-response","365","j","pagtukod","true","","4"
"1015","","","","","3","html-slider-response","366","","","","2",""
"690","","","","","3","html-keyboard-response","367","","","","",""
"2068","tooth","kijiko,uadui,kabalaka,pahiyum","kabalaka","j","3","html-keyboard-response","368","j","kabalaka","true","","4"
"921.4000000953674","","","","","3","html-slider-response","369","","","","5",""
"541","","","","","3","html-keyboard-response","370","","","","",""
"1905","notebook","msitu,kemia,kila,mdudu","kemia","v","3","html-keyboard-response","371","f","msitu","false","","4"
"886.2999999523163","","","","","3","html-slider-response","372","","","","2",""
"495","","","","","3","html-keyboard-response","373","","","","",""
"2821","flag","ndege,mkate,trekta,kawa","trekta","j","3","html-keyboard-response","374","n","kawa","false","","4"
"862.7999999523163","","","","","3","html-slider-response","375","","","","4",""
"543","","","","","3","html-keyboard-response","376","","","","",""
"1533","squirrel","mahugaw,ukweli,hofu,kichwa","hofu","j","3","html-keyboard-response","377","f","mahugaw","false","","4"
"963.2999999523163","","","","","3","html-slider-response","378","","","","2",""
"500","","","","","3","html-keyboard-response","379","","","","",""
"2235","door","surali,tena,soko,nyota","surali","f","3","html-keyboard-response","380","j","soko","false","","4"
"812","","","","","3","html-slider-response","381","","","","2",""
"401","","","","","3","html-keyboard-response","382","","","","",""
"2738","salmon","mzungu,seri,baharia,sensilyo","sensilyo","n","3","html-keyboard-response","383","n","sensilyo","true","","4"
"762.8000001907349","","","","","3","html-slider-response","384","","","","4",""
"598","","","","","3","html-keyboard-response","385","","","","",""
"1803","shoulder","mkuu,kelele,ndaniya,guruwe","mkuu","f","3","html-keyboard-response","386","v","kelele","false","","4"
"998.5999999046326","","","","","3","html-slider-response","387","","","","2",""
"394","","","","","3","html-keyboard-response","388","","","","",""
"2082","lamp","afya,daub,bilaska,mbolea","afya","f","3","html-keyboard-response","389","f","afya","true","","4"
"889.2999999523163","","","","","3","html-slider-response","390","","","","2",""
"482","","","","","3","html-keyboard-response","391","","","","",""
"1225","shelf","bungtod,kadaot,awit,pamahaw","pamahaw","n","3","html-keyboard-response","392","n","pamahaw","true","","1"
"1142.9000000953674","","","","","3","html-slider-response","393","","","","5",""
"498","","","","","3","html-keyboard-response","394","","","","",""
"1134","human","bado,kikapu,tinapay,punguza","tinapay","j","3","html-keyboard-response","395","f","bado","false","","4"
"1792.7999999523163","","","","","3","html-slider-response","396","","","","2",""
"415","","","","","3","html-keyboard-response","397","","","","",""
"1051","towel","pagpalit,tembo,funzi,pito","pagpalit","f","3","html-keyboard-response","398","f","pagpalit","true","","4"
"928.5","","","","","3","html-slider-response","399","","","","2",""
"465","","","","","3","html-keyboard-response","400","","","","",""
"1739","cat","neyemba,baki,akili,paghukom","paghukom","n","3","html-keyboard-response","401","v","baki","false","","4"
"774.7999999523163","","","","","3","html-slider-response","402","","","","4",""
"401","","","","","3","html-keyboard-response","403","","","","",""
"1414","spider","bunyag,mkboa,kamwe,atop","kamwe","j","3","html-keyboard-response","404","n","atop","false","","4"
"813.1000001430511","","","","","3","html-slider-response","405","","","","2",""
"409","","","","","3","html-keyboard-response","406","","","","",""
"875","window","nanga,kujenga,kweli,umaga","kweli","j","3","html-keyboard-response","407","f","nanga","false","","4"
"841.0999999046326","","","","","3","html-slider-response","408","","","","2",""
"366","","","","","3","html-keyboard-response","409","","","","",""
"829","woman","bandari,pagtabon,bituin,kovuli","pagtabon","v","3","html-keyboard-response","410","v","pagtabon","true","","1"
"884.3000001907349","","","","","3","html-slider-response","411","","","","5",""
"355","","","","","3","html-keyboard-response","412","","","","",""
"1757","giraffe","daraja,jumatu,mahitabo,hangyo","mahitabo","j","3","html-keyboard-response","413","v","jumatu","false","","4"
"805.2000000476837","","","","","3","html-slider-response","414","","","","2",""
"396","","","","","3","html-keyboard-response","415","","","","",""
"2267","elephant","petye,kito,pagduol,suka","kito","v","3","html-keyboard-response","416","j","pagduol","false","","4"
"826.2999999523163","","","","","3","html-slider-response","417","","","","2",""
"412","","","","","3","html-keyboard-response","418","","","","",""
"1930","cave","ganti,maisha,nyundo,kesho","kesho","n","3","html-keyboard-response","419","v","maisha","false","","4"
"993.0999999046326","","","","","3","html-slider-response","420","","","","4",""
"521","","","","","3","html-keyboard-response","421","","","","",""
"2047","bread","kaili,dizeli,bugas,dari","dari","n","3","html-keyboard-response","422","n","dari","true","","4"
"1331.1999998092651","","","","","3","html-slider-response","423","","","","5",""
"519","","","","","3","html-keyboard-response","424","","","","",""
"2300","stone","ulimwengu,mkasi,wingi,asili","wingi","j","3","html-keyboard-response","425","n","asili","false","","4"
"803.4000000953674","","","","","3","html-slider-response","426","","","","2",""
"502","","","","","3","html-keyboard-response","427","","","","",""
"912","donkey","bloke,elfu,lalake,rombus","elfu","v","3","html-keyboard-response","428","v","elfu","true","","4"
"927.2999999523163","","","","","3","html-slider-response","429","","","","4",""
"607","","","","","3","html-keyboard-response","430","","","","",""
"2444","bridge","daima,sahani,ngono,panya","sahani","v","3","html-keyboard-response","431","n","panya","false","","4"
"755.9000000953674","","","","","3","html-slider-response","432","","","","2",""
"375","","","","","3","html-keyboard-response","433","","","","",""
"892","bonfire","goti,mwezi,mfuko,kusanya","goti","f","3","html-keyboard-response","434","v","mwezi","false","","4"
"868.8000001907349","","","","","3","html-slider-response","435","","","","4",""
"419","","","","","3","html-keyboard-response","436","","","","",""
"2692","book","kuhesa,mali,picha,mara","mali","v","3","html-keyboard-response","437","v","mali","true","","4"
"791.2000000476837","","","","","3","html-slider-response","438","","","","4",""
"427","","","","","3","html-keyboard-response","439","","","","",""
"2819","fish","bala,baho,buli,imani","buli","j","3","html-keyboard-response","440","j","buli","true","","4"
"978.7999999523163","","","","","3","html-slider-response","441","","","","2",""
"429","","","","","3","html-keyboard-response","442","","","","",""
"3521","spoon","betri,nzuri,ngazi,pagsulod","pagsulod","n","3","html-keyboard-response","443","f","betri","false","","4"
"755.6000001430511","","","","","3","html-slider-response","444","","","","4",""
"415","","","","","3","html-keyboard-response","445","","","","",""
"1608","scissors","duga,mtawa,suga,tanuri","tanuri","n","3","html-keyboard-response","446","v","mtawa","false","","4"
"940.4000000953674","","","","","3","html-slider-response","447","","","","2",""
"410","","","","","3","html-keyboard-response","448","","","","",""
"6031","page","wakala,wimbo,ishiri,skina","wimbo","v","3","html-keyboard-response","449","j","ishiri","false","","4"
"1551.4000000953674","","","","","3","html-slider-response","450","","","","2",""
"622","","","","","3","html-keyboard-response","451","","","","",""
"1277","nose","gubat,kopa,kidole,sehemu","sehemu","n","3","html-keyboard-response","452","n","sehemu","true","","1"
"874.2000000476837","","","","","3","html-slider-response","453","","","","5",""
"504","","","","","3","html-keyboard-response","454","","","","",""
"2408","ceiling","kugita,kawaida,maua,rayna","maua","j","3","html-keyboard-response","455","v","kawaida","false","","4"
"861.3000001907349","","","","","3","html-slider-response","456","","","","2",""
"394","","","","","3","html-keyboard-response","457","","","","",""
"1870","bucket","baga,ijayo,kiatu,init","kiatu","j","3","html-keyboard-response","458","n","init","false","","4"
"808.5","","","","","3","html-slider-response","459","","","","2",""
"428","","","","","3","html-keyboard-response","460","","","","",""
"1396","berry","abogado,nogozi,kofia,kinywa","kofia","j","3","html-keyboard-response","461","j","kofia","true","","1"
"1091.5","","","","","3","html-slider-response","462","","","","5",""
"406","","","","","3","html-keyboard-response","463","","","","",""
"1028","mother","babaye,kahawa,mbuzi,jokofu","babaye","f","3","html-keyboard-response","464","f","babaye","true","","1"
"1065.5","","","","","3","html-slider-response","465","","","","5",""
"378","","","","","3","html-keyboard-response","466","","","","",""
"1916","mosquito","isda,martilyo,taras,gutom","martilyo","v","3","html-keyboard-response","467","v","martilyo","true","","4"
"935.5","","","","","3","html-slider-response","468","","","","2",""
"933","","","","","3","html-keyboard-response","469","","","","",""
"2448","perfume","bino,sungura,ndogo,katuyoan","katuyoan","n","3","html-keyboard-response","470","n","katuyoan","true","","4"
"1128.3000001907349","","","","","3","html-slider-response","471","","","","2",""
"449","","","","","3","html-keyboard-response","472","","","","",""
"2686","sheet","bililhon,juuya,watu,kamantis","bililhon","f","3","html-keyboard-response","473","n","kamantis","false","","4"
"837.7999999523163","","","","","3","html-slider-response","474","","","","2",""
"371","","","","","3","html-keyboard-response","475","","","","",""
"1471","puppet","napulo,lamok,mazishi,godoro","mazishi","j","3","html-keyboard-response","476","j","mazishi","true","","1"
"973","","","","","3","html-slider-response","477","","","","5",""
"304","","","","","3","html-keyboard-response","478","","","","",""
"2333","poster","madungog,nchi,fedha,kasuko","madungog","f","3","html-keyboard-response","479","f","madungog","true","","4"
"928.2999999523163","","","","","3","html-slider-response","480","","","","5",""
"410","","","","","3","html-keyboard-response","481","","","","",""
"2676","music","mraba,mageho,tumbo,baiski","baiski","n","3","html-keyboard-response","482","v","mageho","false","","4"
"1767.5999999046326","","","","","3","html-slider-response","483","","","","2",""
"731","","","","","3","html-keyboard-response","484","","","","",""
"3129","key","miaka,chombo,goma,ahos","chombo","v","3","html-keyboard-response","485","f","miaka","false","","4"
"1671.4000000953674","","","","","3","html-slider-response","486","","","","2",""
"544","","","","","3","html-keyboard-response","487","","","","",""
"3309","sock","ndoora,mamba,kimysa,mtirka","mamba","v","3","html-keyboard-response","488","j","kimysa","false","","4"
"863.5999999046326","","","","","3","html-slider-response","489","","","","5",""
"413","","","","","3","html-keyboard-response","490","","","","",""
"1765","marker","maji,mapafu,salita,atay","maji","f","3","html-keyboard-response","491","f","maji","true","","4"
"823.4000000953674","","","","","3","html-slider-response","492","","","","2",""
"433","","","","","3","html-keyboard-response","493","","","","",""
"2775","office","hazini,leso,yatima,kuna","leso","v","3","html-keyboard-response","494","f","hazini","false","","4"
"836.7999999523163","","","","","3","html-slider-response","495","","","","2",""
"391","","","","","3","html-keyboard-response","496","","","","",""
"2488","shoe","nyeusi,hatua,uyoga,kama","uyoga","j","3","html-keyboard-response","497","n","kama","false","","4"
"804.5","","","","","3","html-slider-response","498","","","","2",""
"397","","","","","3","html-keyboard-response","499","","","","",""
"1649","cop","bustani,jikoni,bakus,mechezo","mechezo","n","3","html-keyboard-response","500","v","jikoni","false","","4"
"825.9000000953674","","","","","3","html-slider-response","501","","","","4",""
"501","","","","","3","html-keyboard-response","502","","","","",""
"2514","bank","kudhibi,tualya,silingan,ofisi","silingan","j","3","html-keyboard-response","503","j","silingan","true","","4"
"775.7000000476837","","","","","3","html-slider-response","504","","","","2",""
"447","","","","","3","html-keyboard-response","505","","","","",""
"909","letter","kifua,filimbi,chuma,uhuru","kifua","f","3","html-keyboard-response","506","f","kifua","true","","1"
"879.4000000953674","","","","","3","html-slider-response","507","","","","5",""
"352","","","","","3","html-keyboard-response","508","","","","",""
"942","dog","lubi,washia,kalamu,bahari","bahari","n","3","html-keyboard-response","509","n","bahari","true","","1"
"839.2000000476837","","","","","3","html-slider-response","510","","","","5",""
"579","","","","","3","html-keyboard-response","511","","","","",""
"1911","shop","nopya,samaki,kerida,ndezu","samaki","v","3","html-keyboard-response","512","v","samaki","true","","4"
"878.5999999046326","","","","","3","html-slider-response","513","","","","2",""
"386","","","","","3","html-keyboard-response","514","","","","",""
"1970","flower","bega,tamasha,lobo,usiku","bega","f","3","html-keyboard-response","515","f","bega","true","","4"
"818.8999998569489","","","","","3","html-slider-response","516","","","","4",""
"452","","","","","3","html-keyboard-response","517","","","","",""
"1216","cigar","ndugu,kuta,adhabu,mlango","adhabu","j","3","html-keyboard-response","518","j","adhabu","true","","1"
"924.9000000953674","","","","","3","html-slider-response","519","","","","5",""
"371","","","","","3","html-keyboard-response","520","","","","",""
"2686","hammer","mekno,napakyas,kitovu,layag","napakyas","v","3","html-keyboard-response","521","f","mekno","false","","4"
"877.5","","","","","3","html-slider-response","522","","","","2",""
"365","","","","","3","html-keyboard-response","523","","","","",""
"2326","fork","mgonjwa,baboy,paghago,gorisi","mgonjwa","f","3","html-keyboard-response","524","f","mgonjwa","true","","4"
"908.9000000953674","","","","","3","html-slider-response","525","","","","4",""
"482","","","","","3","html-keyboard-response","526","","","","",""
"1025","sun","bendi,basi,luha,uongo","basi","v","3","html-keyboard-response","527","v","basi","true","","1"
"944.0999999046326","","","","","3","html-slider-response","528","","","","5",""
"476","","","","","3","html-keyboard-response","529","","","","",""
"1713","ladder","mashua,mwanga,kamba,pangalan","pangalan","n","3","html-keyboard-response","530","v","mwanga","false","","4"
"790.9000000953674","","","","","3","html-slider-response","531","","","","2",""
"382","","","","","3","html-keyboard-response","532","","","","",""
"987","banana","kasamok,hagdan,twai,kazi","kazi","n","3","html-keyboard-response","533","n","kazi","true","","1"
"852.5","","","","","3","html-slider-response","534","","","","5",""
"487","","","","","3","html-keyboard-response","535","","","","",""
"2654","pudding","abug,aibu,mpishi,iring","aibu","v","3","html-keyboard-response","536","j","mpishi","false","","4"
"1208.1000001430511","","","","","3","html-slider-response","537","","","","2",""
"611","","","","","3","html-keyboard-response","538","","","","",""
"1139","body","nyundu,tindashan,jibini,kununa","tindashan","v","3","html-keyboard-response","539","v","tindashan","true","","4"
"961.2000000476837","","","","","3","html-slider-response","540","","","","2",""
"377","","","","","3","html-keyboard-response","541","","","","",""
"951","bed","kalipay,haraka,starehe,mapintas","mapintas","n","3","html-keyboard-response","542","f","kalipay","false","","4"
"764.2999999523163","","","","","3","html-slider-response","543","","","","4",""
"373","","","","","3","html-keyboard-response","544","","","","",""
"853","tissue","lamigas,kisiwa,katika,ugomvi","ugomvi","n","3","html-keyboard-response","545","v","kisiwa","false","","4"
"825.6000001430511","","","","","3","html-slider-response","546","","","","2",""
"320","","","","","3","html-keyboard-response","547","","","","",""
"2120","candle","geza,gabi,farasi,kupanda","geza","f","3","html-keyboard-response","548","j","farasi","false","","4"
"770.8000001907349","","","","","3","html-slider-response","549","","","","4",""
"377","","","","","3","html-keyboard-response","550","","","","",""
"865","tomato","mvua,chupi,chupa,takatak","mvua","f","3","html-keyboard-response","551","f","mvua","true","","1"
"877.2000000476837","","","","","3","html-slider-response","552","","","","5",""
"271","","","","","3","html-keyboard-response","553","","","","",""
"2079","list","wingu,alizeti,kuzama,kaso","wingu","f","3","html-keyboard-response","554","j","kuzama","false","","4"
"795.2000000476837","","","","","3","html-slider-response","555","","","","2",""
"349","","","","","3","html-keyboard-response","556","","","","",""
"2754","olive","jiwe,bata,siagi,welder","jiwe","f","3","html-keyboard-response","557","f","jiwe","true","","4"
"910.2000000476837","","","","","3","html-slider-response","558","","","","5",""
"479","","","","","3","html-keyboard-response","559","","","","",""
"658","picture","kubwa,silya,chaki,asin","kubwa","f","3","html-keyboard-response","560","f","kubwa","true","","1"
"897.5","","","","","3","html-slider-response","561","","","","5",""
"333","","","","","3","html-keyboard-response","562","","","","",""
"2989","page","wimbo,wakala,ishiri,skina","wimbo","f","4","html-keyboard-response","888","v","wakala","false","",""
"1833.8000001907349","","","","","4","html-slider-response","889","","","","2",""
"2949","sheet","juuya,bililhon,watu,kamantis","bililhon","v","4","html-keyboard-response","890","v","bililhon","true","",""
"1755.7999999523163","","","","","4","html-slider-response","891","","","","4",""
"3007","ladder","pangalan,mashua,mwanga,kamba","pangalan","f","4","html-keyboard-response","892","n","kamba","false","",""
"1078.5999999046326","","","","","4","html-slider-response","893","","","","2",""
"4730","door","surali,tena,soko,nyota","surali","f","4","html-keyboard-response","894","f","surali","true","",""
"1106.1000001430511","","","","","4","html-slider-response","895","","","","2",""
"2656","spider","kamwe,bunyag,mkboa,atop","kamwe","f","4","html-keyboard-response","896","j","mkboa","false","",""
"928.9000000953674","","","","","4","html-slider-response","897","","","","4",""
"3627","picture","silya,chaki,kubwa,asin","kubwa","j","4","html-keyboard-response","898","j","kubwa","true","",""
"846.1000001430511","","","","","4","html-slider-response","899","","","","4",""
"1814","boat","hamsi,pombe,agalon,kitanda","agalon","j","4","html-keyboard-response","900","v","pombe","false","",""
"1096.1000001430511","","","","","4","html-slider-response","901","","","","2",""
"2779","donkey","bloke,lalake,rombus,elfu","elfu","n","4","html-keyboard-response","902","n","elfu","true","",""
"883.7000000476837","","","","","4","html-slider-response","903","","","","5",""
"3082","book","kuhesa,picha,mali,mara","mali","j","4","html-keyboard-response","904","v","picha","false","",""
"1228.7999999523163","","","","","4","html-slider-response","905","","","","2",""
"1789","cup","dagat,shimoni,jeraha,matumai","matumai","n","4","html-keyboard-response","906","f","dagat","false","",""
"841.6000001430511","","","","","4","html-slider-response","907","","","","4",""
"1757","sun","bendi,basi,luha,uongo","basi","v","4","html-keyboard-response","908","j","luha","false","",""
"1031.5","","","","","4","html-slider-response","909","","","","2",""
"3400","pudding","abug,mpishi,aibu,iring","aibu","j","4","html-keyboard-response","910","j","aibu","true","",""
"868.0999999046326","","","","","4","html-slider-response","911","","","","4",""
"3243","human","bado,kikapu,punguza,tinapay","tinapay","n","4","html-keyboard-response","912","j","punguza","false","",""
"1043.7000000476837","","","","","4","html-slider-response","913","","","","2",""
"2161","squirrel","hofu,mahugaw,ukweli,kichwa","hofu","f","4","html-keyboard-response","914","v","mahugaw","false","",""
"840.2000000476837","","","","","4","html-slider-response","915","","","","4",""
"2091","park","tambok,pwani,ihalas,bunifu","bunifu","n","4","html-keyboard-response","916","f","tambok","false","",""
"1024.9000000953674","","","","","4","html-slider-response","917","","","","4",""
"1396","poster","nchi,madungog,fedha,kasuko","madungog","v","4","html-keyboard-response","918","v","madungog","true","",""
"910","","","","","4","html-slider-response","919","","","","5",""
"2286","wolf","kaburi,ndizi,lugha,mchuzi","lugha","j","4","html-keyboard-response","920","j","lugha","true","",""
"802.5","","","","","4","html-slider-response","921","","","","4",""
"1268","cat","neyemba,baki,paghukom,akili","paghukom","j","4","html-keyboard-response","922","f","neyemba","false","",""
"1167.1999998092651","","","","","4","html-slider-response","923","","","","4",""
"3536","fish","bala,baho,buli,imani","buli","j","4","html-keyboard-response","924","v","baho","false","",""
"827.1000001430511","","","","","4","html-slider-response","925","","","","4",""
"10329","tooth","kabalaka,kijiko,uadui,pahiyum","kabalaka","f","4","html-keyboard-response","926","f","kabalaka","true","",""
"1230.2000000476837","","","","","4","html-slider-response","927","","","","4",""
"3148","cave","ganti,kesho,maisha,nyundo","kesho","v","4","html-keyboard-response","928","f","ganti","false","",""
"966.4000000953674","","","","","4","html-slider-response","929","","","","2",""
"3373","lamp","daub,bilaska,afya,mbolea","afya","j","4","html-keyboard-response","930","j","afya","true","",""
"775.7999999523163","","","","","4","html-slider-response","931","","","","4",""
"2488","banana","kasamok,hagdan,kazi,twai","kazi","j","4","html-keyboard-response","932","v","hagdan","false","",""
"931.0999999046326","","","","","4","html-slider-response","933","","","","2",""
"2264","bonfire","mwezi,mfuko,goti,kusanya","goti","j","4","html-keyboard-response","934","n","kusanya","false","",""
"740.0999999046326","","","","","4","html-slider-response","935","","","","4",""
"2495","cop","mechezo,bustani,jikoni,bakus","mechezo","f","4","html-keyboard-response","936","j","jikoni","false","",""
"1287.7000000476837","","","","","4","html-slider-response","937","","","","2",""
"3240","marker","mapafu,maji,salita,atay","maji","v","4","html-keyboard-response","938","v","maji","true","",""
"1038.2000000476837","","","","","4","html-slider-response","939","","","","5",""
"2428","window","nanga,kujenga,kweli,umaga","kweli","j","4","html-keyboard-response","940","j","kweli","true","",""
"774.3999998569489","","","","","4","html-slider-response","941","","","","2",""
"1564","body","nyundu,jibini,tindashan,kununa","tindashan","j","4","html-keyboard-response","942","f","nyundu","false","",""
"851.5999999046326","","","","","4","html-slider-response","943","","","","4",""
"4038","apple","kisu,ukame,estante,edad","kisu","f","4","html-keyboard-response","944","f","kisu","true","",""
"879.4000000953674","","","","","4","html-slider-response","945","","","","4",""
"2681","salmon","mzungu,sensilyo,seri,baharia","sensilyo","v","4","html-keyboard-response","946","f","mzungu","false","",""
"1027.0999999046326","","","","","4","html-slider-response","947","","","","4",""
"1746","bed","kalipay,haraka,mapintas,starehe","mapintas","j","4","html-keyboard-response","948","v","haraka","false","",""
"909.9000000953674","","","","","4","html-slider-response","949","","","","2",""
"1846","berry","abogado,kofia,nogozi,kinywa","kofia","v","4","html-keyboard-response","950","n","kinywa","false","",""
"759","","","","","4","html-slider-response","951","","","","4",""
"2255","mirror","sulagma,rangi,kanding,furaha","sulagma","f","4","html-keyboard-response","952","n","furaha","false","",""
"736.1000001430511","","","","","4","html-slider-response","953","","","","4",""
"1691","flag","ndege,mkate,kawa,trekta","trekta","n","4","html-keyboard-response","954","j","kawa","false","",""
"1293.2999999523163","","","","","4","html-slider-response","955","","","","2",""
"2300","shoulder","kelele,mkuu,ndaniya,guruwe","mkuu","v","4","html-keyboard-response","956","j","ndaniya","false","",""
"767.7999999523163","","","","","4","html-slider-response","957","","","","4",""
"1444","tissue","lamigas,kisiwa,ugomvi,katika","ugomvi","j","4","html-keyboard-response","958","v","kisiwa","false","",""
"824.1000001430511","","","","","4","html-slider-response","959","","","","2",""
"3310","notebook","kemia,msitu,kila,mdudu","kemia","f","4","html-keyboard-response","960","v","msitu","false","",""
"856.7000000476837","","","","","4","html-slider-response","961","","","","5",""
"1850","snake","jansa,karon,mvringo,pagtukod","pagtukod","n","4","html-keyboard-response","962","n","pagtukod","true","",""
"743.2999999523163","","","","","4","html-slider-response","963","","","","4",""
"2121","finger","simu,sufuria,lima,moyo","moyo","n","4","html-keyboard-response","964","n","moyo","true","",""
"763.1000001430511","","","","","4","html-slider-response","965","","","","4",""
"1634","basket","kumbuka,utepe,kumba,hasira","kumba","j","4","html-keyboard-response","966","f","kumbuka","false","",""
"719","","","","","4","html-slider-response","967","","","","4",""
"1224","curtain","lisud,bulwawan,mchanga,chubani","mchanga","j","4","html-keyboard-response","968","v","bulwawan","false","",""
"746.1999998092651","","","","","4","html-slider-response","969","","","","4",""
"2990","perfume","bino,sungura,ndogo,katuyoan","katuyoan","n","4","html-keyboard-response","970","v","sungura","false","",""
"770.2000000476837","","","","","4","html-slider-response","971","","","","5",""
"1520","key","miaka,goma,chombo,ahos","chombo","j","4","html-keyboard-response","972","f","miaka","false","",""
"736.5999999046326","","","","","4","html-slider-response","973","","","","4",""
"1563","olive","bata,siagi,jiwe,welder","jiwe","j","4","html-keyboard-response","974","j","jiwe","true","",""
"838.6000001430511","","","","","4","html-slider-response","975","","","","4",""
"1838","rose","singizi,paghalad,mwanake,amani","paghalad","v","4","html-keyboard-response","976","v","paghalad","true","",""
"733","","","","","4","html-slider-response","977","","","","5",""
"2084","bridge","daima,ngono,panya,sahani","sahani","n","4","html-keyboard-response","978","j","panya","false","",""
"801.2000000476837","","","","","4","html-slider-response","979","","","","4",""
"1895","hill","kushoto,kukimba,sweta,matumbo","matumbo","n","4","html-keyboard-response","980","n","matumbo","true","",""
"773.8999998569489","","","","","4","html-slider-response","981","","","","2",""
"2863","letter","filimbi,chuma,kifua,uhuru","kifua","j","4","html-keyboard-response","982","j","kifua","true","",""
"779.2999999523163","","","","","4","html-slider-response","983","","","","4",""
"2905","sock","mamba,ndoora,kimysa,mtirka","mamba","f","4","html-keyboard-response","984","j","kimysa","false","",""
"761.2000000476837","","","","","4","html-slider-response","985","","","","4",""
"3167","fork","baboy,paghago,gorisi,mgonjwa","mgonjwa","n","4","html-keyboard-response","986","v","paghago","false","",""
"761","","","","","4","html-slider-response","987","","","","4",""
"3609","box","kuacha,rafiki,kitande,adui","adui","n","4","html-keyboard-response","988","n","adui","true","",""
"1167.9000000953674","","","","","4","html-slider-response","989","","","","4",""
"3301","gift","baba,nyange,baso,pagtawag","pagtawag","n","4","html-keyboard-response","990","f","baba","false","",""
"773.0999999046326","","","","","4","html-slider-response","991","","","","4",""
"2251","bucket","kiatu,baga,ijayo,init","kiatu","f","4","html-keyboard-response","992","f","kiatu","true","",""
"739","","","","","4","html-slider-response","993","","","","4",""
"2746","shop","samaki,nopya,kerida,ndezu","samaki","f","4","html-keyboard-response","994","f","samaki","true","",""
"762.2999999523163","","","","","4","html-slider-response","995","","","","4",""
"1888","puppet","napulo,mazishi,lamok,godoro","mazishi","v","4","html-keyboard-response","996","v","mazishi","true","",""
"705.5999999046326","","","","","4","html-slider-response","997","","","","4",""
"1485","nose","gubat,kopa,kidole,sehemu","sehemu","n","4","html-keyboard-response","998","v","kopa","false","",""
"763.5999999046326","","","","","4","html-slider-response","999","","","","2",""
"1819","music","mraba,baiski,mageho,tumbo","baiski","v","4","html-keyboard-response","1000","v","baiski","true","",""
"1362.2999999523163","","","","","4","html-slider-response","1001","","","","5",""
"1964","dog","lubi,bahari,washia,kalamu","bahari","v","4","html-keyboard-response","1002","f","lubi","false","",""
"833","","","","","4","html-slider-response","1003","","","","4",""
"2469","eel","msumari,ishara,kunywa,kabuang","msumari","f","4","html-keyboard-response","1004","f","msumari","true","",""
"878","","","","","4","html-slider-response","1005","","","","5",""
"2484","number","shule,kengele,mundamo,choori","mundamo","j","4","html-keyboard-response","1006","v","kengele","false","",""
"713.5999999046326","","","","","4","html-slider-response","1007","","","","4",""
"1925","tomato","chupi,chupa,takatak,mvua","mvua","n","4","html-keyboard-response","1008","n","mvua","true","",""
"750.2000000476837","","","","","4","html-slider-response","1009","","","","4",""
"2929","coffin","barua,kioo,tubag,hulma","kioo","v","4","html-keyboard-response","1010","j","tubag","false","",""
"734.5999999046326","","","","","4","html-slider-response","1011","","","","4",""
"2400","knee","mvuke,kubale,duka,bili","duka","j","4","html-keyboard-response","1012","j","duka","true","",""
"720.9000000953674","","","","","4","html-slider-response","1013","","","","4",""
"2628","woman","bandari,bituin,kovuli,pagtabon","pagtabon","n","4","html-keyboard-response","1014","f","bandari","false","",""
"777.0999999046326","","","","","4","html-slider-response","1015","","","","4",""
"3240","stone","ulimwengu,mkasi,wingi,asili","wingi","j","4","html-keyboard-response","1016","v","mkasi","false","",""
"760.2999999523163","","","","","4","html-slider-response","1017","","","","4",""
"2302","bread","kaili,dari,dizeli,bugas","dari","v","4","html-keyboard-response","1018","v","dari","true","",""
"761.8999998569489","","","","","4","html-slider-response","1019","","","","5",""
"2452","triangle","kasadpan,kihozi,bentaha,liog","kasadpan","f","4","html-keyboard-response","1020","n","liog","false","",""
"716.5999999046326","","","","","4","html-slider-response","1021","","","","4",""
"3077","scissors","duga,mtawa,suga,tanuri","tanuri","n","4","html-keyboard-response","1022","v","mtawa","false","",""
"2124.800000190735","","","","","4","html-slider-response","1023","","","","4",""
"2046","giraffe","daraja,mahitabo,jumatu,hangyo","mahitabo","v","4","html-keyboard-response","1024","f","daraja","false","",""
"815","","","","","4","html-slider-response","1025","","","","4",""
"1485","flower","tamasha,bega,lobo,usiku","bega","v","4","html-keyboard-response","1026","v","bega","true","",""
"732.2999999523163","","","","","4","html-slider-response","1027","","","","5",""
"2883","candle","gabi,geza,farasi,kupanda","geza","v","4","html-keyboard-response","1028","n","kupanda","false","",""
"808.2000000476837","","","","","4","html-slider-response","1029","","","","4",""
"1984","mother","kahawa,mbuzi,babaye,jokofu","babaye","j","4","html-keyboard-response","1030","f","kahawa","false","",""
"1964.3999998569489","","","","","4","html-slider-response","1031","","","","1",""
"2167","towel","pagpalit,tembo,funzi,pito","pagpalit","f","4","html-keyboard-response","1032","n","pito","false","",""
"755.5","","","","","4","html-slider-response","1033","","","","4",""
"1421","elephant","petye,pagduol,kito,suka","kito","j","4","html-keyboard-response","1034","f","petye","false","",""
"793.1000001430511","","","","","4","html-slider-response","1035","","","","4",""
"2876","shelf","pamahaw,bungtod,kadaot,awit","pamahaw","f","4","html-keyboard-response","1036","v","bungtod","false","",""
"1017.2999999523163","","","","","4","html-slider-response","1037","","","","2",""
"1873","mosquito","martilyo,isda,taras,gutom","martilyo","f","4","html-keyboard-response","1038","f","martilyo","true","",""
"881.8000001907349","","","","","4","html-slider-response","1039","","","","5",""
"2240","column","pundok,dila,ufagio,pala","ufagio","j","4","html-keyboard-response","1040","j","ufagio","true","",""
"824.3999998569489","","","","","4","html-slider-response","1041","","","","4",""
"2571","pants","haki,pintal,chuki,hari","haki","f","4","html-keyboard-response","1042","f","haki","true","",""
"887.0999999046326","","","","","4","html-slider-response","1043","","","","2",""
"2261","list","alizeti,wingu,kuzama,kaso","wingu","v","4","html-keyboard-response","1044","n","kaso","false","",""
"781.2999999523163","","","","","4","html-slider-response","1045","","","","4",""
"1616","bank","kudhibi,tualya,ofisi,silingan","silingan","n","4","html-keyboard-response","1046","f","kudhibi","false","",""
"887.2999999523163","","","","","4","html-slider-response","1047","","","","5",""
"2896","clock","kartasi,abang,osha,mbwa","mbwa","n","4","html-keyboard-response","1048","f","kartasi","false","",""
"965.1000001430511","","","","","4","html-slider-response","1049","","","","4",""
"2069","ceiling","kugita,maua,kawaida,rayna","maua","v","4","html-keyboard-response","1050","j","kawaida","false","",""
"738.2000000476837","","","","","4","html-slider-response","1051","","","","4",""
"2648","train","itik,dakika,sayari,mungu","sayari","j","4","html-keyboard-response","1052","v","dakika","false","",""
"751.0999999046326","","","","","4","html-slider-response","1053","","","","4",""
"2996","magazine","gundi,mchawi,kiti,bahandi","kiti","j","4","html-keyboard-response","1054","n","bahandi","false","",""
"726.7999999523163","","","","","4","html-slider-response","1055","","","","4",""
"1863","office","leso,hazini,yatima,kuna","leso","f","4","html-keyboard-response","1056","v","hazini","false","",""
"720.2000000476837","","","","","4","html-slider-response","1057","","","","4",""
"1328","wheel","punda,tawo,baadaye,bafuni","bafuni","n","4","html-keyboard-response","1058","f","punda","false","",""
"728.2000000476837","","","","","4","html-slider-response","1059","","","","4",""
"2115","spoon","betri,nzuri,pagsulod,ngazi","pagsulod","j","4","html-keyboard-response","1060","n","ngazi","false","",""
"732.9000000953674","","","","","4","html-slider-response","1061","","","","4",""
"1979","hammer","napakyas,mekno,kitovu,layag","napakyas","f","4","html-keyboard-response","1062","f","napakyas","true","",""
"723.7000000476837","","","","","4","html-slider-response","1063","","","","4",""
"1609","cigar","ndugu,kuta,mlango,adhabu","adhabu","n","4","html-keyboard-response","1064","v","kuta","false","",""
"1075.7000000476837","","","","","4","html-slider-response","1065","","","","2",""
"2443","shoe","nyeusi,uyoga,hatua,kama","uyoga","v","4","html-keyboard-response","1066","n","kama","false","",""
"715.2999999523163","","","","","4","html-slider-response","1067","","","","4",""
"6473","list","wingu,alizeti,kuzama,kaso","wingu","f","5","html-keyboard-response","1069","n","kaso","false","",""
"1394.1000001430511","","","","","5","html-slider-response","1070","","","","2",""
"1329","number","shule,kengele,mundamo,choori","mundamo","j","5","html-keyboard-response","1071","v","kengele","false","",""
"725.2999999523163","","","","","5","html-slider-response","1072","","","","4",""
"1687","apple","ukame,estante,edad,kisu","kisu","n","5","html-keyboard-response","1073","n","kisu","true","",""
"823","","","","","5","html-slider-response","1074","","","","4",""
"1609","knee","mvuke,duka,kubale,bili","duka","v","5","html-keyboard-response","1075","v","duka","true","",""
"699.2000000476837","","","","","5","html-slider-response","1076","","","","4",""
"1776","tooth","kijiko,uadui,kabalaka,pahiyum","kabalaka","j","5","html-keyboard-response","1077","j","kabalaka","true","",""
"733.9000000953674","","","","","5","html-slider-response","1078","","","","5",""
"1231","berry","kofia,abogado,nogozi,kinywa","kofia","f","5","html-keyboard-response","1079","f","kofia","true","",""
"760.6000001430511","","","","","5","html-slider-response","1080","","","","4",""
"2013","bridge","daima,sahani,ngono,panya","sahani","v","5","html-keyboard-response","1081","f","daima","false","",""
"713.8999998569489","","","","","5","html-slider-response","1082","","","","4",""
"2341","perfume","katuyoan,bino,sungura,ndogo","katuyoan","f","5","html-keyboard-response","1083","j","sungura","false","",""
"720.1000001430511","","","","","5","html-slider-response","1084","","","","5",""
"2334","ladder","mashua,pangalan,mwanga,kamba","pangalan","v","5","html-keyboard-response","1085","j","mwanga","false","",""
"897.5999999046326","","","","","5","html-slider-response","1086","","","","2",""
"1701","pants","haki,pintal,chuki,hari","haki","f","5","html-keyboard-response","1087","f","haki","true","",""
"729.4000000953674","","","","","5","html-slider-response","1088","","","","4",""
"1604","salmon","mzungu,seri,baharia,sensilyo","sensilyo","n","5","html-keyboard-response","1089","f","mzungu","false","",""
"772.3000001907349","","","","","5","html-slider-response","1090","","","","4",""
"3194","coffin","kioo,barua,tubag,hulma","kioo","f","5","html-keyboard-response","1091","j","tubag","false","",""
"663.2999999523163","","","","","5","html-slider-response","1092","","","","4",""
"2126","park","tambok,pwani,ihalas,bunifu","bunifu","n","5","html-keyboard-response","1093","n","bunifu","true","",""
"688.1000001430511","","","","","5","html-slider-response","1094","","","","4",""
"2504","giraffe","daraja,jumatu,mahitabo,hangyo","mahitabo","j","5","html-keyboard-response","1095","j","mahitabo","true","",""
"1433.3000001907349","","","","","5","html-slider-response","1096","","","","4",""
"2259","mirror","rangi,kanding,furaha,sulagma","sulagma","n","5","html-keyboard-response","1097","f","rangi","false","",""
"729.7999999523163","","","","","5","html-slider-response","1098","","","","4",""
"1671","ceiling","kugita,maua,kawaida,rayna","maua","v","5","html-keyboard-response","1099","j","kawaida","false","",""
"701.7999999523163","","","","","5","html-slider-response","1100","","","","4",""
"1094","marker","maji,mapafu,salita,atay","maji","f","5","html-keyboard-response","1101","f","maji","true","",""
"828","","","","","5","html-slider-response","1102","","","","5",""
"2553","sock","mamba,ndoora,kimysa,mtirka","mamba","f","5","html-keyboard-response","1103","j","kimysa","false","",""
"776.0999999046326","","","","","5","html-slider-response","1104","","","","4",""
"2194","cop","bustani,jikoni,mechezo,bakus","mechezo","j","5","html-keyboard-response","1105","v","jikoni","false","",""
"706.6000001430511","","","","","5","html-slider-response","1106","","","","4",""
"1330","gift","baba,nyange,pagtawag,baso","pagtawag","j","5","html-keyboard-response","1107","f","baba","false","",""
"726.2999999523163","","","","","5","html-slider-response","1108","","","","5",""
"1120","notebook","msitu,kila,kemia,mdudu","kemia","j","5","html-keyboard-response","1109","f","msitu","false","",""
"808.2000000476837","","","","","5","html-slider-response","1110","","","","4",""
"1463","bank","kudhibi,tualya,silingan,ofisi","silingan","j","5","html-keyboard-response","1111","f","kudhibi","false","",""
"731.4000000953674","","","","","5","html-slider-response","1112","","","","4",""
"1812","letter","filimbi,chuma,kifua,uhuru","kifua","j","5","html-keyboard-response","1113","j","kifua","true","",""
"692.1000001430511","","","","","5","html-slider-response","1114","","","","4",""
"2129","candle","gabi,farasi,kupanda,geza","geza","n","5","html-keyboard-response","1115","v","farasi","false","",""
"745.2999999523163","","","","","5","html-slider-response","1116","","","","4",""
"1711","bread","kaili,dizeli,dari,bugas","dari","j","5","html-keyboard-response","1117","j","dari","true","",""
"786","","","","","5","html-slider-response","1118","","","","5",""
"1875","snake","jansa,pagtukod,karon,mvringo","pagtukod","v","5","html-keyboard-response","1119","v","pagtukod","true","",""
"745.6000001430511","","","","","5","html-slider-response","1120","","","","4",""
"2233","rose","singizi,mwanake,paghalad,amani","paghalad","j","5","html-keyboard-response","1121","v","mwanake","false","",""
"701.6999998092651","","","","","5","html-slider-response","1122","","","","4",""
"1929","hill","kushoto,matumbo,kukimba,sweta","matumbo","v","5","html-keyboard-response","1123","j","kukimba","false","",""
"654.9000000953674","","","","","5","html-slider-response","1124","","","","4",""
"1707","train","itik,sayari,dakika,mungu","sayari","v","5","html-keyboard-response","1125","v","sayari","true","",""
"791.3000001907349","","","","","5","html-slider-response","1126","","","","5",""
"1190","shop","samaki,nopya,kerida,ndezu","samaki","f","5","html-keyboard-response","1127","f","samaki","true","",""
"648.0999999046326","","","","","5","html-slider-response","1128","","","","4",""
"1472","nose","gubat,kopa,sehemu,kidole","sehemu","j","5","html-keyboard-response","1129","v","kopa","false","",""
"656.2000000476837","","","","","5","html-slider-response","1130","","","","4",""
"1425","boat","hamsi,pombe,agalon,kitanda","agalon","j","5","html-keyboard-response","1131","v","pombe","false","",""
"652.1000001430511","","","","","5","html-slider-response","1132","","","","4",""
"1987","body","nyundu,tindashan,jibini,kununa","tindashan","v","5","html-keyboard-response","1133","j","jibini","false","",""
"1134.5","","","","","5","html-slider-response","1134","","","","4",""
"1693","bed","mapintas,kalipay,haraka,starehe","mapintas","f","5","html-keyboard-response","1135","j","haraka","false","",""
"676.5","","","","","5","html-slider-response","1136","","","","4",""
"1313","squirrel","mahugaw,ukweli,hofu,kichwa","hofu","j","5","html-keyboard-response","1137","f","mahugaw","false","",""
"755.9000000953674","","","","","5","html-slider-response","1138","","","","5",""
"1770","window","nanga,kweli,kujenga,umaga","kweli","v","5","html-keyboard-response","1139","v","kweli","true","",""
"680.8999998569489","","","","","5","html-slider-response","1140","","","","4",""
"2046","bonfire","mwezi,mfuko,goti,kusanya","goti","j","5","html-keyboard-response","1141","n","kusanya","false","",""
"765.5","","","","","5","html-slider-response","1142","","","","4",""
"1467","fish","bala,baho,buli,imani","buli","j","5","html-keyboard-response","1143","v","baho","false","",""
"746.8999998569489","","","","","5","html-slider-response","1144","","","","4",""
"1622","cat","neyemba,paghukom,baki,akili","paghukom","v","5","html-keyboard-response","1145","j","baki","false","",""
"643.7000000476837","","","","","5","html-slider-response","1146","","","","4",""
"1801","spider","bunyag,kamwe,mkboa,atop","kamwe","v","5","html-keyboard-response","1147","v","kamwe","true","",""
"665.5999999046326","","","","","5","html-slider-response","1148","","","","4",""
"2745","eel","ishara,kunywa,kabuang,msumari","msumari","n","5","html-keyboard-response","1149","n","msumari","true","",""
"810.6999998092651","","","","","5","html-slider-response","1150","","","","5",""
"2700","woman","bandari,pagtabon,bituin,kovuli","pagtabon","v","5","html-keyboard-response","1151","v","pagtabon","true","",""
"785.0999999046326","","","","","5","html-slider-response","1152","","","","5",""
"1601","magazine","gundi,mchawi,kiti,bahandi","kiti","j","5","html-keyboard-response","1153","j","kiti","true","",""
"672.5","","","","","5","html-slider-response","1154","","","","4",""
"2168","pudding","abug,mpishi,aibu,iring","aibu","j","5","html-keyboard-response","1155","j","aibu","true","",""
"760.2000000476837","","","","","5","html-slider-response","1156","","","","4",""
"1907","lamp","afya,daub,bilaska,mbolea","afya","f","5","html-keyboard-response","1157","f","afya","true","",""
"808.7000000476837","","","","","5","html-slider-response","1158","","","","4",""
"1434","cave","ganti,kesho,maisha,nyundo","kesho","v","5","html-keyboard-response","1159","v","kesho","true","",""
"738.2999999523163","","","","","5","html-slider-response","1160","","","","4",""
"1732","shoulder","kelele,ndaniya,guruwe,mkuu","mkuu","n","5","html-keyboard-response","1161","v","ndaniya","false","",""
"742.0999999046326","","","","","5","html-slider-response","1162","","","","4",""
"2207","stone","ulimwengu,mkasi,asili,wingi","wingi","n","5","html-keyboard-response","1163","n","wingi","true","",""
"687","","","","","5","html-slider-response","1164","","","","4",""
"1279","column","pundok,dila,ufagio,pala","ufagio","j","5","html-keyboard-response","1165","f","pundok","false","",""
"657.2000000476837","","","","","5","html-slider-response","1166","","","","4",""
"2218","page","wakala,ishiri,skina,wimbo","wimbo","n","5","html-keyboard-response","1167","v","ishiri","false","",""
"775.2999999523163","","","","","5","html-slider-response","1168","","","","4",""
"1596","shoe","nyeusi,uyoga,hatua,kama","uyoga","v","5","html-keyboard-response","1169","n","kama","false","",""
"1155.7000000476837","","","","","5","html-slider-response","1170","","","","2",""
"1849","clock","kartasi,abang,osha,mbwa","mbwa","n","5","html-keyboard-response","1171","f","kartasi","false","",""
"1099.9000000953674","","","","","5","html-slider-response","1172","","","","2",""
"2410","towel","tembo,funzi,pito,pagpalit","pagpalit","n","5","html-keyboard-response","1173","n","pagpalit","true","",""
"721.3999998569489","","","","","5","html-slider-response","1174","","","","4",""
"2261","tomato","chupi,mvua,chupa,takatak","mvua","v","5","html-keyboard-response","1175","f","chupi","false","",""
"661.4000000953674","","","","","5","html-slider-response","1176","","","","4",""
"1555","bucket","baga,ijayo,kiatu,init","kiatu","j","5","html-keyboard-response","1177","f","baga","false","",""
"740.9000000953674","","","","","5","html-slider-response","1178","","","","4",""
"2169","finger","simu,sufuria,lima,moyo","moyo","n","5","html-keyboard-response","1179","n","moyo","true","",""
"678.8000001907349","","","","","5","html-slider-response","1180","","","","4",""
"2002","mother","kahawa,mbuzi,jokofu,babaye","babaye","n","5","html-keyboard-response","1181","n","babaye","true","",""
"798.6999998092651","","","","","5","html-slider-response","1182","","","","5",""
"2234","human","bado,tinapay,kikapu,punguza","tinapay","v","5","html-keyboard-response","1183","v","tinapay","true","",""
"707.8999998569489","","","","","5","html-slider-response","1184","","","","4",""
"1447","sun","bendi,luha,basi,uongo","basi","j","5","html-keyboard-response","1185","v","luha","false","",""
"1013.7000000476837","","","","","5","html-slider-response","1186","","","","4",""
"2424","fork","baboy,mgonjwa,paghago,gorisi","mgonjwa","v","5","html-keyboard-response","1187","v","mgonjwa","true","",""
"767.7999999523163","","","","","5","html-slider-response","1188","","","","4",""
"1390","donkey","bloke,elfu,lalake,rombus","elfu","v","5","html-keyboard-response","1189","v","elfu","true","",""
"907.7999999523163","","","","","5","html-slider-response","1190","","","","5",""
"1558","wolf","lugha,kaburi,ndizi,mchuzi","lugha","f","5","html-keyboard-response","1191","f","lugha","true","",""
"782.5999999046326","","","","","5","html-slider-response","1192","","","","4",""
"1856","cigar","ndugu,kuta,mlango,adhabu","adhabu","n","5","html-keyboard-response","1193","v","kuta","false","",""
"1346.2000000476837","","","","","5","html-slider-response","1194","","","","4",""
"1399","olive","jiwe,bata,siagi,welder","jiwe","f","5","html-keyboard-response","1195","f","jiwe","true","",""
"812.7999999523163","","","","","5","html-slider-response","1196","","","","5",""
"2912","key","miaka,goma,chombo,ahos","chombo","j","5","html-keyboard-response","1197","j","chombo","true","",""
"706.4000000953674","","","","","5","html-slider-response","1198","","","","4",""
"2411","door","tena,surali,soko,nyota","surali","v","5","html-keyboard-response","1199","f","tena","false","",""
"787.4000000953674","","","","","5","html-slider-response","1200","","","","4",""
"1194","wheel","punda,bafuni,tawo,baadaye","bafuni","v","5","html-keyboard-response","1201","f","punda","false","",""
"680.7000000476837","","","","","5","html-slider-response","1202","","","","4",""
"1855","basket","kumbuka,utepe,hasira,kumba","kumba","n","5","html-keyboard-response","1203","n","kumba","true","",""
"739.6999998092651","","","","","5","html-slider-response","1204","","","","4",""
"2505","elephant","petye,kito,pagduol,suka","kito","v","5","html-keyboard-response","1205","j","pagduol","false","",""
"797","","","","","5","html-slider-response","1206","","","","5",""
"1815","office","hazini,yatima,kuna,leso","leso","n","5","html-keyboard-response","1207","f","hazini","false","",""
"783.9000000953674","","","","","5","html-slider-response","1208","","","","4",""
"1352","music","mraba,baiski,mageho,tumbo","baiski","v","5","html-keyboard-response","1209","v","baiski","true","",""
"2023.4000000953674","","","","","5","html-slider-response","1210","","","","5",""
"1857","tissue","lamigas,kisiwa,ugomvi,katika","ugomvi","j","5","html-keyboard-response","1211","v","kisiwa","false","",""
"771.5","","","","","5","html-slider-response","1212","","","","4",""
"1933","curtain","lisud,mchanga,bulwawan,chubani","mchanga","v","5","html-keyboard-response","1213","j","bulwawan","false","",""
"750","","","","","5","html-slider-response","1214","","","","4",""
"1515","flag","ndege,mkate,kawa,trekta","trekta","n","5","html-keyboard-response","1215","v","mkate","false","",""
"737.6000001430511","","","","","5","html-slider-response","1216","","","","4",""
"2521","dog","lubi,bahari,washia,kalamu","bahari","v","5","html-keyboard-response","1217","f","lubi","false","",""
"799.3999998569489","","","","","5","html-slider-response","1218","","","","5",""
"1958","cup","dagat,shimoni,jeraha,matumai","matumai","n","5","html-keyboard-response","1219","f","dagat","false","",""
"721.1999998092651","","","","","5","html-slider-response","1220","","","","4",""
"1460","sheet","juuya,watu,bililhon,kamantis","bililhon","j","5","html-keyboard-response","1221","v","watu","false","",""
"837.3999998569489","","","","","5","html-slider-response","1222","","","","4",""
"2544","spoon","betri,nzuri,ngazi,pagsulod","pagsulod","n","5","html-keyboard-response","1223","v","nzuri","false","",""
"786.6999998092651","","","","","5","html-slider-response","1224","","","","5",""
"2636","flower","tamasha,lobo,bega,usiku","bega","j","5","html-keyboard-response","1225","j","bega","true","",""
"765.2999999523163","","","","","5","html-slider-response","1226","","","","5",""
"2750","picture","kubwa,silya,chaki,asin","kubwa","f","5","html-keyboard-response","1227","f","kubwa","true","",""
"769","","","","","5","html-slider-response","1228","","","","4",""
"1912","puppet","napulo,lamok,mazishi,godoro","mazishi","j","5","html-keyboard-response","1229","n","godoro","false","",""
"759.5999999046326","","","","","5","html-slider-response","1230","","","","4",""
"2595","banana","kasamok,hagdan,kazi,twai","kazi","j","5","html-keyboard-response","1231","f","kasamok","false","",""
"730.3999998569489","","","","","5","html-slider-response","1232","","","","4",""
"2484","book","kuhesa,mali,picha,mara","mali","v","5","html-keyboard-response","1233","n","mara","false","",""
"722","","","","","5","html-slider-response","1234","","","","4",""
"1248","triangle","kihozi,kasadpan,bentaha,liog","kasadpan","v","5","html-keyboard-response","1235","v","kasadpan","true","",""
"698.5","","","","","5","html-slider-response","1236","","","","4",""
"1850","poster","nchi,fedha,kasuko,madungog","madungog","n","5","html-keyboard-response","1237","n","madungog","true","",""
"805.5","","","","","5","html-slider-response","1238","","","","5",""
"1932","box","kuacha,rafiki,kitande,adui","adui","n","5","html-keyboard-response","1239","v","rafiki","false","",""
"966.3999998569489","","","","","5","html-slider-response","1240","","","","5",""
"1357","mosquito","isda,martilyo,taras,gutom","martilyo","v","5","html-keyboard-response","1241","v","martilyo","true","",""
"822.1999998092651","","","","","5","html-slider-response","1242","","","","5",""
"1460","shelf","pamahaw,bungtod,kadaot,awit","pamahaw","f","5","html-keyboard-response","1243","v","bungtod","false","",""
"729.1999998092651","","","","","5","html-slider-response","1244","","","","4",""
"1736","scissors","tanuri,duga,mtawa,suga","tanuri","f","5","html-keyboard-response","1245","v","duga","false","",""
"913.3000001907349","","","","","5","html-slider-response","1246","","","","4",""
"1426","hammer","napakyas,mekno,kitovu,layag","napakyas","f","5","html-keyboard-response","1247","v","mekno","false","",""
"679.0999999046326","","","","","5","html-slider-response","1248","","","","4",""
