"rt","en_word","options","swa_word","correct_answer","phase","trial_type","trial_index","input_answer","input_word","accuracy","certainty","amt_choices"
"12520","bonfire","mwezi,mfuko,kusanya,goti","goti","n","2","html-keyboard-response","106","n","goti","true","",""
"2357","","","","","2","html-slider-response","107","","","","2",""
"9496","flower","tamasha,lobo,bega,usiku","bega","j","2","html-keyboard-response","108","j","bega","true","",""
"2091","","","","","2","html-slider-response","109","","","","4",""
"46333","column","pundok,dila,ufagio,pala","ufagio","j","2","html-keyboard-response","110","f","pundok","false","",""
"5002","","","","","2","html-slider-response","111","","","","3",""
"31362","music","mraba,mageho,baiski,tumbo","baiski","j","2","html-keyboard-response","112","j","baiski","true","",""
"3213","","","","","2","html-slider-response","113","","","","2",""
"6922","spider","bunyag,mkboa,atop,kamwe","kamwe","n","2","html-keyboard-response","114","n","kamwe","true","",""
"4002","","","","","2","html-slider-response","115","","","","5",""
"6921","fork","baboy,mgonjwa,paghago,gorisi","mgonjwa","v","2","html-keyboard-response","116","v","mgonjwa","true","",""
"1994","","","","","2","html-slider-response","117","","","","2",""
"8452","mosquito","isda,taras,gutom,martilyo","martilyo","n","2","html-keyboard-response","118","n","martilyo","true","",""
"2442","","","","","2","html-slider-response","119","","","","3",""
"7741","banana","kasamok,hagdan,twai,kazi","kazi","n","2","html-keyboard-response","120","v","hagdan","false","",""
"2524","","","","","2","html-slider-response","121","","","","4",""
"7489","cup","dagat,shimoni,matumai,jeraha","matumai","j","2","html-keyboard-response","122","n","jeraha","false","",""
"2402","","","","","2","html-slider-response","123","","","","1",""
"7306","shop","nopya,kerida,samaki,ndezu","samaki","j","2","html-keyboard-response","124","f","nopya","false","",""
"2115","","","","","2","html-slider-response","125","","","","2",""
"5525","elephant","kito,petye,pagduol,suka","kito","f","2","html-keyboard-response","126","f","kito","true","",""
"2083","","","","","2","html-slider-response","127","","","","5",""
"9972","bucket","baga,ijayo,kiatu,init","kiatu","j","2","html-keyboard-response","128","j","kiatu","true","",""
"2018","","","","","2","html-slider-response","129","","","","2",""
"6292","book","kuhesa,mali,picha,mara","mali","v","2","html-keyboard-response","130","f","kuhesa","false","",""
"6665","","","","","2","html-slider-response","131","","","","3",""
"17816","mirror","sulagma,rangi,kanding,furaha","sulagma","f","2","html-keyboard-response","132","n","furaha","false","",""
"5764","","","","","2","html-slider-response","133","","","","2",""
"7057","office","hazini,leso,yatima,kuna","leso","v","2","html-keyboard-response","134","v","leso","true","",""
"2827","","","","","2","html-slider-response","135","","","","4",""
"6895","body","nyundu,jibini,kununa,tindashan","tindashan","n","2","html-keyboard-response","136","v","jibini","false","",""
"5564","","","","","2","html-slider-response","137","","","","2",""
"7548","perfume","katuyoan,bino,sungura,ndogo","katuyoan","f","2","html-keyboard-response","138","f","katuyoan","true","",""
"2789","","","","","2","html-slider-response","139","","","","1",""
"6946","olive","jiwe,bata,siagi,welder","jiwe","f","2","html-keyboard-response","140","v","bata","false","",""
"3612","","","","","2","html-slider-response","141","","","","3",""
"7746","magazine","kiti,gundi,mchawi,bahandi","kiti","f","2","html-keyboard-response","142","f","kiti","true","",""
"2421","","","","","2","html-slider-response","143","","","","5",""
"7201","bread","kaili,dizeli,dari,bugas","dari","j","2","html-keyboard-response","144","n","bugas","false","",""
"3563","","","","","2","html-slider-response","145","","","","2",""
"7574","cave","ganti,maisha,nyundo,kesho","kesho","n","2","html-keyboard-response","146","v","maisha","false","",""
"2615","","","","","2","html-slider-response","147","","","","3",""
"8213","ladder","mashua,mwanga,kamba,pangalan","pangalan","n","2","html-keyboard-response","148","j","kamba","false","",""
"2765","","","","","2","html-slider-response","149","","","","3",""
"4477","human","bado,kikapu,punguza,tinapay","tinapay","n","2","html-keyboard-response","150","n","tinapay","true","",""
"2346","","","","","2","html-slider-response","151","","","","5",""
"7508","clock","kartasi,abang,mbwa,osha","mbwa","j","2","html-keyboard-response","152","v","abang","false","",""
"3858","","","","","2","html-slider-response","153","","","","1",""
"6282","shelf","bungtod,pamahaw,kadaot,awit","pamahaw","v","2","html-keyboard-response","154","f","bungtod","false","",""
"2418","","","","","2","html-slider-response","155","","","","1",""
"9764","salmon","sensilyo,mzungu,seri,baharia","sensilyo","f","2","html-keyboard-response","156","f","sensilyo","true","",""
"2762","","","","","2","html-slider-response","157","","","","2",""
"5697","coffin","kioo,barua,tubag,hulma","kioo","f","2","html-keyboard-response","158","n","hulma","false","",""
"2527","","","","","2","html-slider-response","159","","","","2",""
"7267","notebook","msitu,kila,kemia,mdudu","kemia","j","2","html-keyboard-response","160","j","kemia","true","",""
"3103","","","","","2","html-slider-response","161","","","","2",""
"8298","shoulder","mkuu,kelele,ndaniya,guruwe","mkuu","f","2","html-keyboard-response","162","v","kelele","false","",""
"6706","","","","","2","html-slider-response","163","","","","3",""
"10179","park","tambok,pwani,bunifu,ihalas","bunifu","j","2","html-keyboard-response","164","v","pwani","false","",""
"2787","","","","","2","html-slider-response","165","","","","1",""
"8011","number","mundamo,shule,kengele,choori","mundamo","f","2","html-keyboard-response","166","f","mundamo","true","",""
"2763","","","","","2","html-slider-response","167","","","","4",""
"5351","apple","ukame,estante,kisu,edad","kisu","j","2","html-keyboard-response","168","j","kisu","true","",""
"5061","","","","","2","html-slider-response","169","","","","5",""
"8428","letter","kifua,filimbi,chuma,uhuru","kifua","f","2","html-keyboard-response","170","f","kifua","true","",""
"2760","","","","","2","html-slider-response","171","","","","4",""
"8443","eel","ishara,kunywa,kabuang,msumari","msumari","n","2","html-keyboard-response","172","j","kabuang","false","",""
"2809","","","","","2","html-slider-response","173","","","","2",""
"7525","cop","bustani,jikoni,mechezo,bakus","mechezo","j","2","html-keyboard-response","174","j","mechezo","true","",""
"1964","","","","","2","html-slider-response","175","","","","2",""
"8461","wolf","kaburi,ndizi,lugha,mchuzi","lugha","j","2","html-keyboard-response","176","f","kaburi","false","",""
"3026","","","","","2","html-slider-response","177","","","","2",""
"7343","squirrel","hofu,mahugaw,ukweli,kichwa","hofu","f","2","html-keyboard-response","178","n","kichwa","false","",""
"2648","","","","","2","html-slider-response","179","","","","3",""
"5987","nose","sehemu,gubat,kopa,kidole","sehemu","f","2","html-keyboard-response","180","f","sehemu","true","",""
"3635","","","","","2","html-slider-response","181","","","","3",""
"28633","sock","ndoora,mamba,kimysa,mtirka","mamba","v","2","html-keyboard-response","182","f","ndoora","false","",""
"2251","","","","","2","html-slider-response","183","","","","1",""
"6049","bank","silingan,kudhibi,tualya,ofisi","silingan","f","2","html-keyboard-response","184","f","silingan","true","",""
"2379","","","","","2","html-slider-response","185","","","","4",""
"4796","donkey","bloke,elfu,lalake,rombus","elfu","v","2","html-keyboard-response","186","v","elfu","true","",""
"1968","","","","","2","html-slider-response","187","","","","5",""
"8054","poster","nchi,madungog,fedha,kasuko","madungog","v","2","html-keyboard-response","188","n","kasuko","false","",""
"3156","","","","","2","html-slider-response","189","","","","1",""
"6356","puppet","napulo,lamok,mazishi,godoro","mazishi","j","2","html-keyboard-response","190","f","napulo","false","",""
"7052","","","","","2","html-slider-response","191","","","","3",""
"4784","hill","kushoto,kukimba,sweta,matumbo","matumbo","n","2","html-keyboard-response","192","n","matumbo","true","",""
"1875","","","","","2","html-slider-response","193","","","","4",""
"15420","tooth","kijiko,uadui,pahiyum,kabalaka","kabalaka","n","2","html-keyboard-response","194","f","kijiko","false","",""
"1931","","","","","2","html-slider-response","195","","","","5",""
"8500","woman","bandari,bituin,pagtabon,kovuli","pagtabon","j","2","html-keyboard-response","196","j","pagtabon","true","",""
"2239","","","","","2","html-slider-response","197","","","","3",""
"5158","wheel","punda,bafuni,tawo,baadaye","bafuni","v","2","html-keyboard-response","198","f","punda","false","",""
"2995","","","","","2","html-slider-response","199","","","","2",""
"5591","mother","kahawa,mbuzi,babaye,jokofu","babaye","j","2","html-keyboard-response","200","j","babaye","true","",""
"1954","","","","","2","html-slider-response","201","","","","5",""
"6753","bed","mapintas,kalipay,haraka,starehe","mapintas","f","2","html-keyboard-response","202","v","kalipay","false","",""
"2811","","","","","2","html-slider-response","203","","","","3",""
"5427","key","miaka,goma,ahos,chombo","chombo","n","2","html-keyboard-response","204","n","chombo","true","",""
"1834","","","","","2","html-slider-response","205","","","","5",""
"14252","page","wakala,ishiri,skina,wimbo","wimbo","n","2","html-keyboard-response","206","f","wakala","false","",""
"4194","","","","","2","html-slider-response","207","","","","1",""
"6864","pants","pintal,haki,chuki,hari","haki","v","2","html-keyboard-response","208","n","hari","false","",""
"2260","","","","","2","html-slider-response","209","","","","4",""
"6314","sun","bendi,basi,luha,uongo","basi","v","2","html-keyboard-response","210","v","basi","true","",""
"2736","","","","","2","html-slider-response","211","","","","3",""
"6452","finger","simu,moyo,sufuria,lima","moyo","v","2","html-keyboard-response","212","v","moyo","true","",""
"4306","","","","","2","html-slider-response","213","","","","5",""
"24012","shoe","nyeusi,hatua,uyoga,kama","uyoga","j","2","html-keyboard-response","214","v","hatua","false","",""
"3128","","","","","2","html-slider-response","215","","","","2",""
"14206","giraffe","daraja,jumatu,hangyo,mahitabo","mahitabo","n","2","html-keyboard-response","216","j","hangyo","false","",""
"2835","","","","","2","html-slider-response","217","","","","3",""
"15308","dog","lubi,washia,bahari,kalamu","bahari","j","2","html-keyboard-response","218","j","bahari","true","",""
"2178","","","","","2","html-slider-response","219","","","","4",""
"5395","box","kuacha,rafiki,adui,kitande","adui","j","2","html-keyboard-response","220","v","rafiki","false","",""
"1767","","","","","2","html-slider-response","221","","","","4",""
"4280","scissors","duga,tanuri,mtawa,suga","tanuri","v","2","html-keyboard-response","222","n","suga","false","",""
"2514","","","","","2","html-slider-response","223","","","","1",""
"12818","cat","neyemba,baki,paghukom,akili","paghukom","j","2","html-keyboard-response","224","n","akili","false","",""
"2044","","","","","2","html-slider-response","225","","","","4",""
"5106","basket","kumbuka,utepe,kumba,hasira","kumba","j","2","html-keyboard-response","226","v","utepe","false","",""
"2298","","","","","2","html-slider-response","227","","","","1",""
"7587","snake","jansa,pagtukod,karon,mvringo","pagtukod","v","2","html-keyboard-response","228","v","pagtukod","true","",""
"1545","","","","","2","html-slider-response","229","","","","2",""
"5691","gift","pagtawag,baba,nyange,baso","pagtawag","f","2","html-keyboard-response","230","j","nyange","false","",""
"2307","","","","","2","html-slider-response","231","","","","1",""
"5314","train","sayari,itik,dakika,mungu","sayari","f","2","html-keyboard-response","232","f","sayari","true","",""
"2012","","","","","2","html-slider-response","233","","","","5",""
"5528","pudding","aibu,abug,mpishi,iring","aibu","f","2","html-keyboard-response","234","n","iring","false","",""
"4052","","","","","2","html-slider-response","235","","","","3",""
"10946","tomato","chupi,chupa,takatak,mvua","mvua","n","2","html-keyboard-response","236","j","takatak","false","",""
"1958","","","","","2","html-slider-response","237","","","","2",""
"6537","stone","ulimwengu,mkasi,wingi,asili","wingi","j","2","html-keyboard-response","238","j","wingi","true","",""
"2687","","","","","2","html-slider-response","239","","","","2",""
"5579","hammer","mekno,napakyas,kitovu,layag","napakyas","v","2","html-keyboard-response","240","f","mekno","false","",""
"4727","","","","","2","html-slider-response","241","","","","3",""
"12098","knee","mvuke,kubale,duka,bili","duka","j","2","html-keyboard-response","242","f","mvuke","false","",""
"2641","","","","","2","html-slider-response","243","","","","4",""
"10885","ceiling","kugita,maua,kawaida,rayna","maua","v","2","html-keyboard-response","244","f","kugita","false","",""
"2156","","","","","2","html-slider-response","245","","","","2",""
"5322","spoon","betri,nzuri,pagsulod,ngazi","pagsulod","j","2","html-keyboard-response","246","j","pagsulod","true","",""
"1956","","","","","2","html-slider-response","247","","","","1",""
"11874","marker","mapafu,salita,maji,atay","maji","j","2","html-keyboard-response","248","j","maji","true","",""
"2169","","","","","2","html-slider-response","249","","","","4",""
"7971","candle","gabi,farasi,geza,kupanda","geza","j","2","html-keyboard-response","250","f","gabi","false","",""
"2234","","","","","2","html-slider-response","251","","","","4",""
"9659","tissue","lamigas,ugomvi,kisiwa,katika","ugomvi","v","2","html-keyboard-response","252","j","kisiwa","false","",""
"4067","","","","","2","html-slider-response","253","","","","3",""
"8021","bridge","daima,sahani,ngono,panya","sahani","v","2","html-keyboard-response","254","f","daima","false","",""
"3414","","","","","2","html-slider-response","255","","","","3",""
"7350","berry","abogado,nogozi,kinywa,kofia","kofia","n","2","html-keyboard-response","256","v","nogozi","false","",""
"5201","","","","","2","html-slider-response","257","","","","2",""
"21789","triangle","kihozi,bentaha,kasadpan,liog","kasadpan","j","2","html-keyboard-response","258","f","kihozi","false","",""
"2034","","","","","2","html-slider-response","259","","","","1",""
"4764","door","tena,soko,surali,nyota","surali","j","2","html-keyboard-response","260","j","surali","true","",""
"2664","","","","","2","html-slider-response","261","","","","2",""
"11343","fish","buli,bala,baho,imani","buli","f","2","html-keyboard-response","262","f","buli","true","",""
"1961","","","","","2","html-slider-response","263","","","","5",""
"5800","curtain","lisud,bulwawan,chubani,mchanga","mchanga","n","2","html-keyboard-response","264","v","bulwawan","false","",""
"2172","","","","","2","html-slider-response","265","","","","2",""
"7437","flag","ndege,mkate,trekta,kawa","trekta","j","2","html-keyboard-response","266","v","mkate","false","",""
"3594","","","","","2","html-slider-response","267","","","","3",""
"7496","boat","hamsi,pombe,kitanda,agalon","agalon","n","2","html-keyboard-response","268","v","pombe","false","",""
"14146","","","","","2","html-slider-response","269","","","","1",""
"11114","rose","paghalad,singizi,mwanake,amani","paghalad","f","2","html-keyboard-response","270","f","paghalad","true","",""
"3366","","","","","2","html-slider-response","271","","","","1",""
"7341","lamp","daub,bilaska,mbolea,afya","afya","n","2","html-keyboard-response","272","j","mbolea","false","",""
"2536","","","","","2","html-slider-response","273","","","","3",""
"5577","cigar","ndugu,adhabu,kuta,mlango","adhabu","v","2","html-keyboard-response","274","f","ndugu","false","",""
"1824","","","","","2","html-slider-response","275","","","","4",""
"9814","list","alizeti,wingu,kuzama,kaso","wingu","v","2","html-keyboard-response","276","j","kuzama","false","",""
"2621","","","","","2","html-slider-response","277","","","","1",""
"28568","sheet","juuya,watu,bililhon,kamantis","bililhon","j","2","html-keyboard-response","278","v","watu","false","",""
"2659","","","","","2","html-slider-response","279","","","","3",""
"14083","picture","silya,chaki,asin,kubwa","kubwa","n","2","html-keyboard-response","280","j","asin","false","",""
"2578","","","","","2","html-slider-response","281","","","","3",""
"8668","towel","tembo,funzi,pagpalit,pito","pagpalit","j","2","html-keyboard-response","282","f","tembo","false","",""
"3546","","","","","2","html-slider-response","283","","","","1",""
"12651","window","nanga,kujenga,umaga,kweli","kweli","n","2","html-keyboard-response","284","n","kweli","true","",""
"2369","","","","","2","html-slider-response","285","","","","2",""
"8514","box","adui,kuacha,rafiki,kitande","adui","f","3","html-keyboard-response","293","f","adui","true","","4"
"2777","","","","","3","html-slider-response","294","","","","2",""
"5537","","","","","3","html-keyboard-response","295","","","","",""
"12308","pants","pintal,chuki,hari,haki","haki","n","3","html-keyboard-response","296","n","haki","true","","4"
"2937","","","","","3","html-slider-response","297","","","","3",""
"2448","","","","","3","html-keyboard-response","298","","","","",""
"23189","cup","dagat,shimoni,matumai,jeraha","matumai","j","3","html-keyboard-response","299","j","matumai","true","","4"
"2538","","","","","3","html-slider-response","300","","","","1",""
"1916","","","","","3","html-keyboard-response","301","","","","",""
"1","triangle","kihozi,bentaha,kasadpan,liog","kasadpan","j","3","html-keyboard-response","302","n","liog","false","","4"
"4761","","","","","3","html-slider-response","303","","","","2",""
"3596","","","","","3","html-keyboard-response","304","","","","",""
"12103","curtain","lisud,bulwawan,chubani,mchanga","mchanga","n","3","html-keyboard-response","305","v","bulwawan","false","","4"
"2434","","","","","3","html-slider-response","306","","","","2",""
"2578","","","","","3","html-keyboard-response","307","","","","",""
"3403","clock","kartasi,abang,mbwa,osha","mbwa","j","3","html-keyboard-response","308","j","mbwa","true","","4"
"2259","","","","","3","html-slider-response","309","","","","4",""
"1513","","","","","3","html-keyboard-response","310","","","","",""
"6247","mirror","rangi,sulagma,kanding,furaha","sulagma","v","3","html-keyboard-response","311","v","sulagma","true","","4"
"2233","","","","","3","html-slider-response","312","","","","2",""
"1444","","","","","3","html-keyboard-response","313","","","","",""
"3933","coffin","kioo,barua,tubag,hulma","kioo","f","3","html-keyboard-response","314","f","kioo","true","","1"
"2836","","","","","3","html-slider-response","315","","","","5",""
"21379","","","","","3","html-keyboard-response","316","","","","",""
"6933","magazine","gundi,kiti,mchawi,bahandi","kiti","v","3","html-keyboard-response","317","f","gundi","false","","4"
"1891","","","","","3","html-slider-response","318","","","","2",""
"2876","","","","","3","html-keyboard-response","319","","","","",""
"6189","column","pundok,dila,pala,ufagio","ufagio","n","3","html-keyboard-response","320","n","ufagio","true","","1"
"2179","","","","","3","html-slider-response","321","","","","5",""
"1338","","","","","3","html-keyboard-response","322","","","","",""
"28780","number","mundamo,shule,kengele,choori","mundamo","f","3","html-keyboard-response","323","f","mundamo","true","","4"
"2386","","","","","3","html-slider-response","324","","","","2",""
"1420","","","","","3","html-keyboard-response","325","","","","",""
"5833","rose","paghalad,singizi,mwanake,amani","paghalad","f","3","html-keyboard-response","326","n","amani","false","","4"
"2376","","","","","3","html-slider-response","327","","","","4",""
"2021","","","","","3","html-keyboard-response","328","","","","",""
"5617","eel","ishara,kunywa,msumari,kabuang","msumari","j","3","html-keyboard-response","329","j","msumari","true","","4"
"1715","","","","","3","html-slider-response","330","","","","2",""
"1499","","","","","3","html-keyboard-response","331","","","","",""
"5552","gift","baba,pagtawag,nyange,baso","pagtawag","v","3","html-keyboard-response","332","j","nyange","false","","4"
"2025","","","","","3","html-slider-response","333","","","","5",""
"2714","","","","","3","html-keyboard-response","334","","","","",""
"2843","apple","ukame,estante,kisu,edad","kisu","j","3","html-keyboard-response","335","j","kisu","true","","1"
"2277","","","","","3","html-slider-response","336","","","","5",""
"1370","","","","","3","html-keyboard-response","337","","","","",""
"2806","wheel","punda,bafuni,tawo,baadaye","bafuni","v","3","html-keyboard-response","338","v","bafuni","true","","1"
"2379","","","","","3","html-slider-response","339","","","","5",""
"1397","","","","","3","html-keyboard-response","340","","","","",""
"9068","knee","mvuke,kubale,bili,duka","duka","n","3","html-keyboard-response","341","n","duka","true","","4"
"2078","","","","","3","html-slider-response","342","","","","4",""
"1283","","","","","3","html-keyboard-response","343","","","","",""
"2341","basket","kumbuka,utepe,kumba,hasira","kumba","j","3","html-keyboard-response","344","j","kumba","true","","1"
"2262","","","","","3","html-slider-response","345","","","","5",""
"1322","","","","","3","html-keyboard-response","346","","","","",""
"4682","park","tambok,pwani,ihalas,bunifu","bunifu","n","3","html-keyboard-response","347","v","pwani","false","","4"
"3090","","","","","3","html-slider-response","348","","","","4",""
"1716","","","","","3","html-keyboard-response","349","","","","",""
"6146","finger","simu,sufuria,lima,moyo","moyo","n","3","html-keyboard-response","350","n","moyo","true","","4"
"2058","","","","","3","html-slider-response","351","","","","2",""
"1243","","","","","3","html-keyboard-response","352","","","","",""
"27877","boat","hamsi,agalon,pombe,kitanda","agalon","v","3","html-keyboard-response","353","f","hamsi","false","","4"
"2143","","","","","3","html-slider-response","354","","","","1",""
"1272","","","","","3","html-keyboard-response","355","","","","",""
"3781","hill","kushoto,kukimba,sweta,matumbo","matumbo","n","3","html-keyboard-response","356","n","matumbo","true","","4"
"2826","","","","","3","html-slider-response","357","","","","3",""
"1506","","","","","3","html-keyboard-response","358","","","","",""
"5402","train","itik,dakika,sayari,mungu","sayari","j","3","html-keyboard-response","359","j","sayari","true","","4"
"2051","","","","","3","html-slider-response","360","","","","4",""
"1219","","","","","3","html-keyboard-response","361","","","","",""
"8996","wolf","kaburi,ndizi,lugha,mchuzi","lugha","j","3","html-keyboard-response","362","n","mchuzi","false","","4"
"1575","","","","","3","html-slider-response","363","","","","2",""
"2004","","","","","3","html-keyboard-response","364","","","","",""
"6155","snake","jansa,karon,pagtukod,mvringo","pagtukod","j","3","html-keyboard-response","365","j","pagtukod","true","","4"
"1898","","","","","3","html-slider-response","366","","","","2",""
"1088","","","","","3","html-keyboard-response","367","","","","",""
"18909","tooth","kijiko,uadui,pahiyum,kabalaka","kabalaka","n","3","html-keyboard-response","368","n","kabalaka","true","","4"
"4715","","","","","3","html-slider-response","369","","","","3",""
"1807","","","","","3","html-keyboard-response","370","","","","",""
"26123","notebook","msitu,kila,kemia,mdudu","kemia","j","3","html-keyboard-response","371","n","mdudu","false","","4"
"2660","","","","","3","html-slider-response","372","","","","4",""
"2061","","","","","3","html-keyboard-response","373","","","","",""
"14514","flag","ndege,mkate,kawa,trekta","trekta","n","3","html-keyboard-response","374","n","trekta","true","","4"
"2563","","","","","3","html-slider-response","375","","","","4",""
"1019","","","","","3","html-keyboard-response","376","","","","",""
"5902","squirrel","hofu,mahugaw,ukweli,kichwa","hofu","f","3","html-keyboard-response","377","v","mahugaw","false","","4"
"2026","","","","","3","html-slider-response","378","","","","2",""
"1058","","","","","3","html-keyboard-response","379","","","","",""
"10180","door","tena,surali,soko,nyota","surali","v","3","html-keyboard-response","380","n","nyota","false","","4"
"1715","","","","","3","html-slider-response","381","","","","2",""
"1024","","","","","3","html-keyboard-response","382","","","","",""
"9212","salmon","mzungu,seri,sensilyo,baharia","sensilyo","j","3","html-keyboard-response","383","j","sensilyo","true","","4"
"2402","","","","","3","html-slider-response","384","","","","1",""
"1582","","","","","3","html-keyboard-response","385","","","","",""
"8566","shoulder","kelele,ndaniya,mkuu,guruwe","mkuu","j","3","html-keyboard-response","386","j","mkuu","true","","4"
"1881","","","","","3","html-slider-response","387","","","","2",""
"1107","","","","","3","html-keyboard-response","388","","","","",""
"6771","lamp","daub,afya,bilaska,mbolea","afya","v","3","html-keyboard-response","389","n","mbolea","false","","4"
"2116","","","","","3","html-slider-response","390","","","","2",""
"1561","","","","","3","html-keyboard-response","391","","","","",""
"4156","shelf","bungtod,pamahaw,kadaot,awit","pamahaw","v","3","html-keyboard-response","392","v","pamahaw","true","","1"
"1919","","","","","3","html-slider-response","393","","","","5",""
"1445","","","","","3","html-keyboard-response","394","","","","",""
"22214","human","bado,kikapu,punguza,tinapay","tinapay","n","3","html-keyboard-response","395","n","tinapay","true","","4"
"1978","","","","","3","html-slider-response","396","","","","5",""
"2204","","","","","3","html-keyboard-response","397","","","","",""
"8277","towel","pagpalit,tembo,funzi,pito","pagpalit","f","3","html-keyboard-response","398","v","tembo","false","","4"
"2327","","","","","3","html-slider-response","399","","","","2",""
"1480","","","","","3","html-keyboard-response","400","","","","",""
"4718","cat","neyemba,paghukom,baki,akili","paghukom","v","3","html-keyboard-response","401","j","baki","false","","4"
"1852","","","","","3","html-slider-response","402","","","","5",""
"1828","","","","","3","html-keyboard-response","403","","","","",""
"10408","spider","kamwe,bunyag,mkboa,atop","kamwe","f","3","html-keyboard-response","404","f","kamwe","true","","4"
"1855","","","","","3","html-slider-response","405","","","","2",""
"1163","","","","","3","html-keyboard-response","406","","","","",""
"6243","window","nanga,kujenga,umaga,kweli","kweli","n","3","html-keyboard-response","407","v","kujenga","false","","4"
"2059","","","","","3","html-slider-response","408","","","","2",""
"1243","","","","","3","html-keyboard-response","409","","","","",""
"3748","woman","pagtabon,bandari,bituin,kovuli","pagtabon","f","3","html-keyboard-response","410","f","pagtabon","true","","1"
"2197","","","","","3","html-slider-response","411","","","","5",""
"1322","","","","","3","html-keyboard-response","412","","","","",""
"55285","giraffe","mahitabo,daraja,jumatu,hangyo","mahitabo","f","3","html-keyboard-response","413","f","mahitabo","true","","4"
"2760","","","","","3","html-slider-response","414","","","","3",""
"1538","","","","","3","html-keyboard-response","415","","","","",""
"3306","elephant","petye,kito,pagduol,suka","kito","v","3","html-keyboard-response","416","v","kito","true","","4"
"2268","","","","","3","html-slider-response","417","","","","5",""
"973","","","","","3","html-keyboard-response","418","","","","",""
"9469","cave","ganti,maisha,nyundo,kesho","kesho","n","3","html-keyboard-response","419","v","maisha","false","","4"
"2228","","","","","3","html-slider-response","420","","","","2",""
"1331","","","","","3","html-keyboard-response","421","","","","",""
"25686","bread","kaili,dizeli,dari,bugas","dari","j","3","html-keyboard-response","422","f","kaili","false","","4"
"1811","","","","","3","html-slider-response","423","","","","1",""
"1147","","","","","3","html-keyboard-response","424","","","","",""
"18406","stone","ulimwengu,mkasi,asili,wingi","wingi","n","3","html-keyboard-response","425","j","asili","false","","4"
"1795","","","","","3","html-slider-response","426","","","","4",""
"1567","","","","","3","html-keyboard-response","427","","","","",""
"9812","donkey","bloke,elfu,lalake,rombus","elfu","v","3","html-keyboard-response","428","v","elfu","true","","4"
"2573","","","","","3","html-slider-response","429","","","","3",""
"1168","","","","","3","html-keyboard-response","430","","","","",""
"21190","bridge","sahani,daima,ngono,panya","sahani","f","3","html-keyboard-response","431","f","sahani","true","","4"
"2162","","","","","3","html-slider-response","432","","","","2",""
"1272","","","","","3","html-keyboard-response","433","","","","",""
"8210","bonfire","mwezi,mfuko,kusanya,goti","goti","n","3","html-keyboard-response","434","j","kusanya","false","","4"
"2803","","","","","3","html-slider-response","435","","","","1",""
"1656","","","","","3","html-keyboard-response","436","","","","",""
"11403","book","kuhesa,mali,picha,mara","mali","v","3","html-keyboard-response","437","v","mali","true","","4"
"2867","","","","","3","html-slider-response","438","","","","4",""
"1089","","","","","3","html-keyboard-response","439","","","","",""
"22589","fish","bala,baho,imani,buli","buli","n","3","html-keyboard-response","440","n","buli","true","","4"
"3359","","","","","3","html-slider-response","441","","","","3",""
"1100","","","","","3","html-keyboard-response","442","","","","",""
"4157","spoon","betri,nzuri,pagsulod,ngazi","pagsulod","j","3","html-keyboard-response","443","n","ngazi","false","","4"
"2308","","","","","3","html-slider-response","444","","","","2",""
"1061","","","","","3","html-keyboard-response","445","","","","",""
"5934","scissors","duga,mtawa,suga,tanuri","tanuri","n","3","html-keyboard-response","446","v","mtawa","false","","4"
"3322","","","","","3","html-slider-response","447","","","","3",""
"1107","","","","","3","html-keyboard-response","448","","","","",""
"46309","page","wakala,wimbo,ishiri,skina","wimbo","v","3","html-keyboard-response","449","f","wakala","false","","4"
"2529","","","","","3","html-slider-response","450","","","","1",""
"1143","","","","","3","html-keyboard-response","451","","","","",""
"3469","nose","sehemu,gubat,kopa,kidole","sehemu","f","3","html-keyboard-response","452","f","sehemu","true","","1"
"2835","","","","","3","html-slider-response","453","","","","5",""
"1187","","","","","3","html-keyboard-response","454","","","","",""
"11993","ceiling","kugita,kawaida,maua,rayna","maua","j","3","html-keyboard-response","455","j","maua","true","","4"
"3264","","","","","3","html-slider-response","456","","","","2",""
"1162","","","","","3","html-keyboard-response","457","","","","",""
"7404","bucket","baga,ijayo,init,kiatu","kiatu","n","3","html-keyboard-response","458","n","kiatu","true","","4"
"2304","","","","","3","html-slider-response","459","","","","1",""
"1085","","","","","3","html-keyboard-response","460","","","","",""
"3332","berry","kofia,abogado,nogozi,kinywa","kofia","f","3","html-keyboard-response","461","f","kofia","true","","1"
"2571","","","","","3","html-slider-response","462","","","","5",""
"1237","","","","","3","html-keyboard-response","463","","","","",""
"4158","mother","babaye,kahawa,mbuzi,jokofu","babaye","f","3","html-keyboard-response","464","f","babaye","true","","1"
"2025","","","","","3","html-slider-response","465","","","","5",""
"1151","","","","","3","html-keyboard-response","466","","","","",""
"3996","mosquito","isda,martilyo,taras,gutom","martilyo","v","3","html-keyboard-response","467","v","martilyo","true","","4"
"2261","","","","","3","html-slider-response","468","","","","5",""
"1270","","","","","3","html-keyboard-response","469","","","","",""
"11148","perfume","bino,sungura,katuyoan,ndogo","katuyoan","j","3","html-keyboard-response","470","v","sungura","false","","4"
"2075","","","","","3","html-slider-response","471","","","","3",""
"1571","","","","","3","html-keyboard-response","472","","","","",""
"3221","sheet","juuya,watu,kamantis,bililhon","bililhon","n","3","html-keyboard-response","473","v","watu","false","","4"
"2197","","","","","3","html-slider-response","474","","","","2",""
"827","","","","","3","html-keyboard-response","475","","","","",""
"4526","puppet","napulo,mazishi,lamok,godoro","mazishi","v","3","html-keyboard-response","476","v","mazishi","true","","1"
"5008","","","","","3","html-slider-response","477","","","","5",""
"1449","","","","","3","html-keyboard-response","478","","","","",""
"9805","poster","nchi,madungog,fedha,kasuko","madungog","v","3","html-keyboard-response","479","n","kasuko","false","","4"
"2044","","","","","3","html-slider-response","480","","","","2",""
"1043","","","","","3","html-keyboard-response","481","","","","",""
"8222","music","mraba,baiski,mageho,tumbo","baiski","v","3","html-keyboard-response","482","n","tumbo","false","","4"
"4586","","","","","3","html-slider-response","483","","","","2",""
"1147","","","","","3","html-keyboard-response","484","","","","",""
"2997","key","miaka,goma,chombo,ahos","chombo","j","3","html-keyboard-response","485","j","chombo","true","","4"
"2673","","","","","3","html-slider-response","486","","","","5",""
"1195","","","","","3","html-keyboard-response","487","","","","",""
"5156","sock","ndoora,kimysa,mtirka,mamba","mamba","n","3","html-keyboard-response","488","n","mamba","true","","4"
"2226","","","","","3","html-slider-response","489","","","","4",""
"980","","","","","3","html-keyboard-response","490","","","","",""
"6244","marker","mapafu,salita,atay,maji","maji","n","3","html-keyboard-response","491","v","salita","false","","4"
"2192","","","","","3","html-slider-response","492","","","","2",""
"987","","","","","3","html-keyboard-response","493","","","","",""
"7245","office","hazini,leso,yatima,kuna","leso","v","3","html-keyboard-response","494","n","kuna","false","","4"
"2896","","","","","3","html-slider-response","495","","","","3",""
"1246","","","","","3","html-keyboard-response","496","","","","",""
"6117","shoe","nyeusi,hatua,uyoga,kama","uyoga","j","3","html-keyboard-response","497","v","hatua","false","","4"
"2619","","","","","3","html-slider-response","498","","","","1",""
"1155","","","","","3","html-keyboard-response","499","","","","",""
"4182","cop","bustani,jikoni,bakus,mechezo","mechezo","n","3","html-keyboard-response","500","n","mechezo","true","","4"
"1745","","","","","3","html-slider-response","501","","","","4",""
"812","","","","","3","html-keyboard-response","502","","","","",""
"5652","bank","kudhibi,tualya,ofisi,silingan","silingan","n","3","html-keyboard-response","503","n","silingan","true","","4"
"2123","","","","","3","html-slider-response","504","","","","2",""
"1148","","","","","3","html-keyboard-response","505","","","","",""
"2246","letter","kifua,filimbi,chuma,uhuru","kifua","f","3","html-keyboard-response","506","f","kifua","true","","1"
"2325","","","","","3","html-slider-response","507","","","","5",""
"1236","","","","","3","html-keyboard-response","508","","","","",""
"2590","dog","bahari,lubi,washia,kalamu","bahari","f","3","html-keyboard-response","509","f","bahari","true","","1"
"2100","","","","","3","html-slider-response","510","","","","5",""
"1108","","","","","3","html-keyboard-response","511","","","","",""
"10683","shop","nopya,kerida,samaki,ndezu","samaki","j","3","html-keyboard-response","512","f","nopya","false","","4"
"3321","","","","","3","html-slider-response","513","","","","2",""
"1012","","","","","3","html-keyboard-response","514","","","","",""
"15030","flower","bega,tamasha,lobo,usiku","bega","f","3","html-keyboard-response","515","f","bega","true","","4"
"2740","","","","","3","html-slider-response","516","","","","3",""
"874","","","","","3","html-keyboard-response","517","","","","",""
"2438","cigar","adhabu,ndugu,kuta,mlango","adhabu","f","3","html-keyboard-response","518","f","adhabu","true","","1"
"2001","","","","","3","html-slider-response","519","","","","5",""
"1108","","","","","3","html-keyboard-response","520","","","","",""
"6808","hammer","mekno,napakyas,kitovu,layag","napakyas","v","3","html-keyboard-response","521","v","napakyas","true","","4"
"1755","","","","","3","html-slider-response","522","","","","4",""
"858","","","","","3","html-keyboard-response","523","","","","",""
"4027","fork","baboy,mgonjwa,paghago,gorisi","mgonjwa","v","3","html-keyboard-response","524","v","mgonjwa","true","","4"
"2130","","","","","3","html-slider-response","525","","","","2",""
"986","","","","","3","html-keyboard-response","526","","","","",""
"2373","sun","basi,bendi,luha,uongo","basi","f","3","html-keyboard-response","527","f","basi","true","","1"
"2114","","","","","3","html-slider-response","528","","","","5",""
"939","","","","","3","html-keyboard-response","529","","","","",""
"20428","ladder","pangalan,mashua,mwanga,kamba","pangalan","f","3","html-keyboard-response","530","j","mwanga","false","","4"
"1785","","","","","3","html-slider-response","531","","","","1",""
"1053","","","","","3","html-keyboard-response","532","","","","",""
"2121","banana","kasamok,hagdan,kazi,twai","kazi","j","3","html-keyboard-response","533","j","kazi","true","","1"
"1976","","","","","3","html-slider-response","534","","","","5",""
"957","","","","","3","html-keyboard-response","535","","","","",""
"6588","pudding","abug,mpishi,iring,aibu","aibu","n","3","html-keyboard-response","536","f","abug","false","","4"
"3251","","","","","3","html-slider-response","537","","","","2",""
"2430","","","","","3","html-keyboard-response","538","","","","",""
"20214","body","nyundu,jibini,tindashan,kununa","tindashan","j","3","html-keyboard-response","539","n","kununa","false","","4"
"2209","","","","","3","html-slider-response","540","","","","3",""
"1334","","","","","3","html-keyboard-response","541","","","","",""
"4750","bed","mapintas,kalipay,haraka,starehe","mapintas","f","3","html-keyboard-response","542","f","mapintas","true","","4"
"1861","","","","","3","html-slider-response","543","","","","4",""
"1068","","","","","3","html-keyboard-response","544","","","","",""
"6058","tissue","ugomvi,lamigas,kisiwa,katika","ugomvi","f","3","html-keyboard-response","545","j","kisiwa","false","","4"
"2595","","","","","3","html-slider-response","546","","","","2",""
"901","","","","","3","html-keyboard-response","547","","","","",""
"5708","candle","gabi,farasi,kupanda,geza","geza","n","3","html-keyboard-response","548","v","farasi","false","","4"
"1867","","","","","3","html-slider-response","549","","","","1",""
"1187","","","","","3","html-keyboard-response","550","","","","",""
"2437","tomato","chupi,chupa,takatak,mvua","mvua","n","3","html-keyboard-response","551","n","mvua","true","","1"
"1967","","","","","3","html-slider-response","552","","","","5",""
"1051","","","","","3","html-keyboard-response","553","","","","",""
"4652","list","alizeti,kuzama,kaso,wingu","wingu","n","3","html-keyboard-response","554","j","kaso","false","","4"
"2302","","","","","3","html-slider-response","555","","","","4",""
"1026","","","","","3","html-keyboard-response","556","","","","",""
"9277","olive","bata,siagi,jiwe,welder","jiwe","j","3","html-keyboard-response","557","f","bata","false","","4"
"1666","","","","","3","html-slider-response","558","","","","2",""
"912","","","","","3","html-keyboard-response","559","","","","",""
"2587","picture","silya,kubwa,chaki,asin","kubwa","v","3","html-keyboard-response","560","v","kubwa","true","","1"
"2002","","","","","3","html-slider-response","561","","","","5",""
"955","","","","","3","html-keyboard-response","562","","","","",""
"7842","page","wakala,ishiri,wimbo,skina","wimbo","j","4","html-keyboard-response","888","f","wakala","false","",""
"5159","","","","","4","html-slider-response","889","","","","3",""
"4306","sheet","juuya,bililhon,watu,kamantis","bililhon","v","4","html-keyboard-response","890","n","kamantis","false","",""
"2050","","","","","4","html-slider-response","891","","","","2",""
"3444","ladder","pangalan,mashua,mwanga,kamba","pangalan","f","4","html-keyboard-response","892","f","pangalan","true","",""
"2283","","","","","4","html-slider-response","893","","","","5",""
"27393","door","tena,surali,soko,nyota","surali","v","4","html-keyboard-response","894","v","surali","true","",""
"2875","","","","","4","html-slider-response","895","","","","2",""
"14211","spider","bunyag,mkboa,kamwe,atop","kamwe","j","4","html-keyboard-response","896","j","kamwe","true","",""
"2620","","","","","4","html-slider-response","897","","","","3",""
"8529","picture","silya,chaki,kubwa,asin","kubwa","j","4","html-keyboard-response","898","f","silya","false","",""
"3992","","","","","4","html-slider-response","899","","","","3",""
"7057","boat","agalon,hamsi,pombe,kitanda","agalon","f","4","html-keyboard-response","900","f","agalon","true","",""
"2571","","","","","4","html-slider-response","901","","","","2",""
"5672","donkey","bloke,lalake,elfu,rombus","elfu","j","4","html-keyboard-response","902","j","elfu","true","",""
"2223","","","","","4","html-slider-response","903","","","","5",""
"6956","book","kuhesa,mali,picha,mara","mali","v","4","html-keyboard-response","904","v","mali","true","",""
"2283","","","","","4","html-slider-response","905","","","","4",""
"14453","cup","matumai,dagat,shimoni,jeraha","matumai","f","4","html-keyboard-response","906","f","matumai","true","",""
"3928","","","","","4","html-slider-response","907","","","","3",""
"7155","sun","bendi,luha,uongo,basi","basi","n","4","html-keyboard-response","908","n","basi","true","",""
"3001","","","","","4","html-slider-response","909","","","","5",""
"22956","pudding","abug,aibu,mpishi,iring","aibu","v","4","html-keyboard-response","910","v","aibu","true","",""
"3745","","","","","4","html-slider-response","911","","","","3",""
"7059","human","bado,tinapay,kikapu,punguza","tinapay","v","4","html-keyboard-response","912","v","tinapay","true","",""
"2434","","","","","4","html-slider-response","913","","","","5",""
"9014","squirrel","mahugaw,ukweli,hofu,kichwa","hofu","j","4","html-keyboard-response","914","f","mahugaw","false","",""
"2276","","","","","4","html-slider-response","915","","","","4",""
"16750","park","bunifu,tambok,pwani,ihalas","bunifu","f","4","html-keyboard-response","916","v","tambok","false","",""
"2925","","","","","4","html-slider-response","917","","","","3",""
"14717","poster","nchi,fedha,kasuko,madungog","madungog","n","4","html-keyboard-response","918","j","kasuko","false","",""
"2282","","","","","4","html-slider-response","919","","","","2",""
"7051","wolf","kaburi,ndizi,mchuzi,lugha","lugha","n","4","html-keyboard-response","920","n","lugha","true","",""
"4339","","","","","4","html-slider-response","921","","","","5",""
"7529","cat","neyemba,baki,paghukom,akili","paghukom","j","4","html-keyboard-response","922","j","paghukom","true","",""
"2466","","","","","4","html-slider-response","923","","","","5",""
"19621","fish","bala,baho,buli,imani","buli","j","4","html-keyboard-response","924","j","buli","true","",""
"3284","","","","","4","html-slider-response","925","","","","4",""
"18273","tooth","kijiko,uadui,kabalaka,pahiyum","kabalaka","j","4","html-keyboard-response","926","j","kabalaka","true","",""
"2770","","","","","4","html-slider-response","927","","","","4",""
"22031","cave","ganti,maisha,nyundo,kesho","kesho","n","4","html-keyboard-response","928","n","kesho","true","",""
"2301","","","","","4","html-slider-response","929","","","","5",""
"17805","lamp","afya,daub,bilaska,mbolea","afya","f","4","html-keyboard-response","930","j","bilaska","false","",""
"3731","","","","","4","html-slider-response","931","","","","4",""
"5484","banana","kazi,kasamok,hagdan,twai","kazi","f","4","html-keyboard-response","932","f","kazi","true","",""
"2692","","","","","4","html-slider-response","933","","","","2",""
"9077","bonfire","mwezi,mfuko,goti,kusanya","goti","j","4","html-keyboard-response","934","n","kusanya","false","",""
"6303","","","","","4","html-slider-response","935","","","","3",""
"4439","cop","bustani,jikoni,bakus,mechezo","mechezo","n","4","html-keyboard-response","936","n","mechezo","true","",""
"2284","","","","","4","html-slider-response","937","","","","5",""
"20116","marker","maji,mapafu,salita,atay","maji","f","4","html-keyboard-response","938","f","maji","true","",""
"2380","","","","","4","html-slider-response","939","","","","2",""
"7263","window","nanga,kujenga,kweli,umaga","kweli","j","4","html-keyboard-response","940","j","kweli","true","",""
"2097","","","","","4","html-slider-response","941","","","","2",""
"14011","body","nyundu,jibini,tindashan,kununa","tindashan","j","4","html-keyboard-response","942","j","tindashan","true","",""
"2249","","","","","4","html-slider-response","943","","","","5",""
"12937","apple","kisu,ukame,estante,edad","kisu","f","4","html-keyboard-response","944","f","kisu","true","",""
"2291","","","","","4","html-slider-response","945","","","","5",""
"14187","salmon","mzungu,seri,baharia,sensilyo","sensilyo","n","4","html-keyboard-response","946","n","sensilyo","true","",""
"4129","","","","","4","html-slider-response","947","","","","5",""
"8639","bed","kalipay,haraka,mapintas,starehe","mapintas","j","4","html-keyboard-response","948","j","mapintas","true","",""
"2748","","","","","4","html-slider-response","949","","","","4",""
"17151","berry","abogado,nogozi,kinywa,kofia","kofia","n","4","html-keyboard-response","950","n","kofia","true","",""
"2409","","","","","4","html-slider-response","951","","","","2",""
"27859","mirror","sulagma,rangi,kanding,furaha","sulagma","f","4","html-keyboard-response","952","f","sulagma","true","",""
"3947","","","","","4","html-slider-response","953","","","","3",""
"15195","flag","ndege,mkate,trekta,kawa","trekta","j","4","html-keyboard-response","954","n","kawa","false","",""
"2748","","","","","4","html-slider-response","955","","","","4",""
"12531","shoulder","kelele,ndaniya,guruwe,mkuu","mkuu","n","4","html-keyboard-response","956","f","kelele","false","",""
"2538","","","","","4","html-slider-response","957","","","","4",""
"8451","tissue","lamigas,kisiwa,ugomvi,katika","ugomvi","j","4","html-keyboard-response","958","v","kisiwa","false","",""
"2465","","","","","4","html-slider-response","959","","","","4",""
"7274","notebook","msitu,kemia,kila,mdudu","kemia","v","4","html-keyboard-response","960","j","kila","false","",""
"2745","","","","","4","html-slider-response","961","","","","4",""
"9272","snake","jansa,karon,pagtukod,mvringo","pagtukod","j","4","html-keyboard-response","962","j","pagtukod","true","",""
"3238","","","","","4","html-slider-response","963","","","","5",""
"16277","finger","simu,moyo,sufuria,lima","moyo","v","4","html-keyboard-response","964","v","moyo","true","",""
"2643","","","","","4","html-slider-response","965","","","","2",""
"18475","basket","kumbuka,kumba,utepe,hasira","kumba","v","4","html-keyboard-response","966","v","kumba","true","",""
"3773","","","","","4","html-slider-response","967","","","","2",""
"5745","curtain","lisud,mchanga,bulwawan,chubani","mchanga","v","4","html-keyboard-response","968","v","mchanga","true","",""
"2445","","","","","4","html-slider-response","969","","","","5",""
"8676","perfume","bino,sungura,katuyoan,ndogo","katuyoan","j","4","html-keyboard-response","970","j","katuyoan","true","",""
"2281","","","","","4","html-slider-response","971","","","","4",""
"9608","key","miaka,goma,chombo,ahos","chombo","j","4","html-keyboard-response","972","j","chombo","true","",""
"2787","","","","","4","html-slider-response","973","","","","5",""
"8019","olive","bata,jiwe,siagi,welder","jiwe","v","4","html-keyboard-response","974","v","jiwe","true","",""
"1986","","","","","4","html-slider-response","975","","","","5",""
"6753","rose","paghalad,singizi,mwanake,amani","paghalad","f","4","html-keyboard-response","976","f","paghalad","true","",""
"2043","","","","","4","html-slider-response","977","","","","4",""
"13946","bridge","sahani,daima,ngono,panya","sahani","f","4","html-keyboard-response","978","n","panya","false","",""
"4202","","","","","4","html-slider-response","979","","","","4",""
"7538","hill","kushoto,kukimba,matumbo,sweta","matumbo","j","4","html-keyboard-response","980","j","matumbo","true","",""
"2798","","","","","4","html-slider-response","981","","","","4",""
"21450","letter","filimbi,chuma,uhuru,kifua","kifua","n","4","html-keyboard-response","982","n","kifua","true","",""
"2445","","","","","4","html-slider-response","983","","","","4",""
"4738","sock","ndoora,kimysa,mtirka,mamba","mamba","n","4","html-keyboard-response","984","n","mamba","true","",""
"3413","","","","","4","html-slider-response","985","","","","3",""
"4114","fork","baboy,paghago,gorisi,mgonjwa","mgonjwa","n","4","html-keyboard-response","986","n","mgonjwa","true","",""
"2595","","","","","4","html-slider-response","987","","","","4",""
"15148","box","kuacha,rafiki,kitande,adui","adui","n","4","html-keyboard-response","988","n","adui","true","",""
"2450","","","","","4","html-slider-response","989","","","","4",""
"6882","gift","baba,nyange,baso,pagtawag","pagtawag","n","4","html-keyboard-response","990","n","pagtawag","true","",""
"2721","","","","","4","html-slider-response","991","","","","3",""
"25362","bucket","baga,kiatu,ijayo,init","kiatu","v","4","html-keyboard-response","992","n","init","false","",""
"3292","","","","","4","html-slider-response","993","","","","2",""
"32135","shop","nopya,kerida,samaki,ndezu","samaki","j","4","html-keyboard-response","994","f","nopya","false","",""
"2995","","","","","4","html-slider-response","995","","","","2",""
"9619","puppet","napulo,lamok,godoro,mazishi","mazishi","n","4","html-keyboard-response","996","n","mazishi","true","",""
"2948","","","","","4","html-slider-response","997","","","","5",""
"13283","nose","gubat,kopa,sehemu,kidole","sehemu","j","4","html-keyboard-response","998","j","sehemu","true","",""
"2425","","","","","4","html-slider-response","999","","","","1",""
"5595","music","mraba,baiski,mageho,tumbo","baiski","v","4","html-keyboard-response","1000","v","baiski","true","",""
"3379","","","","","4","html-slider-response","1001","","","","4",""
"26362","dog","lubi,washia,bahari,kalamu","bahari","j","4","html-keyboard-response","1002","j","bahari","true","",""
"3121","","","","","4","html-slider-response","1003","","","","5",""
"6362","eel","ishara,msumari,kunywa,kabuang","msumari","v","4","html-keyboard-response","1004","v","msumari","true","",""
"2611","","","","","4","html-slider-response","1005","","","","4",""
"9627","number","shule,kengele,choori,mundamo","mundamo","n","4","html-keyboard-response","1006","n","mundamo","true","",""
"2975","","","","","4","html-slider-response","1007","","","","3",""
"6203","tomato","chupi,chupa,takatak,mvua","mvua","n","4","html-keyboard-response","1008","n","mvua","true","",""
"2208","","","","","4","html-slider-response","1009","","","","5",""
"5365","coffin","barua,tubag,kioo,hulma","kioo","j","4","html-keyboard-response","1010","n","hulma","false","",""
"2754","","","","","4","html-slider-response","1011","","","","4",""
"34448","knee","mvuke,kubale,bili,duka","duka","n","4","html-keyboard-response","1012","j","bili","false","",""
"3842","","","","","4","html-slider-response","1013","","","","1",""
"6366","woman","bandari,bituin,pagtabon,kovuli","pagtabon","j","4","html-keyboard-response","1014","j","pagtabon","true","",""
"2856","","","","","4","html-slider-response","1015","","","","5",""
"20286","stone","ulimwengu,mkasi,wingi,asili","wingi","j","4","html-keyboard-response","1016","n","asili","false","",""
"2243","","","","","4","html-slider-response","1017","","","","2",""
"7658","bread","kaili,dizeli,bugas,dari","dari","n","4","html-keyboard-response","1018","n","dari","true","",""
"2536","","","","","4","html-slider-response","1019","","","","2",""
"20412","triangle","kihozi,bentaha,liog,kasadpan","kasadpan","n","4","html-keyboard-response","1020","n","kasadpan","true","",""
"4572","","","","","4","html-slider-response","1021","","","","4",""
"19548","scissors","duga,mtawa,tanuri,suga","tanuri","j","4","html-keyboard-response","1022","v","mtawa","false","",""
"2632","","","","","4","html-slider-response","1023","","","","2",""
"9946","giraffe","daraja,mahitabo,jumatu,hangyo","mahitabo","v","4","html-keyboard-response","1024","v","mahitabo","true","",""
"4276","","","","","4","html-slider-response","1025","","","","2",""
"11089","flower","bega,tamasha,lobo,usiku","bega","f","4","html-keyboard-response","1026","f","bega","true","",""
"2492","","","","","4","html-slider-response","1027","","","","5",""
"6535","candle","gabi,farasi,kupanda,geza","geza","n","4","html-keyboard-response","1028","v","farasi","false","",""
"2326","","","","","4","html-slider-response","1029","","","","1",""
"5972","mother","kahawa,mbuzi,babaye,jokofu","babaye","j","4","html-keyboard-response","1030","j","babaye","true","",""
"2731","","","","","4","html-slider-response","1031","","","","5",""
"5947","towel","tembo,pagpalit,funzi,pito","pagpalit","v","4","html-keyboard-response","1032","n","pito","false","",""
"2503","","","","","4","html-slider-response","1033","","","","4",""
"2698","elephant","petye,kito,pagduol,suka","kito","v","4","html-keyboard-response","1034","v","kito","true","",""
"2221","","","","","4","html-slider-response","1035","","","","5",""
"12768","shelf","bungtod,pamahaw,kadaot,awit","pamahaw","v","4","html-keyboard-response","1036","j","kadaot","false","",""
"2942","","","","","4","html-slider-response","1037","","","","2",""
"4072","mosquito","isda,martilyo,taras,gutom","martilyo","v","4","html-keyboard-response","1038","v","martilyo","true","",""
"2789","","","","","4","html-slider-response","1039","","","","5",""
"20451","column","pundok,ufagio,dila,pala","ufagio","v","4","html-keyboard-response","1040","j","dila","false","",""
"2290","","","","","4","html-slider-response","1041","","","","1",""
"5176","pants","haki,pintal,chuki,hari","haki","f","4","html-keyboard-response","1042","f","haki","true","",""
"2588","","","","","4","html-slider-response","1043","","","","3",""
"6117","list","alizeti,kuzama,kaso,wingu","wingu","n","4","html-keyboard-response","1044","j","kaso","false","",""
"2530","","","","","4","html-slider-response","1045","","","","2",""
"9585","bank","silingan,kudhibi,tualya,ofisi","silingan","f","4","html-keyboard-response","1046","f","silingan","true","",""
"2293","","","","","4","html-slider-response","1047","","","","4",""
"5496","clock","kartasi,abang,osha,mbwa","mbwa","n","4","html-keyboard-response","1048","n","mbwa","true","",""
"1986","","","","","4","html-slider-response","1049","","","","2",""
"6410","ceiling","maua,kugita,kawaida,rayna","maua","f","4","html-keyboard-response","1050","j","kawaida","false","",""
"2104","","","","","4","html-slider-response","1051","","","","1",""
"4511","train","sayari,itik,dakika,mungu","sayari","f","4","html-keyboard-response","1052","f","sayari","true","",""
"2797","","","","","4","html-slider-response","1053","","","","4",""
"6250","magazine","gundi,mchawi,kiti,bahandi","kiti","j","4","html-keyboard-response","1054","n","bahandi","false","",""
"3683","","","","","4","html-slider-response","1055","","","","3",""
"8156","office","hazini,yatima,leso,kuna","leso","j","4","html-keyboard-response","1056","j","leso","true","",""
"2523","","","","","4","html-slider-response","1057","","","","4",""
"4530","wheel","punda,tawo,baadaye,bafuni","bafuni","n","4","html-keyboard-response","1058","n","bafuni","true","",""
"3093","","","","","4","html-slider-response","1059","","","","1",""
"9896","spoon","betri,nzuri,ngazi,pagsulod","pagsulod","n","4","html-keyboard-response","1060","n","pagsulod","true","",""
"3763","","","","","4","html-slider-response","1061","","","","4",""
"5633","hammer","mekno,kitovu,napakyas,layag","napakyas","j","4","html-keyboard-response","1062","j","napakyas","true","",""
"6020","","","","","4","html-slider-response","1063","","","","3",""
"27345","cigar","ndugu,kuta,adhabu,mlango","adhabu","j","4","html-keyboard-response","1064","j","adhabu","true","",""
"2954","","","","","4","html-slider-response","1065","","","","5",""
"16068","shoe","nyeusi,hatua,uyoga,kama","uyoga","j","4","html-keyboard-response","1066","v","hatua","false","",""
"2907","","","","","4","html-slider-response","1067","","","","2",""
"4927","list","alizeti,kuzama,kaso,wingu","wingu","n","5","html-keyboard-response","1069","j","kaso","false","",""
"2806","","","","","5","html-slider-response","1070","","","","4",""
"7930","number","shule,kengele,mundamo,choori","mundamo","j","5","html-keyboard-response","1071","j","mundamo","true","",""
"2075","","","","","5","html-slider-response","1072","","","","4",""
"3916","apple","ukame,estante,edad,kisu","kisu","n","5","html-keyboard-response","1073","n","kisu","true","",""
"3263","","","","","5","html-slider-response","1074","","","","5",""
"11037","knee","mvuke,kubale,bili,duka","duka","n","5","html-keyboard-response","1075","j","bili","false","",""
"2760","","","","","5","html-slider-response","1076","","","","4",""
"27594","tooth","kijiko,kabalaka,uadui,pahiyum","kabalaka","v","5","html-keyboard-response","1077","n","pahiyum","false","",""
"1995","","","","","5","html-slider-response","1078","","","","2",""
"8939","berry","abogado,nogozi,kinywa,kofia","kofia","n","5","html-keyboard-response","1079","v","nogozi","false","",""
"1866","","","","","5","html-slider-response","1080","","","","2",""
"5620","bridge","daima,ngono,panya,sahani","sahani","n","5","html-keyboard-response","1081","j","panya","false","",""
"2946","","","","","5","html-slider-response","1082","","","","2",""
"15268","perfume","bino,sungura,katuyoan,ndogo","katuyoan","j","5","html-keyboard-response","1083","j","katuyoan","true","",""
"4593","","","","","5","html-slider-response","1084","","","","2",""
"6050","ladder","pangalan,mashua,mwanga,kamba","pangalan","f","5","html-keyboard-response","1085","f","pangalan","true","",""
"2321","","","","","5","html-slider-response","1086","","","","4",""
"23423","pants","pintal,chuki,hari,haki","haki","n","5","html-keyboard-response","1087","n","haki","true","",""
"1908","","","","","5","html-slider-response","1088","","","","5",""
"3107","salmon","mzungu,seri,sensilyo,baharia","sensilyo","j","5","html-keyboard-response","1089","j","sensilyo","true","",""
"3127","","","","","5","html-slider-response","1090","","","","5",""
"3393","coffin","kioo,barua,tubag,hulma","kioo","f","5","html-keyboard-response","1091","n","hulma","false","",""
"2444","","","","","5","html-slider-response","1092","","","","4",""
"7542","park","tambok,pwani,ihalas,bunifu","bunifu","n","5","html-keyboard-response","1093","f","tambok","false","",""
"2052","","","","","5","html-slider-response","1094","","","","2",""
"6444","giraffe","mahitabo,daraja,jumatu,hangyo","mahitabo","f","5","html-keyboard-response","1095","f","mahitabo","true","",""
"2411","","","","","5","html-slider-response","1096","","","","2",""
"5976","mirror","rangi,sulagma,kanding,furaha","sulagma","v","5","html-keyboard-response","1097","v","sulagma","true","",""
"3024","","","","","5","html-slider-response","1098","","","","2",""
"6276","ceiling","kugita,kawaida,maua,rayna","maua","j","5","html-keyboard-response","1099","j","maua","true","",""
"2475","","","","","5","html-slider-response","1100","","","","2",""
"22548","marker","mapafu,salita,atay,maji","maji","n","5","html-keyboard-response","1101","v","salita","false","",""
"2514","","","","","5","html-slider-response","1102","","","","2",""
"2977","sock","ndoora,kimysa,mamba,mtirka","mamba","j","5","html-keyboard-response","1103","j","mamba","true","",""
"2268","","","","","5","html-slider-response","1104","","","","4",""
"6251","cop","bustani,jikoni,bakus,mechezo","mechezo","n","5","html-keyboard-response","1105","n","mechezo","true","",""
"2169","","","","","5","html-slider-response","1106","","","","5",""
"9793","gift","pagtawag,baba,nyange,baso","pagtawag","f","5","html-keyboard-response","1107","f","pagtawag","true","",""
"2058","","","","","5","html-slider-response","1108","","","","4",""
"6619","notebook","msitu,kila,mdudu,kemia","kemia","n","5","html-keyboard-response","1109","v","kila","false","",""
"3584","","","","","5","html-slider-response","1110","","","","2",""
"6340","bank","kudhibi,tualya,ofisi,silingan","silingan","n","5","html-keyboard-response","1111","n","silingan","true","",""
"2773","","","","","5","html-slider-response","1112","","","","4",""
"4756","letter","kifua,filimbi,chuma,uhuru","kifua","f","5","html-keyboard-response","1113","f","kifua","true","",""
"2643","","","","","5","html-slider-response","1114","","","","4",""
"5312","candle","gabi,farasi,kupanda,geza","geza","n","5","html-keyboard-response","1115","v","farasi","false","",""
"3268","","","","","5","html-slider-response","1116","","","","4",""
"7003","bread","dari,kaili,dizeli,bugas","dari","f","5","html-keyboard-response","1117","f","dari","true","",""
"3722","","","","","5","html-slider-response","1118","","","","1",""
"9853","snake","pagtukod,jansa,karon,mvringo","pagtukod","f","5","html-keyboard-response","1119","f","pagtukod","true","",""
"2664","","","","","5","html-slider-response","1120","","","","5",""
"8963","rose","singizi,paghalad,mwanake,amani","paghalad","v","5","html-keyboard-response","1121","v","paghalad","true","",""
"1979","","","","","5","html-slider-response","1122","","","","4",""
"16154","hill","kushoto,matumbo,kukimba,sweta","matumbo","v","5","html-keyboard-response","1123","v","matumbo","true","",""
"3114","","","","","5","html-slider-response","1124","","","","5",""
"7002","train","itik,dakika,mungu,sayari","sayari","n","5","html-keyboard-response","1125","n","sayari","true","",""
"2226","","","","","5","html-slider-response","1126","","","","5",""
"13203","shop","nopya,samaki,kerida,ndezu","samaki","v","5","html-keyboard-response","1127","f","nopya","false","",""
"3889","","","","","5","html-slider-response","1128","","","","4",""
"4764","nose","gubat,kopa,sehemu,kidole","sehemu","j","5","html-keyboard-response","1129","v","kopa","false","",""
"2371","","","","","5","html-slider-response","1130","","","","4",""
"5685","boat","hamsi,agalon,pombe,kitanda","agalon","v","5","html-keyboard-response","1131","n","kitanda","false","",""
"1761","","","","","5","html-slider-response","1132","","","","2",""
"8662","body","nyundu,jibini,kununa,tindashan","tindashan","n","5","html-keyboard-response","1133","n","tindashan","true","",""
"2154","","","","","5","html-slider-response","1134","","","","5",""
"5616","bed","kalipay,haraka,mapintas,starehe","mapintas","j","5","html-keyboard-response","1135","j","mapintas","true","",""
"2030","","","","","5","html-slider-response","1136","","","","5",""
"6618","squirrel","mahugaw,ukweli,hofu,kichwa","hofu","j","5","html-keyboard-response","1137","j","hofu","true","",""
"5084","","","","","5","html-slider-response","1138","","","","2",""
"9528","window","nanga,kujenga,umaga,kweli","kweli","n","5","html-keyboard-response","1139","n","kweli","true","",""
"2308","","","","","5","html-slider-response","1140","","","","5",""
"4742","bonfire","mwezi,mfuko,goti,kusanya","goti","j","5","html-keyboard-response","1141","n","kusanya","false","",""
"3619","","","","","5","html-slider-response","1142","","","","3",""
"17744","fish","bala,buli,baho,imani","buli","v","5","html-keyboard-response","1143","v","buli","true","",""
"2074","","","","","5","html-slider-response","1144","","","","2",""
"5073","cat","neyemba,baki,paghukom,akili","paghukom","j","5","html-keyboard-response","1145","j","paghukom","true","",""
"2457","","","","","5","html-slider-response","1146","","","","5",""
"6747","spider","kamwe,bunyag,mkboa,atop","kamwe","f","5","html-keyboard-response","1147","n","atop","false","",""
"2558","","","","","5","html-slider-response","1148","","","","2",""
"8299","eel","msumari,ishara,kunywa,kabuang","msumari","f","5","html-keyboard-response","1149","f","msumari","true","",""
"2036","","","","","5","html-slider-response","1150","","","","2",""
"4576","woman","bandari,bituin,pagtabon,kovuli","pagtabon","j","5","html-keyboard-response","1151","j","pagtabon","true","",""
"3043","","","","","5","html-slider-response","1152","","","","5",""
"8325","magazine","gundi,kiti,mchawi,bahandi","kiti","v","5","html-keyboard-response","1153","n","bahandi","false","",""
"5275","","","","","5","html-slider-response","1154","","","","5",""
"4025","pudding","aibu,abug,mpishi,iring","aibu","f","5","html-keyboard-response","1155","f","aibu","true","",""
"2875","","","","","5","html-slider-response","1156","","","","3",""
"5838","lamp","afya,daub,bilaska,mbolea","afya","f","5","html-keyboard-response","1157","j","bilaska","false","",""
"2761","","","","","5","html-slider-response","1158","","","","2",""
"9036","cave","kesho,ganti,maisha,nyundo","kesho","f","5","html-keyboard-response","1159","f","kesho","true","",""
"4419","","","","","5","html-slider-response","1160","","","","3",""
"3818","shoulder","kelele,mkuu,ndaniya,guruwe","mkuu","v","5","html-keyboard-response","1161","f","kelele","false","",""
"2315","","","","","5","html-slider-response","1162","","","","4",""
"9018","stone","wingi,ulimwengu,mkasi,asili","wingi","f","5","html-keyboard-response","1163","n","asili","false","",""
"1964","","","","","5","html-slider-response","1164","","","","4",""
"6776","column","pundok,dila,ufagio,pala","ufagio","j","5","html-keyboard-response","1165","j","ufagio","true","",""
"3288","","","","","5","html-slider-response","1166","","","","4",""
"6946","page","wakala,wimbo,ishiri,skina","wimbo","v","5","html-keyboard-response","1167","f","wakala","false","",""
"2088","","","","","5","html-slider-response","1168","","","","3",""
"6147","shoe","nyeusi,hatua,uyoga,kama","uyoga","j","5","html-keyboard-response","1169","v","hatua","false","",""
"1248","","","","","5","html-slider-response","1170","","","","2",""
"5554","clock","mbwa,kartasi,abang,osha","mbwa","f","5","html-keyboard-response","1171","f","mbwa","true","",""
"1670","","","","","5","html-slider-response","1172","","","","2",""
"5439","towel","tembo,funzi,pagpalit,pito","pagpalit","j","5","html-keyboard-response","1173","n","pito","false","",""
"2414","","","","","5","html-slider-response","1174","","","","4",""
"2545","tomato","chupi,chupa,takatak,mvua","mvua","n","5","html-keyboard-response","1175","n","mvua","true","",""
"1791","","","","","5","html-slider-response","1176","","","","5",""
"4940","bucket","baga,kiatu,ijayo,init","kiatu","v","5","html-keyboard-response","1177","n","init","false","",""
"5214","","","","","5","html-slider-response","1178","","","","2",""
"8895","finger","simu,sufuria,lima,moyo","moyo","n","5","html-keyboard-response","1179","n","moyo","true","",""
"2924","","","","","5","html-slider-response","1180","","","","3",""
"3724","mother","babaye,kahawa,mbuzi,jokofu","babaye","f","5","html-keyboard-response","1181","f","babaye","true","",""
"1860","","","","","5","html-slider-response","1182","","","","5",""
"14322","human","tinapay,bado,kikapu,punguza","tinapay","f","5","html-keyboard-response","1183","f","tinapay","true","",""
"2172","","","","","5","html-slider-response","1184","","","","5",""
"3782","sun","bendi,luha,basi,uongo","basi","j","5","html-keyboard-response","1185","j","basi","true","",""
"1756","","","","","5","html-slider-response","1186","","","","5",""
"4453","fork","mgonjwa,baboy,paghago,gorisi","mgonjwa","f","5","html-keyboard-response","1187","f","mgonjwa","true","",""
"1515","","","","","5","html-slider-response","1188","","","","4",""
"18730","donkey","bloke,lalake,rombus,elfu","elfu","n","5","html-keyboard-response","1189","n","elfu","true","",""
"1619","","","","","5","html-slider-response","1190","","","","5",""
"4522","wolf","lugha,kaburi,ndizi,mchuzi","lugha","f","5","html-keyboard-response","1191","f","lugha","true","",""
"1592","","","","","5","html-slider-response","1192","","","","5",""
"7084","cigar","ndugu,adhabu,kuta,mlango","adhabu","v","5","html-keyboard-response","1193","v","adhabu","true","",""
"2326","","","","","5","html-slider-response","1194","","","","2",""
"11906","olive","bata,siagi,jiwe,welder","jiwe","j","5","html-keyboard-response","1195","f","bata","false","",""
"3377","","","","","5","html-slider-response","1196","","","","3",""
"2924","key","miaka,goma,ahos,chombo","chombo","n","5","html-keyboard-response","1197","n","chombo","true","",""
"3132","","","","","5","html-slider-response","1198","","","","5",""
"11547","door","surali,tena,soko,nyota","surali","f","5","html-keyboard-response","1199","f","surali","true","",""
"1823","","","","","5","html-slider-response","1200","","","","2",""
"4290","wheel","bafuni,punda,tawo,baadaye","bafuni","f","5","html-keyboard-response","1201","f","bafuni","true","",""
"1520","","","","","5","html-slider-response","1202","","","","2",""
"4812","basket","kumbuka,utepe,hasira,kumba","kumba","n","5","html-keyboard-response","1203","n","kumba","true","",""
"1579","","","","","5","html-slider-response","1204","","","","4",""
"2658","elephant","petye,pagduol,kito,suka","kito","j","5","html-keyboard-response","1205","j","kito","true","",""
"3038","","","","","5","html-slider-response","1206","","","","5",""
"6202","office","hazini,yatima,leso,kuna","leso","j","5","html-keyboard-response","1207","j","leso","true","",""
"4489","","","","","5","html-slider-response","1208","","","","2",""
"3526","music","mraba,mageho,baiski,tumbo","baiski","j","5","html-keyboard-response","1209","j","baiski","true","",""
"2811","","","","","5","html-slider-response","1210","","","","5",""
"6987","tissue","lamigas,kisiwa,ugomvi,katika","ugomvi","j","5","html-keyboard-response","1211","v","kisiwa","false","",""
"1971","","","","","5","html-slider-response","1212","","","","2",""
"7892","curtain","lisud,bulwawan,mchanga,chubani","mchanga","j","5","html-keyboard-response","1213","j","mchanga","true","",""
"2623","","","","","5","html-slider-response","1214","","","","3",""
"5925","flag","ndege,mkate,trekta,kawa","trekta","j","5","html-keyboard-response","1215","n","kawa","false","",""
"1863","","","","","5","html-slider-response","1216","","","","2",""
"9063","dog","lubi,bahari,washia,kalamu","bahari","v","5","html-keyboard-response","1217","v","bahari","true","",""
"1642","","","","","5","html-slider-response","1218","","","","1",""
"9340","cup","dagat,shimoni,matumai,jeraha","matumai","j","5","html-keyboard-response","1219","n","jeraha","false","",""
"2242","","","","","5","html-slider-response","1220","","","","1",""
"9845","sheet","juuya,watu,kamantis,bililhon","bililhon","n","5","html-keyboard-response","1221","v","watu","false","",""
"2180","","","","","5","html-slider-response","1222","","","","2",""
"5779","spoon","betri,nzuri,pagsulod,ngazi","pagsulod","j","5","html-keyboard-response","1223","n","ngazi","false","",""
"2525","","","","","5","html-slider-response","1224","","","","4",""
"8682","flower","tamasha,lobo,bega,usiku","bega","j","5","html-keyboard-response","1225","j","bega","true","",""
"2216","","","","","5","html-slider-response","1226","","","","5",""
"5834","picture","silya,kubwa,chaki,asin","kubwa","v","5","html-keyboard-response","1227","f","silya","false","",""
"2083","","","","","5","html-slider-response","1228","","","","3",""
"4217","puppet","mazishi,napulo,lamok,godoro","mazishi","f","5","html-keyboard-response","1229","f","mazishi","true","",""
"2122","","","","","5","html-slider-response","1230","","","","1",""
"7987","banana","kazi,kasamok,hagdan,twai","kazi","f","5","html-keyboard-response","1231","f","kazi","true","",""
"2769","","","","","5","html-slider-response","1232","","","","5",""
"7502","book","kuhesa,picha,mali,mara","mali","j","5","html-keyboard-response","1233","f","kuhesa","false","",""
"3355","","","","","5","html-slider-response","1234","","","","2",""
"4816","triangle","kihozi,bentaha,kasadpan,liog","kasadpan","j","5","html-keyboard-response","1235","v","bentaha","false","",""
"1825","","","","","5","html-slider-response","1236","","","","4",""
"6044","poster","madungog,nchi,fedha,kasuko","madungog","f","5","html-keyboard-response","1237","n","kasuko","false","",""
"2016","","","","","5","html-slider-response","1238","","","","4",""
"3626","box","kuacha,adui,rafiki,kitande","adui","v","5","html-keyboard-response","1239","n","kitande","false","",""
"2277","","","","","5","html-slider-response","1240","","","","4",""
"2744","mosquito","isda,taras,gutom,martilyo","martilyo","n","5","html-keyboard-response","1241","n","martilyo","true","",""
"1521","","","","","5","html-slider-response","1242","","","","5",""
"5028","shelf","bungtod,kadaot,awit,pamahaw","pamahaw","n","5","html-keyboard-response","1243","j","awit","false","",""
"1393","","","","","5","html-slider-response","1244","","","","4",""
"4660","scissors","duga,tanuri,mtawa,suga","tanuri","v","5","html-keyboard-response","1245","n","suga","false","",""
"1956","","","","","5","html-slider-response","1246","","","","2",""
"8716","hammer","mekno,kitovu,napakyas,layag","napakyas","j","5","html-keyboard-response","1247","j","napakyas","true","",""
"2172","","","","","5","html-slider-response","1248","","","","1",""
