"rt","en_word","options","swa_word","correct_answer","phase","trial_type","trial_index","input_answer","input_word","accuracy","certainty","amt_choices"
"11699","bonfire","mwezi,goti,mfuko,kusanya","goti","v","2","html-keyboard-response","106","n","kusanya","false","",""
"2765","","","","","2","html-slider-response","107","","","","1",""
"4251","flower","bega,tamasha,lobo,usiku","bega","f","2","html-keyboard-response","108","f","bega","true","",""
"2885","","","","","2","html-slider-response","109","","","","1",""
"4053","column","pundok,dila,ufagio,pala","ufagio","j","2","html-keyboard-response","110","j","ufagio","true","",""
"2979","","","","","2","html-slider-response","111","","","","1",""
"3033","music","baiski,mraba,mageho,tumbo","baiski","f","2","html-keyboard-response","112","j","mageho","false","",""
"3391","","","","","2","html-slider-response","113","","","","1",""
"3118","spider","bunyag,kamwe,mkboa,atop","kamwe","v","2","html-keyboard-response","114","v","kamwe","true","",""
"2481","","","","","2","html-slider-response","115","","","","1",""
"2680","fork","baboy,paghago,gorisi,mgonjwa","mgonjwa","n","2","html-keyboard-response","116","n","mgonjwa","true","",""
"3881","","","","","2","html-slider-response","117","","","","4",""
"4597","mosquito","isda,taras,gutom,martilyo","martilyo","n","2","html-keyboard-response","118","n","martilyo","true","",""
"2539","","","","","2","html-slider-response","119","","","","4",""
"9973","banana","kasamok,kazi,hagdan,twai","kazi","v","2","html-keyboard-response","120","v","kazi","true","",""
"3293","","","","","2","html-slider-response","121","","","","1",""
"12057","cup","dagat,shimoni,matumai,jeraha","matumai","j","2","html-keyboard-response","122","j","matumai","true","",""
"3235","","","","","2","html-slider-response","123","","","","1",""
"5650","shop","samaki,nopya,kerida,ndezu","samaki","f","2","html-keyboard-response","124","n","ndezu","false","",""
"2804","","","","","2","html-slider-response","125","","","","1",""
"4737","elephant","kito,petye,pagduol,suka","kito","f","2","html-keyboard-response","126","v","petye","false","",""
"3268","","","","","2","html-slider-response","127","","","","1",""
"5901","bucket","baga,kiatu,ijayo,init","kiatu","v","2","html-keyboard-response","128","f","baga","false","",""
"2433","","","","","2","html-slider-response","129","","","","2",""
"3657","book","kuhesa,picha,mali,mara","mali","j","2","html-keyboard-response","130","n","mara","false","",""
"2363","","","","","2","html-slider-response","131","","","","2",""
"9082","mirror","rangi,kanding,furaha,sulagma","sulagma","n","2","html-keyboard-response","132","j","furaha","false","",""
"2513","","","","","2","html-slider-response","133","","","","1",""
"4826","office","hazini,yatima,kuna,leso","leso","n","2","html-keyboard-response","134","v","yatima","false","",""
"2931","","","","","2","html-slider-response","135","","","","1",""
"3988","body","tindashan,nyundu,jibini,kununa","tindashan","f","2","html-keyboard-response","136","n","kununa","false","",""
"2718","","","","","2","html-slider-response","137","","","","2",""
"4050","perfume","bino,katuyoan,sungura,ndogo","katuyoan","v","2","html-keyboard-response","138","j","sungura","false","",""
"2339","","","","","2","html-slider-response","139","","","","2",""
"6306","olive","bata,siagi,welder,jiwe","jiwe","n","2","html-keyboard-response","140","f","bata","false","",""
"2939","","","","","2","html-slider-response","141","","","","1",""
"2359","magazine","gundi,mchawi,kiti,bahandi","kiti","j","2","html-keyboard-response","142","v","mchawi","false","",""
"2392","","","","","2","html-slider-response","143","","","","1",""
"4031","bread","kaili,dizeli,bugas,dari","dari","n","2","html-keyboard-response","144","n","dari","true","",""
"2404","","","","","2","html-slider-response","145","","","","1",""
"43840","cave","ganti,maisha,nyundo,kesho","kesho","n","2","html-keyboard-response","146","n","kesho","true","",""
"2699","","","","","2","html-slider-response","147","","","","1",""
"2551","ladder","mashua,mwanga,kamba,pangalan","pangalan","n","2","html-keyboard-response","148","v","mwanga","false","",""
"2008","","","","","2","html-slider-response","149","","","","1",""
"28472","human","bado,kikapu,tinapay,punguza","tinapay","j","2","html-keyboard-response","150","n","punguza","false","",""
"2475","","","","","2","html-slider-response","151","","","","1",""
"12333","clock","kartasi,abang,mbwa,osha","mbwa","j","2","html-keyboard-response","152","v","abang","false","",""
"2328","","","","","2","html-slider-response","153","","","","1",""
"3805","shelf","bungtod,kadaot,awit,pamahaw","pamahaw","n","2","html-keyboard-response","154","f","bungtod","false","",""
"2434","","","","","2","html-slider-response","155","","","","1",""
"2828","salmon","sensilyo,mzungu,seri,baharia","sensilyo","f","2","html-keyboard-response","156","j","seri","false","",""
"2349","","","","","2","html-slider-response","157","","","","1",""
"3889","coffin","barua,kioo,tubag,hulma","kioo","v","2","html-keyboard-response","158","j","tubag","false","",""
"4588","","","","","2","html-slider-response","159","","","","2",""
"3478","notebook","msitu,kemia,kila,mdudu","kemia","v","2","html-keyboard-response","160","n","mdudu","false","",""
"2735","","","","","2","html-slider-response","161","","","","1",""
"3647","shoulder","mkuu,kelele,ndaniya,guruwe","mkuu","f","2","html-keyboard-response","162","v","kelele","false","",""
"2241","","","","","2","html-slider-response","163","","","","1",""
"2871","park","tambok,pwani,bunifu,ihalas","bunifu","j","2","html-keyboard-response","164","f","tambok","false","",""
"2512","","","","","2","html-slider-response","165","","","","1",""
"3720","number","shule,kengele,choori,mundamo","mundamo","n","2","html-keyboard-response","166","n","mundamo","true","",""
"2732","","","","","2","html-slider-response","167","","","","2",""
"5656","apple","ukame,estante,kisu,edad","kisu","j","2","html-keyboard-response","168","f","ukame","false","",""
"2466","","","","","2","html-slider-response","169","","","","1",""
"13093","letter","filimbi,chuma,kifua,uhuru","kifua","j","2","html-keyboard-response","170","j","kifua","true","",""
"2542","","","","","2","html-slider-response","171","","","","2",""
"2702","eel","msumari,ishara,kunywa,kabuang","msumari","f","2","html-keyboard-response","172","v","ishara","false","",""
"2338","","","","","2","html-slider-response","173","","","","2",""
"2677","cop","mechezo,bustani,jikoni,bakus","mechezo","f","2","html-keyboard-response","174","v","bustani","false","",""
"4088","","","","","2","html-slider-response","175","","","","1",""
"4416","wolf","kaburi,ndizi,lugha,mchuzi","lugha","j","2","html-keyboard-response","176","f","kaburi","false","",""
"2566","","","","","2","html-slider-response","177","","","","1",""
"4288","squirrel","mahugaw,ukweli,kichwa,hofu","hofu","n","2","html-keyboard-response","178","f","mahugaw","false","",""
"4097","","","","","2","html-slider-response","179","","","","1",""
"5581","nose","gubat,kopa,sehemu,kidole","sehemu","j","2","html-keyboard-response","180","v","kopa","false","",""
"2578","","","","","2","html-slider-response","181","","","","1",""
"7955","sock","mamba,ndoora,kimysa,mtirka","mamba","f","2","html-keyboard-response","182","f","mamba","true","",""
"2139","","","","","2","html-slider-response","183","","","","1",""
"3205","bank","silingan,kudhibi,tualya,ofisi","silingan","f","2","html-keyboard-response","184","n","ofisi","false","",""
"1946","","","","","2","html-slider-response","185","","","","2",""
"3347","donkey","bloke,lalake,rombus,elfu","elfu","n","2","html-keyboard-response","186","n","elfu","true","",""
"2168","","","","","2","html-slider-response","187","","","","1",""
"4118","poster","madungog,nchi,fedha,kasuko","madungog","f","2","html-keyboard-response","188","f","madungog","true","",""
"2287","","","","","2","html-slider-response","189","","","","1",""
"4945","puppet","napulo,mazishi,lamok,godoro","mazishi","v","2","html-keyboard-response","190","j","lamok","false","",""
"2619","","","","","2","html-slider-response","191","","","","1",""
"5025","hill","kushoto,kukimba,sweta,matumbo","matumbo","n","2","html-keyboard-response","192","v","kukimba","false","",""
"2452","","","","","2","html-slider-response","193","","","","1",""
"4331","tooth","kabalaka,kijiko,uadui,pahiyum","kabalaka","f","2","html-keyboard-response","194","j","uadui","false","",""
"3402","","","","","2","html-slider-response","195","","","","1",""
"13403","woman","bandari,bituin,pagtabon,kovuli","pagtabon","j","2","html-keyboard-response","196","f","bandari","false","",""
"2505","","","","","2","html-slider-response","197","","","","2",""
"5333","wheel","punda,tawo,bafuni,baadaye","bafuni","j","2","html-keyboard-response","198","n","baadaye","false","",""
"2415","","","","","2","html-slider-response","199","","","","2",""
"4471","mother","kahawa,mbuzi,jokofu,babaye","babaye","n","2","html-keyboard-response","200","n","babaye","true","",""
"2769","","","","","2","html-slider-response","201","","","","5",""
"4497","bed","mapintas,kalipay,haraka,starehe","mapintas","f","2","html-keyboard-response","202","n","starehe","false","",""
"2912","","","","","2","html-slider-response","203","","","","1",""
"2515","key","chombo,miaka,goma,ahos","chombo","f","2","html-keyboard-response","204","f","chombo","true","",""
"2984","","","","","2","html-slider-response","205","","","","5",""
"3023","page","wimbo,wakala,ishiri,skina","wimbo","f","2","html-keyboard-response","206","v","wakala","false","",""
"2583","","","","","2","html-slider-response","207","","","","1",""
"5771","pants","pintal,chuki,haki,hari","haki","j","2","html-keyboard-response","208","j","haki","true","",""
"2797","","","","","2","html-slider-response","209","","","","5",""
"2385","sun","bendi,luha,uongo,basi","basi","n","2","html-keyboard-response","210","n","basi","true","",""
"3007","","","","","2","html-slider-response","211","","","","1",""
"2963","finger","simu,sufuria,moyo,lima","moyo","j","2","html-keyboard-response","212","j","moyo","true","",""
"3038","","","","","2","html-slider-response","213","","","","5",""
"4954","shoe","nyeusi,hatua,uyoga,kama","uyoga","j","2","html-keyboard-response","214","n","kama","false","",""
"3818","","","","","2","html-slider-response","215","","","","1",""
"2576","giraffe","daraja,mahitabo,jumatu,hangyo","mahitabo","v","2","html-keyboard-response","216","v","mahitabo","true","",""
"2394","","","","","2","html-slider-response","217","","","","1",""
"6157","dog","lubi,washia,kalamu,bahari","bahari","n","2","html-keyboard-response","218","n","bahari","true","",""
"2399","","","","","2","html-slider-response","219","","","","5",""
"5159","box","kuacha,rafiki,kitande,adui","adui","n","2","html-keyboard-response","220","n","adui","true","",""
"3414","","","","","2","html-slider-response","221","","","","1",""
"3220","scissors","tanuri,duga,mtawa,suga","tanuri","f","2","html-keyboard-response","222","j","mtawa","false","",""
"2284","","","","","2","html-slider-response","223","","","","1",""
"5559","cat","neyemba,paghukom,baki,akili","paghukom","v","2","html-keyboard-response","224","v","paghukom","true","",""
"2828","","","","","2","html-slider-response","225","","","","4",""
"11016","basket","kumba,kumbuka,utepe,hasira","kumba","f","2","html-keyboard-response","226","v","kumbuka","false","",""
"2878","","","","","2","html-slider-response","227","","","","1",""
"4403","snake","jansa,karon,mvringo,pagtukod","pagtukod","n","2","html-keyboard-response","228","n","pagtukod","true","",""
"2709","","","","","2","html-slider-response","229","","","","1",""
"2448","gift","baba,nyange,baso,pagtawag","pagtawag","n","2","html-keyboard-response","230","v","nyange","false","",""
"2703","","","","","2","html-slider-response","231","","","","1",""
"7323","train","itik,sayari,dakika,mungu","sayari","v","2","html-keyboard-response","232","n","mungu","false","",""
"3033","","","","","2","html-slider-response","233","","","","2",""
"2485","pudding","abug,aibu,mpishi,iring","aibu","v","2","html-keyboard-response","234","n","iring","false","",""
"3073","","","","","2","html-slider-response","235","","","","1",""
"3064","tomato","mvua,chupi,chupa,takatak","mvua","f","2","html-keyboard-response","236","n","takatak","false","",""
"2973","","","","","2","html-slider-response","237","","","","1",""
"2921","stone","ulimwengu,mkasi,wingi,asili","wingi","j","2","html-keyboard-response","238","n","asili","false","",""
"2443","","","","","2","html-slider-response","239","","","","1",""
"9032","hammer","mekno,kitovu,napakyas,layag","napakyas","j","2","html-keyboard-response","240","f","mekno","false","",""
"2467","","","","","2","html-slider-response","241","","","","1",""
"3406","knee","duka,mvuke,kubale,bili","duka","f","2","html-keyboard-response","242","n","bili","false","",""
"2428","","","","","2","html-slider-response","243","","","","4",""
"2568","ceiling","kugita,kawaida,rayna,maua","maua","n","2","html-keyboard-response","244","j","rayna","false","",""
"2274","","","","","2","html-slider-response","245","","","","1",""
"6467","spoon","pagsulod,betri,nzuri,ngazi","pagsulod","f","2","html-keyboard-response","246","v","betri","false","",""
"2533","","","","","2","html-slider-response","247","","","","1",""
"4753","marker","mapafu,salita,atay,maji","maji","n","2","html-keyboard-response","248","v","salita","false","",""
"2622","","","","","2","html-slider-response","249","","","","1",""
"2109","candle","gabi,geza,farasi,kupanda","geza","v","2","html-keyboard-response","250","v","geza","true","",""
"2527","","","","","2","html-slider-response","251","","","","1",""
"4001","tissue","ugomvi,lamigas,kisiwa,katika","ugomvi","f","2","html-keyboard-response","252","v","lamigas","false","",""
"2392","","","","","2","html-slider-response","253","","","","1",""
"2901","bridge","daima,ngono,panya,sahani","sahani","n","2","html-keyboard-response","254","v","ngono","false","",""
"2916","","","","","2","html-slider-response","255","","","","1",""
"4509","berry","abogado,nogozi,kinywa,kofia","kofia","n","2","html-keyboard-response","256","n","kofia","true","",""
"3044","","","","","2","html-slider-response","257","","","","5",""
"3391","triangle","kihozi,kasadpan,bentaha,liog","kasadpan","v","2","html-keyboard-response","258","v","kasadpan","true","",""
"2357","","","","","2","html-slider-response","259","","","","1",""
"14632","door","tena,soko,nyota,surali","surali","n","2","html-keyboard-response","260","n","surali","true","",""
"2554","","","","","2","html-slider-response","261","","","","1",""
"5373","fish","bala,buli,baho,imani","buli","v","2","html-keyboard-response","262","j","baho","false","",""
"2332","","","","","2","html-slider-response","263","","","","2",""
"13942","curtain","lisud,mchanga,bulwawan,chubani","mchanga","v","2","html-keyboard-response","264","v","mchanga","true","",""
"2336","","","","","2","html-slider-response","265","","","","1",""
"6817","flag","ndege,mkate,kawa,trekta","trekta","n","2","html-keyboard-response","266","n","trekta","true","",""
"2272","","","","","2","html-slider-response","267","","","","4",""
"5247","boat","hamsi,pombe,agalon,kitanda","agalon","j","2","html-keyboard-response","268","j","agalon","true","",""
"2834","","","","","2","html-slider-response","269","","","","4",""
"2482","rose","singizi,mwanake,paghalad,amani","paghalad","j","2","html-keyboard-response","270","v","mwanake","false","",""
"4851","","","","","2","html-slider-response","271","","","","2",""
"6889","lamp","daub,bilaska,mbolea,afya","afya","n","2","html-keyboard-response","272","v","bilaska","false","",""
"3221","","","","","2","html-slider-response","273","","","","2",""
"4062","cigar","ndugu,kuta,adhabu,mlango","adhabu","j","2","html-keyboard-response","274","j","adhabu","true","",""
"2564","","","","","2","html-slider-response","275","","","","1",""
"3197","list","alizeti,kuzama,kaso,wingu","wingu","n","2","html-keyboard-response","276","n","wingu","true","",""
"2612","","","","","2","html-slider-response","277","","","","4",""
"2279","sheet","juuya,watu,kamantis,bililhon","bililhon","n","2","html-keyboard-response","278","f","juuya","false","",""
"2303","","","","","2","html-slider-response","279","","","","2",""
"4892","picture","silya,kubwa,chaki,asin","kubwa","v","2","html-keyboard-response","280","n","asin","false","",""
"2407","","","","","2","html-slider-response","281","","","","1",""
"2201","towel","pagpalit,tembo,funzi,pito","pagpalit","f","2","html-keyboard-response","282","v","tembo","false","",""
"2516","","","","","2","html-slider-response","283","","","","1",""
"2172","window","nanga,kweli,kujenga,umaga","kweli","v","2","html-keyboard-response","284","v","kweli","true","",""
"2811","","","","","2","html-slider-response","285","","","","4",""
"10782","box","adui,kuacha,rafiki,kitande","adui","f","3","html-keyboard-response","293","f","adui","true","","4"
"2524","","","","","3","html-slider-response","294","","","","1",""
"13060","","","","","3","html-keyboard-response","295","","","","",""
"3192","pants","pintal,chuki,hari,haki","haki","n","3","html-keyboard-response","296","n","haki","true","","4"
"2438","","","","","3","html-slider-response","297","","","","4",""
"5906","","","","","3","html-keyboard-response","298","","","","",""
"3609","cup","dagat,shimoni,matumai,jeraha","matumai","j","3","html-keyboard-response","299","j","matumai","true","","4"
"2406","","","","","3","html-slider-response","300","","","","1",""
"3868","","","","","3","html-keyboard-response","301","","","","",""
"4921","triangle","kihozi,bentaha,kasadpan,liog","kasadpan","j","3","html-keyboard-response","302","v","bentaha","false","","4"
"2863","","","","","3","html-slider-response","303","","","","1",""
"11460","","","","","3","html-keyboard-response","304","","","","",""
"4658","curtain","lisud,bulwawan,chubani,mchanga","mchanga","n","3","html-keyboard-response","305","n","mchanga","true","","4"
"2632","","","","","3","html-slider-response","306","","","","1",""
"7402","","","","","3","html-keyboard-response","307","","","","",""
"5574","clock","kartasi,abang,mbwa,osha","mbwa","j","3","html-keyboard-response","308","v","abang","false","","4"
"2653","","","","","3","html-slider-response","309","","","","1",""
"8790","","","","","3","html-keyboard-response","310","","","","",""
"5098","mirror","sulagma,rangi,kanding,furaha","sulagma","f","3","html-keyboard-response","311","j","kanding","false","","4"
"2535","","","","","3","html-slider-response","312","","","","1",""
"8099","","","","","3","html-keyboard-response","313","","","","",""
"2939","coffin","barua,tubag,kioo,hulma","kioo","j","3","html-keyboard-response","314","j","kioo","true","","1"
"2958","","","","","3","html-slider-response","315","","","","5",""
"2761","","","","","3","html-keyboard-response","316","","","","",""
"4270","magazine","gundi,mchawi,kiti,bahandi","kiti","j","3","html-keyboard-response","317","j","kiti","true","","4"
"2842","","","","","3","html-slider-response","318","","","","1",""
"5556","","","","","3","html-keyboard-response","319","","","","",""
"1935","column","pundok,ufagio,dila,pala","ufagio","v","3","html-keyboard-response","320","v","ufagio","true","","1"
"2399","","","","","3","html-slider-response","321","","","","5",""
"3717","","","","","3","html-keyboard-response","322","","","","",""
"4209","number","shule,kengele,mundamo,choori","mundamo","j","3","html-keyboard-response","323","j","mundamo","true","","4"
"2493","","","","","3","html-slider-response","324","","","","2",""
"7300","","","","","3","html-keyboard-response","325","","","","",""
"3877","rose","singizi,paghalad,mwanake,amani","paghalad","v","3","html-keyboard-response","326","n","amani","false","","4"
"2212","","","","","3","html-slider-response","327","","","","2",""
"6663","","","","","3","html-keyboard-response","328","","","","",""
"2486","eel","ishara,msumari,kunywa,kabuang","msumari","v","3","html-keyboard-response","329","f","ishara","false","","4"
"4448","","","","","3","html-slider-response","330","","","","2",""
"4995","","","","","3","html-keyboard-response","331","","","","",""
"3485","gift","baba,pagtawag,nyange,baso","pagtawag","v","3","html-keyboard-response","332","n","baso","false","","4"
"3770","","","","","3","html-slider-response","333","","","","1",""
"10065","","","","","3","html-keyboard-response","334","","","","",""
"1972","apple","ukame,kisu,estante,edad","kisu","v","3","html-keyboard-response","335","v","kisu","true","","1"
"2905","","","","","3","html-slider-response","336","","","","5",""
"1970","","","","","3","html-keyboard-response","337","","","","",""
"1925","wheel","punda,tawo,bafuni,baadaye","bafuni","j","3","html-keyboard-response","338","j","bafuni","true","","1"
"2793","","","","","3","html-slider-response","339","","","","5",""
"2034","","","","","3","html-keyboard-response","340","","","","",""
"7252","knee","mvuke,kubale,bili,duka","duka","n","3","html-keyboard-response","341","j","bili","false","","4"
"2730","","","","","3","html-slider-response","342","","","","4",""
"3747","","","","","3","html-keyboard-response","343","","","","",""
"2744","basket","kumbuka,kumba,utepe,hasira","kumba","v","3","html-keyboard-response","344","v","kumba","true","","1"
"2881","","","","","3","html-slider-response","345","","","","5",""
"2074","","","","","3","html-keyboard-response","346","","","","",""
"4051","park","bunifu,tambok,pwani,ihalas","bunifu","f","3","html-keyboard-response","347","j","pwani","false","","4"
"2535","","","","","3","html-slider-response","348","","","","2",""
"4823","","","","","3","html-keyboard-response","349","","","","",""
"2643","finger","simu,moyo,sufuria,lima","moyo","v","3","html-keyboard-response","350","v","moyo","true","","4"
"2216","","","","","3","html-slider-response","351","","","","5",""
"1756","","","","","3","html-keyboard-response","352","","","","",""
"2598","boat","hamsi,agalon,pombe,kitanda","agalon","v","3","html-keyboard-response","353","v","agalon","true","","4"
"5328","","","","","3","html-slider-response","354","","","","1",""
"2646","","","","","3","html-keyboard-response","355","","","","",""
"3866","hill","kushoto,kukimba,sweta,matumbo","matumbo","n","3","html-keyboard-response","356","n","matumbo","true","","4"
"3124","","","","","3","html-slider-response","357","","","","2",""
"3046","","","","","3","html-keyboard-response","358","","","","",""
"5241","train","sayari,itik,dakika,mungu","sayari","f","3","html-keyboard-response","359","f","sayari","true","","4"
"2383","","","","","3","html-slider-response","360","","","","2",""
"2453","","","","","3","html-keyboard-response","361","","","","",""
"4408","wolf","kaburi,lugha,ndizi,mchuzi","lugha","v","3","html-keyboard-response","362","v","lugha","true","","4"
"2322","","","","","3","html-slider-response","363","","","","1",""
"3530","","","","","3","html-keyboard-response","364","","","","",""
"3170","snake","jansa,karon,mvringo,pagtukod","pagtukod","n","3","html-keyboard-response","365","n","pagtukod","true","","4"
"2926","","","","","3","html-slider-response","366","","","","1",""
"2215","","","","","3","html-keyboard-response","367","","","","",""
"2566","tooth","kabalaka,kijiko,uadui,pahiyum","kabalaka","f","3","html-keyboard-response","368","v","kijiko","false","","4"
"3351","","","","","3","html-slider-response","369","","","","1",""
"3547","","","","","3","html-keyboard-response","370","","","","",""
"4337","notebook","msitu,kila,mdudu,kemia","kemia","n","3","html-keyboard-response","371","j","mdudu","false","","4"
"2473","","","","","3","html-slider-response","372","","","","1",""
"2113","","","","","3","html-keyboard-response","373","","","","",""
"3799","flag","ndege,trekta,mkate,kawa","trekta","v","3","html-keyboard-response","374","v","trekta","true","","4"
"2394","","","","","3","html-slider-response","375","","","","5",""
"1409","","","","","3","html-keyboard-response","376","","","","",""
"2560","squirrel","hofu,mahugaw,ukweli,kichwa","hofu","f","3","html-keyboard-response","377","v","mahugaw","false","","4"
"3023","","","","","3","html-slider-response","378","","","","1",""
"1387","","","","","3","html-keyboard-response","379","","","","",""
"3911","door","tena,soko,nyota,surali","surali","n","3","html-keyboard-response","380","v","soko","false","","4"
"2581","","","","","3","html-slider-response","381","","","","1",""
"1254","","","","","3","html-keyboard-response","382","","","","",""
"4302","salmon","mzungu,seri,baharia,sensilyo","sensilyo","n","3","html-keyboard-response","383","n","sensilyo","true","","4"
"2751","","","","","3","html-slider-response","384","","","","1",""
"1772","","","","","3","html-keyboard-response","385","","","","",""
"3066","shoulder","mkuu,kelele,ndaniya,guruwe","mkuu","f","3","html-keyboard-response","386","v","kelele","false","","4"
"2980","","","","","3","html-slider-response","387","","","","1",""
"1877","","","","","3","html-keyboard-response","388","","","","",""
"8294","lamp","daub,bilaska,mbolea,afya","afya","n","3","html-keyboard-response","389","n","afya","true","","4"
"2843","","","","","3","html-slider-response","390","","","","1",""
"1224","","","","","3","html-keyboard-response","391","","","","",""
"4701","shelf","bungtod,kadaot,pamahaw,awit","pamahaw","j","3","html-keyboard-response","392","j","pamahaw","true","","1"
"3080","","","","","3","html-slider-response","393","","","","5",""
"1178","","","","","3","html-keyboard-response","394","","","","",""
"3839","human","tinapay,bado,kikapu,punguza","tinapay","f","3","html-keyboard-response","395","n","punguza","false","","4"
"3349","","","","","3","html-slider-response","396","","","","1",""
"974","","","","","3","html-keyboard-response","397","","","","",""
"3278","towel","tembo,funzi,pito,pagpalit","pagpalit","n","3","html-keyboard-response","398","f","tembo","false","","4"
"2814","","","","","3","html-slider-response","399","","","","1",""
"1378","","","","","3","html-keyboard-response","400","","","","",""
"3734","cat","neyemba,baki,paghukom,akili","paghukom","j","3","html-keyboard-response","401","j","paghukom","true","","4"
"4030","","","","","3","html-slider-response","402","","","","4",""
"2087","","","","","3","html-keyboard-response","403","","","","",""
"4517","spider","bunyag,kamwe,mkboa,atop","kamwe","v","3","html-keyboard-response","404","f","bunyag","false","","4"
"3268","","","","","3","html-slider-response","405","","","","1",""
"1556","","","","","3","html-keyboard-response","406","","","","",""
"4637","window","nanga,kujenga,umaga,kweli","kweli","n","3","html-keyboard-response","407","n","kweli","true","","4"
"2474","","","","","3","html-slider-response","408","","","","5",""
"1361","","","","","3","html-keyboard-response","409","","","","",""
"4065","woman","bandari,bituin,pagtabon,kovuli","pagtabon","j","3","html-keyboard-response","410","j","pagtabon","true","","1"
"2266","","","","","3","html-slider-response","411","","","","5",""
"1187","","","","","3","html-keyboard-response","412","","","","",""
"5064","giraffe","mahitabo,daraja,jumatu,hangyo","mahitabo","f","3","html-keyboard-response","413","j","jumatu","false","","4"
"2735","","","","","3","html-slider-response","414","","","","1",""
"1695","","","","","3","html-keyboard-response","415","","","","",""
"2592","elephant","petye,pagduol,suka,kito","kito","n","3","html-keyboard-response","416","v","pagduol","false","","4"
"2532","","","","","3","html-slider-response","417","","","","1",""
"961","","","","","3","html-keyboard-response","418","","","","",""
"2898","cave","ganti,maisha,kesho,nyundo","kesho","j","3","html-keyboard-response","419","n","nyundo","false","","4"
"3327","","","","","3","html-slider-response","420","","","","1",""
"1228","","","","","3","html-keyboard-response","421","","","","",""
"2755","bread","dari,kaili,dizeli,bugas","dari","f","3","html-keyboard-response","422","f","dari","true","","4"
"2232","","","","","3","html-slider-response","423","","","","2",""
"2131","","","","","3","html-keyboard-response","424","","","","",""
"3721","stone","ulimwengu,wingi,mkasi,asili","wingi","v","3","html-keyboard-response","425","j","mkasi","false","","4"
"2352","","","","","3","html-slider-response","426","","","","2",""
"1199","","","","","3","html-keyboard-response","427","","","","",""
"5752","donkey","bloke,lalake,rombus,elfu","elfu","n","3","html-keyboard-response","428","n","elfu","true","","4"
"2552","","","","","3","html-slider-response","429","","","","4",""
"1466","","","","","3","html-keyboard-response","430","","","","",""
"5767","bridge","sahani,daima,ngono,panya","sahani","f","3","html-keyboard-response","431","j","ngono","false","","4"
"2505","","","","","3","html-slider-response","432","","","","1",""
"1318","","","","","3","html-keyboard-response","433","","","","",""
"3721","bonfire","mwezi,mfuko,kusanya,goti","goti","n","3","html-keyboard-response","434","j","kusanya","false","","4"
"2772","","","","","3","html-slider-response","435","","","","1",""
"1213","","","","","3","html-keyboard-response","436","","","","",""
"3170","book","kuhesa,mali,picha,mara","mali","v","3","html-keyboard-response","437","f","kuhesa","false","","4"
"2516","","","","","3","html-slider-response","438","","","","1",""
"1268","","","","","3","html-keyboard-response","439","","","","",""
"3779","fish","bala,baho,imani,buli","buli","n","3","html-keyboard-response","440","v","baho","false","","4"
"2160","","","","","3","html-slider-response","441","","","","2",""
"1105","","","","","3","html-keyboard-response","442","","","","",""
"6004","spoon","betri,nzuri,pagsulod,ngazi","pagsulod","j","3","html-keyboard-response","443","j","pagsulod","true","","4"
"2429","","","","","3","html-slider-response","444","","","","2",""
"1542","","","","","3","html-keyboard-response","445","","","","",""
"3288","scissors","duga,tanuri,mtawa,suga","tanuri","v","3","html-keyboard-response","446","v","tanuri","true","","4"
"2884","","","","","3","html-slider-response","447","","","","1",""
"1377","","","","","3","html-keyboard-response","448","","","","",""
"3845","page","wakala,wimbo,ishiri,skina","wimbo","v","3","html-keyboard-response","449","v","wimbo","true","","4"
"2480","","","","","3","html-slider-response","450","","","","1",""
"831","","","","","3","html-keyboard-response","451","","","","",""
"1489","nose","gubat,kopa,sehemu,kidole","sehemu","j","3","html-keyboard-response","452","j","sehemu","true","","1"
"2177","","","","","3","html-slider-response","453","","","","5",""
"970","","","","","3","html-keyboard-response","454","","","","",""
"2767","ceiling","kugita,kawaida,maua,rayna","maua","j","3","html-keyboard-response","455","n","rayna","false","","4"
"2641","","","","","3","html-slider-response","456","","","","2",""
"1038","","","","","3","html-keyboard-response","457","","","","",""
"4191","bucket","baga,ijayo,kiatu,init","kiatu","j","3","html-keyboard-response","458","j","kiatu","true","","4"
"4422","","","","","3","html-slider-response","459","","","","1",""
"1203","","","","","3","html-keyboard-response","460","","","","",""
"1854","berry","kofia,abogado,nogozi,kinywa","kofia","f","3","html-keyboard-response","461","f","kofia","true","","1"
"2335","","","","","3","html-slider-response","462","","","","5",""
"928","","","","","3","html-keyboard-response","463","","","","",""
"1530","mother","kahawa,babaye,mbuzi,jokofu","babaye","v","3","html-keyboard-response","464","v","babaye","true","","1"
"2572","","","","","3","html-slider-response","465","","","","5",""
"999","","","","","3","html-keyboard-response","466","","","","",""
"4291","mosquito","martilyo,isda,taras,gutom","martilyo","f","3","html-keyboard-response","467","f","martilyo","true","","4"
"2246","","","","","3","html-slider-response","468","","","","4",""
"1081","","","","","3","html-keyboard-response","469","","","","",""
"3588","perfume","bino,sungura,katuyoan,ndogo","katuyoan","j","3","html-keyboard-response","470","v","sungura","false","","4"
"3958","","","","","3","html-slider-response","471","","","","2",""
"1066","","","","","3","html-keyboard-response","472","","","","",""
"2918","sheet","juuya,watu,bililhon,kamantis","bililhon","j","3","html-keyboard-response","473","f","juuya","false","","4"
"3066","","","","","3","html-slider-response","474","","","","2",""
"1396","","","","","3","html-keyboard-response","475","","","","",""
"1356","puppet","napulo,mazishi,lamok,godoro","mazishi","v","3","html-keyboard-response","476","v","mazishi","true","","1"
"3428","","","","","3","html-slider-response","477","","","","5",""
"887","","","","","3","html-keyboard-response","478","","","","",""
"3415","poster","nchi,fedha,madungog,kasuko","madungog","j","3","html-keyboard-response","479","n","kasuko","false","","4"
"2678","","","","","3","html-slider-response","480","","","","2",""
"1271","","","","","3","html-keyboard-response","481","","","","",""
"3311","music","mraba,baiski,mageho,tumbo","baiski","v","3","html-keyboard-response","482","n","tumbo","false","","4"
"2273","","","","","3","html-slider-response","483","","","","2",""
"1535","","","","","3","html-keyboard-response","484","","","","",""
"2339","key","miaka,chombo,goma,ahos","chombo","v","3","html-keyboard-response","485","v","chombo","true","","4"
"2532","","","","","3","html-slider-response","486","","","","5",""
"948","","","","","3","html-keyboard-response","487","","","","",""
"4360","sock","ndoora,kimysa,mamba,mtirka","mamba","j","3","html-keyboard-response","488","v","kimysa","false","","4"
"2640","","","","","3","html-slider-response","489","","","","1",""
"1012","","","","","3","html-keyboard-response","490","","","","",""
"2939","marker","mapafu,salita,maji,atay","maji","j","3","html-keyboard-response","491","v","salita","false","","4"
"2364","","","","","3","html-slider-response","492","","","","1",""
"856","","","","","3","html-keyboard-response","493","","","","",""
"3238","office","hazini,leso,yatima,kuna","leso","v","3","html-keyboard-response","494","v","leso","true","","4"
"2349","","","","","3","html-slider-response","495","","","","2",""
"1143","","","","","3","html-keyboard-response","496","","","","",""
"3998","shoe","uyoga,nyeusi,hatua,kama","uyoga","f","3","html-keyboard-response","497","n","kama","false","","4"
"2546","","","","","3","html-slider-response","498","","","","1",""
"1237","","","","","3","html-keyboard-response","499","","","","",""
"2871","cop","bustani,jikoni,bakus,mechezo","mechezo","n","3","html-keyboard-response","500","f","bustani","false","","4"
"2567","","","","","3","html-slider-response","501","","","","1",""
"1387","","","","","3","html-keyboard-response","502","","","","",""
"2249","bank","kudhibi,tualya,silingan,ofisi","silingan","j","3","html-keyboard-response","503","n","ofisi","false","","4"
"2689","","","","","3","html-slider-response","504","","","","2",""
"908","","","","","3","html-keyboard-response","505","","","","",""
"1422","letter","filimbi,chuma,kifua,uhuru","kifua","j","3","html-keyboard-response","506","j","kifua","true","","1"
"2389","","","","","3","html-slider-response","507","","","","5",""
"864","","","","","3","html-keyboard-response","508","","","","",""
"1650","dog","lubi,washia,bahari,kalamu","bahari","j","3","html-keyboard-response","509","j","bahari","true","","1"
"2251","","","","","3","html-slider-response","510","","","","5",""
"1062","","","","","3","html-keyboard-response","511","","","","",""
"2472","shop","samaki,nopya,kerida,ndezu","samaki","f","3","html-keyboard-response","512","v","nopya","false","","4"
"2727","","","","","3","html-slider-response","513","","","","2",""
"1011","","","","","3","html-keyboard-response","514","","","","",""
"4518","flower","bega,tamasha,lobo,usiku","bega","f","3","html-keyboard-response","515","f","bega","true","","4"
"2050","","","","","3","html-slider-response","516","","","","2",""
"916","","","","","3","html-keyboard-response","517","","","","",""
"2855","cigar","adhabu,ndugu,kuta,mlango","adhabu","f","3","html-keyboard-response","518","f","adhabu","true","","1"
"2329","","","","","3","html-slider-response","519","","","","5",""
"758","","","","","3","html-keyboard-response","520","","","","",""
"2487","hammer","mekno,napakyas,kitovu,layag","napakyas","v","3","html-keyboard-response","521","n","layag","false","","4"
"3949","","","","","3","html-slider-response","522","","","","2",""
"1655","","","","","3","html-keyboard-response","523","","","","",""
"4627","fork","baboy,paghago,gorisi,mgonjwa","mgonjwa","n","3","html-keyboard-response","524","n","mgonjwa","true","","4"
"1738","","","","","3","html-slider-response","525","","","","1",""
"1456","","","","","3","html-keyboard-response","526","","","","",""
"2367","sun","bendi,luha,uongo,basi","basi","n","3","html-keyboard-response","527","n","basi","true","","1"
"3656","","","","","3","html-slider-response","528","","","","5",""
"1057","","","","","3","html-keyboard-response","529","","","","",""
"3915","ladder","mashua,pangalan,mwanga,kamba","pangalan","v","3","html-keyboard-response","530","v","pangalan","true","","4"
"2358","","","","","3","html-slider-response","531","","","","1",""
"1149","","","","","3","html-keyboard-response","532","","","","",""
"2876","banana","kasamok,kazi,hagdan,twai","kazi","v","3","html-keyboard-response","533","v","kazi","true","","1"
"2010","","","","","3","html-slider-response","534","","","","5",""
"785","","","","","3","html-keyboard-response","535","","","","",""
"3157","pudding","abug,mpishi,aibu,iring","aibu","j","3","html-keyboard-response","536","j","aibu","true","","4"
"2638","","","","","3","html-slider-response","537","","","","1",""
"948","","","","","3","html-keyboard-response","538","","","","",""
"4633","body","nyundu,jibini,tindashan,kununa","tindashan","j","3","html-keyboard-response","539","n","kununa","false","","4"
"2971","","","","","3","html-slider-response","540","","","","1",""
"1196","","","","","3","html-keyboard-response","541","","","","",""
"5163","bed","kalipay,haraka,mapintas,starehe","mapintas","j","3","html-keyboard-response","542","n","starehe","false","","4"
"2260","","","","","3","html-slider-response","543","","","","1",""
"1287","","","","","3","html-keyboard-response","544","","","","",""
"3444","tissue","lamigas,kisiwa,katika,ugomvi","ugomvi","n","3","html-keyboard-response","545","v","kisiwa","false","","4"
"3654","","","","","3","html-slider-response","546","","","","1",""
"1415","","","","","3","html-keyboard-response","547","","","","",""
"2792","candle","geza,gabi,farasi,kupanda","geza","f","3","html-keyboard-response","548","j","farasi","false","","4"
"2736","","","","","3","html-slider-response","549","","","","1",""
"904","","","","","3","html-keyboard-response","550","","","","",""
"4710","tomato","chupi,chupa,takatak,mvua","mvua","n","3","html-keyboard-response","551","n","mvua","true","","1"
"2214","","","","","3","html-slider-response","552","","","","5",""
"824","","","","","3","html-keyboard-response","553","","","","",""
"2649","list","alizeti,kuzama,kaso,wingu","wingu","n","3","html-keyboard-response","554","j","kaso","false","","4"
"2192","","","","","3","html-slider-response","555","","","","2",""
"2067","","","","","3","html-keyboard-response","556","","","","",""
"3179","olive","bata,siagi,welder,jiwe","jiwe","n","3","html-keyboard-response","557","n","jiwe","true","","4"
"3259","","","","","3","html-slider-response","558","","","","2",""
"1136","","","","","3","html-keyboard-response","559","","","","",""
"3055","picture","silya,kubwa,chaki,asin","kubwa","v","3","html-keyboard-response","560","v","kubwa","true","","1"
"2347","","","","","3","html-slider-response","561","","","","5",""
"954","","","","","3","html-keyboard-response","562","","","","",""
"5318","page","wakala,ishiri,wimbo,skina","wimbo","j","4","html-keyboard-response","888","j","wimbo","true","",""
"4447","","","","","4","html-slider-response","889","","","","2",""
"3689","sheet","juuya,watu,kamantis,bililhon","bililhon","n","4","html-keyboard-response","890","v","watu","false","",""
"2937","","","","","4","html-slider-response","891","","","","1",""
"20912","ladder","mashua,pangalan,mwanga,kamba","pangalan","v","4","html-keyboard-response","892","v","pangalan","true","",""
"2382","","","","","4","html-slider-response","893","","","","1",""
"12828","door","surali,tena,soko,nyota","surali","f","4","html-keyboard-response","894","v","tena","false","",""
"1724","","","","","4","html-slider-response","895","","","","1",""
"3973","spider","kamwe,bunyag,mkboa,atop","kamwe","f","4","html-keyboard-response","896","j","mkboa","false","",""
"5437","","","","","4","html-slider-response","897","","","","1",""
"14475","picture","kubwa,silya,chaki,asin","kubwa","f","4","html-keyboard-response","898","f","kubwa","true","",""
"3581","","","","","4","html-slider-response","899","","","","1",""
"5160","boat","hamsi,agalon,pombe,kitanda","agalon","v","4","html-keyboard-response","900","v","agalon","true","",""
"2338","","","","","4","html-slider-response","901","","","","1",""
"3968","donkey","bloke,elfu,lalake,rombus","elfu","v","4","html-keyboard-response","902","v","elfu","true","",""
"2603","","","","","4","html-slider-response","903","","","","5",""
"4656","book","kuhesa,picha,mali,mara","mali","j","4","html-keyboard-response","904","n","mara","false","",""
"2971","","","","","4","html-slider-response","905","","","","1",""
"6280","cup","dagat,shimoni,jeraha,matumai","matumai","n","4","html-keyboard-response","906","v","shimoni","false","",""
"1991","","","","","4","html-slider-response","907","","","","1",""
"3852","sun","bendi,basi,luha,uongo","basi","v","4","html-keyboard-response","908","v","basi","true","",""
"2142","","","","","4","html-slider-response","909","","","","4",""
"3525","pudding","abug,aibu,mpishi,iring","aibu","v","4","html-keyboard-response","910","v","aibu","true","",""
"2037","","","","","4","html-slider-response","911","","","","1",""
"4694","human","bado,kikapu,punguza,tinapay","tinapay","n","4","html-keyboard-response","912","j","punguza","false","",""
"1858","","","","","4","html-slider-response","913","","","","2",""
"3331","squirrel","mahugaw,hofu,ukweli,kichwa","hofu","v","4","html-keyboard-response","914","n","kichwa","false","",""
"1993","","","","","4","html-slider-response","915","","","","2",""
"3134","park","tambok,bunifu,pwani,ihalas","bunifu","v","4","html-keyboard-response","916","f","tambok","false","",""
"2747","","","","","4","html-slider-response","917","","","","2",""
"3786","poster","madungog,nchi,fedha,kasuko","madungog","f","4","html-keyboard-response","918","j","fedha","false","",""
"3083","","","","","4","html-slider-response","919","","","","2",""
"5980","wolf","lugha,kaburi,ndizi,mchuzi","lugha","f","4","html-keyboard-response","920","f","lugha","true","",""
"3999","","","","","4","html-slider-response","921","","","","2",""
"3542","cat","paghukom,neyemba,baki,akili","paghukom","f","4","html-keyboard-response","922","f","paghukom","true","",""
"2259","","","","","4","html-slider-response","923","","","","4",""
"6997","fish","bala,buli,baho,imani","buli","v","4","html-keyboard-response","924","j","baho","false","",""
"2323","","","","","4","html-slider-response","925","","","","2",""
"6212","tooth","kijiko,uadui,pahiyum,kabalaka","kabalaka","n","4","html-keyboard-response","926","v","uadui","false","",""
"3195","","","","","4","html-slider-response","927","","","","2",""
"2928","cave","ganti,maisha,kesho,nyundo","kesho","j","4","html-keyboard-response","928","v","maisha","false","",""
"2239","","","","","4","html-slider-response","929","","","","2",""
"2783","lamp","afya,daub,bilaska,mbolea","afya","f","4","html-keyboard-response","930","j","bilaska","false","",""
"2879","","","","","4","html-slider-response","931","","","","2",""
"3587","banana","kasamok,kazi,hagdan,twai","kazi","v","4","html-keyboard-response","932","v","kazi","true","",""
"1936","","","","","4","html-slider-response","933","","","","4",""
"3532","bonfire","goti,mwezi,mfuko,kusanya","goti","f","4","html-keyboard-response","934","f","goti","true","",""
"1825","","","","","4","html-slider-response","935","","","","4",""
"4018","cop","bustani,jikoni,mechezo,bakus","mechezo","j","4","html-keyboard-response","936","j","mechezo","true","",""
"2628","","","","","4","html-slider-response","937","","","","5",""
"5940","marker","maji,mapafu,salita,atay","maji","f","4","html-keyboard-response","938","f","maji","true","",""
"2036","","","","","4","html-slider-response","939","","","","1",""
"2586","window","kweli,nanga,kujenga,umaga","kweli","f","4","html-keyboard-response","940","f","kweli","true","",""
"2092","","","","","4","html-slider-response","941","","","","5",""
"7513","body","tindashan,nyundu,jibini,kununa","tindashan","f","4","html-keyboard-response","942","f","tindashan","true","",""
"1769","","","","","4","html-slider-response","943","","","","2",""
"2641","apple","kisu,ukame,estante,edad","kisu","f","4","html-keyboard-response","944","f","kisu","true","",""
"2724","","","","","4","html-slider-response","945","","","","2",""
"2873","salmon","mzungu,sensilyo,seri,baharia","sensilyo","v","4","html-keyboard-response","946","v","sensilyo","true","",""
"2192","","","","","4","html-slider-response","947","","","","5",""
"3683","bed","kalipay,haraka,mapintas,starehe","mapintas","j","4","html-keyboard-response","948","v","haraka","false","",""
"2107","","","","","4","html-slider-response","949","","","","2",""
"3359","berry","abogado,kofia,nogozi,kinywa","kofia","v","4","html-keyboard-response","950","v","kofia","true","",""
"2128","","","","","4","html-slider-response","951","","","","5",""
"15611","mirror","rangi,kanding,furaha,sulagma","sulagma","n","4","html-keyboard-response","952","n","sulagma","true","",""
"2588","","","","","4","html-slider-response","953","","","","5",""
"2187","flag","ndege,trekta,mkate,kawa","trekta","v","4","html-keyboard-response","954","v","trekta","true","",""
"2266","","","","","4","html-slider-response","955","","","","5",""
"15286","shoulder","kelele,mkuu,ndaniya,guruwe","mkuu","v","4","html-keyboard-response","956","f","kelele","false","",""
"2736","","","","","4","html-slider-response","957","","","","2",""
"4819","tissue","ugomvi,lamigas,kisiwa,katika","ugomvi","f","4","html-keyboard-response","958","j","kisiwa","false","",""
"3406","","","","","4","html-slider-response","959","","","","1",""
"4466","notebook","msitu,kila,mdudu,kemia","kemia","n","4","html-keyboard-response","960","n","kemia","true","",""
"2904","","","","","4","html-slider-response","961","","","","1",""
"30666","snake","pagtukod,jansa,karon,mvringo","pagtukod","f","4","html-keyboard-response","962","f","pagtukod","true","",""
"2261","","","","","4","html-slider-response","963","","","","2",""
"3580","finger","simu,sufuria,lima,moyo","moyo","n","4","html-keyboard-response","964","n","moyo","true","",""
"3934","","","","","4","html-slider-response","965","","","","5",""
"3595","basket","kumbuka,utepe,kumba,hasira","kumba","j","4","html-keyboard-response","966","j","kumba","true","",""
"4076","","","","","4","html-slider-response","967","","","","2",""
"2694","curtain","lisud,bulwawan,mchanga,chubani","mchanga","j","4","html-keyboard-response","968","v","bulwawan","false","",""
"2377","","","","","4","html-slider-response","969","","","","1",""
"4133","perfume","bino,sungura,katuyoan,ndogo","katuyoan","j","4","html-keyboard-response","970","f","bino","false","",""
"2119","","","","","4","html-slider-response","971","","","","1",""
"1863","key","miaka,chombo,goma,ahos","chombo","v","4","html-keyboard-response","972","v","chombo","true","",""
"3325","","","","","4","html-slider-response","973","","","","5",""
"3668","olive","bata,siagi,welder,jiwe","jiwe","n","4","html-keyboard-response","974","n","jiwe","true","",""
"2048","","","","","4","html-slider-response","975","","","","4",""
"13364","rose","singizi,paghalad,mwanake,amani","paghalad","v","4","html-keyboard-response","976","v","paghalad","true","",""
"2432","","","","","4","html-slider-response","977","","","","4",""
"3924","bridge","daima,sahani,ngono,panya","sahani","v","4","html-keyboard-response","978","f","daima","false","",""
"2111","","","","","4","html-slider-response","979","","","","2",""
"4223","hill","kushoto,kukimba,sweta,matumbo","matumbo","n","4","html-keyboard-response","980","j","sweta","false","",""
"3019","","","","","4","html-slider-response","981","","","","2",""
"4393","letter","filimbi,chuma,uhuru,kifua","kifua","n","4","html-keyboard-response","982","v","chuma","false","",""
"2777","","","","","4","html-slider-response","983","","","","2",""
"5349","sock","mamba,ndoora,kimysa,mtirka","mamba","f","4","html-keyboard-response","984","j","kimysa","false","",""
"2395","","","","","4","html-slider-response","985","","","","2",""
"2392","fork","baboy,paghago,gorisi,mgonjwa","mgonjwa","n","4","html-keyboard-response","986","v","paghago","false","",""
"4576","","","","","4","html-slider-response","987","","","","1",""
"13572","box","kuacha,adui,rafiki,kitande","adui","v","4","html-keyboard-response","988","v","adui","true","",""
"2552","","","","","4","html-slider-response","989","","","","5",""
"12415","gift","baba,nyange,pagtawag,baso","pagtawag","j","4","html-keyboard-response","990","v","nyange","false","",""
"2461","","","","","4","html-slider-response","991","","","","1",""
"2585","bucket","baga,ijayo,init,kiatu","kiatu","n","4","html-keyboard-response","992","f","baga","false","",""
"2515","","","","","4","html-slider-response","993","","","","1",""
"5038","shop","samaki,nopya,kerida,ndezu","samaki","f","4","html-keyboard-response","994","v","nopya","false","",""
"2218","","","","","4","html-slider-response","995","","","","1",""
"3256","puppet","napulo,mazishi,lamok,godoro","mazishi","v","4","html-keyboard-response","996","f","napulo","false","",""
"2620","","","","","4","html-slider-response","997","","","","1",""
"4201","nose","gubat,kopa,sehemu,kidole","sehemu","j","4","html-keyboard-response","998","v","kopa","false","",""
"3013","","","","","4","html-slider-response","999","","","","1",""
"4428","music","baiski,mraba,mageho,tumbo","baiski","f","4","html-keyboard-response","1000","f","baiski","true","",""
"2212","","","","","4","html-slider-response","1001","","","","4",""
"3518","dog","lubi,bahari,washia,kalamu","bahari","v","4","html-keyboard-response","1002","v","bahari","true","",""
"2190","","","","","4","html-slider-response","1003","","","","5",""
"12495","eel","ishara,kunywa,msumari,kabuang","msumari","j","4","html-keyboard-response","1004","j","msumari","true","",""
"2225","","","","","4","html-slider-response","1005","","","","5",""
"2600","number","shule,kengele,mundamo,choori","mundamo","j","4","html-keyboard-response","1006","j","mundamo","true","",""
"2362","","","","","4","html-slider-response","1007","","","","5",""
"3901","tomato","chupi,mvua,chupa,takatak","mvua","v","4","html-keyboard-response","1008","n","takatak","false","",""
"2524","","","","","4","html-slider-response","1009","","","","2",""
"3144","coffin","barua,kioo,tubag,hulma","kioo","v","4","html-keyboard-response","1010","j","tubag","false","",""
"2571","","","","","4","html-slider-response","1011","","","","2",""
"6558","knee","mvuke,kubale,duka,bili","duka","j","4","html-keyboard-response","1012","j","duka","true","",""
"2037","","","","","4","html-slider-response","1013","","","","4",""
"4352","woman","pagtabon,bandari,bituin,kovuli","pagtabon","f","4","html-keyboard-response","1014","f","pagtabon","true","",""
"2553","","","","","4","html-slider-response","1015","","","","2",""
"1789","stone","ulimwengu,mkasi,wingi,asili","wingi","j","4","html-keyboard-response","1016","v","mkasi","false","",""
"2498","","","","","4","html-slider-response","1017","","","","1",""
"3867","bread","kaili,dari,dizeli,bugas","dari","v","4","html-keyboard-response","1018","v","dari","true","",""
"2898","","","","","4","html-slider-response","1019","","","","4",""
"12995","triangle","kihozi,bentaha,kasadpan,liog","kasadpan","j","4","html-keyboard-response","1020","j","kasadpan","true","",""
"2435","","","","","4","html-slider-response","1021","","","","4",""
"10820","scissors","duga,tanuri,mtawa,suga","tanuri","v","4","html-keyboard-response","1022","n","suga","false","",""
"2671","","","","","4","html-slider-response","1023","","","","2",""
"3388","giraffe","daraja,jumatu,hangyo,mahitabo","mahitabo","n","4","html-keyboard-response","1024","n","mahitabo","true","",""
"2091","","","","","4","html-slider-response","1025","","","","2",""
"2962","flower","tamasha,bega,lobo,usiku","bega","v","4","html-keyboard-response","1026","v","bega","true","",""
"2471","","","","","4","html-slider-response","1027","","","","1",""
"4084","candle","geza,gabi,farasi,kupanda","geza","f","4","html-keyboard-response","1028","n","kupanda","false","",""
"2132","","","","","4","html-slider-response","1029","","","","1",""
"2357","mother","kahawa,babaye,mbuzi,jokofu","babaye","v","4","html-keyboard-response","1030","v","babaye","true","",""
"2292","","","","","4","html-slider-response","1031","","","","5",""
"2546","towel","pagpalit,tembo,funzi,pito","pagpalit","f","4","html-keyboard-response","1032","v","tembo","false","",""
"2548","","","","","4","html-slider-response","1033","","","","1",""
"3362","elephant","petye,pagduol,kito,suka","kito","j","4","html-keyboard-response","1034","v","pagduol","false","",""
"2518","","","","","4","html-slider-response","1035","","","","2",""
"1963","shelf","pamahaw,bungtod,kadaot,awit","pamahaw","f","4","html-keyboard-response","1036","n","awit","false","",""
"3354","","","","","4","html-slider-response","1037","","","","1",""
"3098","mosquito","isda,martilyo,taras,gutom","martilyo","v","4","html-keyboard-response","1038","v","martilyo","true","",""
"2463","","","","","4","html-slider-response","1039","","","","5",""
"2398","column","ufagio,pundok,dila,pala","ufagio","f","4","html-keyboard-response","1040","v","pundok","false","",""
"2109","","","","","4","html-slider-response","1041","","","","2",""
"4711","pants","pintal,haki,chuki,hari","haki","v","4","html-keyboard-response","1042","v","haki","true","",""
"3010","","","","","4","html-slider-response","1043","","","","5",""
"13031","list","alizeti,kuzama,kaso,wingu","wingu","n","4","html-keyboard-response","1044","n","wingu","true","",""
"2210","","","","","4","html-slider-response","1045","","","","5",""
"3686","bank","kudhibi,silingan,tualya,ofisi","silingan","v","4","html-keyboard-response","1046","v","silingan","true","",""
"2554","","","","","4","html-slider-response","1047","","","","2",""
"7109","clock","kartasi,abang,mbwa,osha","mbwa","j","4","html-keyboard-response","1048","j","mbwa","true","",""
"2572","","","","","4","html-slider-response","1049","","","","5",""
"2353","ceiling","kugita,maua,kawaida,rayna","maua","v","4","html-keyboard-response","1050","n","rayna","false","",""
"9714","","","","","4","html-slider-response","1051","","","","2",""
"4212","train","itik,sayari,dakika,mungu","sayari","v","4","html-keyboard-response","1052","v","sayari","true","",""
"2637","","","","","4","html-slider-response","1053","","","","4",""
"2195","magazine","gundi,kiti,mchawi,bahandi","kiti","v","4","html-keyboard-response","1054","v","kiti","true","",""
"2098","","","","","4","html-slider-response","1055","","","","5",""
"3276","office","leso,hazini,yatima,kuna","leso","f","4","html-keyboard-response","1056","f","leso","true","",""
"2178","","","","","4","html-slider-response","1057","","","","2",""
"2748","wheel","punda,tawo,bafuni,baadaye","bafuni","j","4","html-keyboard-response","1058","v","tawo","false","",""
"2505","","","","","4","html-slider-response","1059","","","","1",""
"4265","spoon","betri,nzuri,pagsulod,ngazi","pagsulod","j","4","html-keyboard-response","1060","v","nzuri","false","",""
"4815","","","","","4","html-slider-response","1061","","","","2",""
"4085","hammer","mekno,kitovu,layag,napakyas","napakyas","n","4","html-keyboard-response","1062","f","mekno","false","",""
"2769","","","","","4","html-slider-response","1063","","","","1",""
"2940","cigar","ndugu,kuta,adhabu,mlango","adhabu","j","4","html-keyboard-response","1064","j","adhabu","true","",""
"2539","","","","","4","html-slider-response","1065","","","","1",""
"4891","shoe","nyeusi,hatua,uyoga,kama","uyoga","j","4","html-keyboard-response","1066","f","nyeusi","false","",""
"2590","","","","","4","html-slider-response","1067","","","","2",""
"9524","list","alizeti,kuzama,wingu,kaso","wingu","j","5","html-keyboard-response","1069","j","wingu","true","",""
"2591","","","","","5","html-slider-response","1070","","","","5",""
"2999","number","shule,kengele,mundamo,choori","mundamo","j","5","html-keyboard-response","1071","j","mundamo","true","",""
"2399","","","","","5","html-slider-response","1072","","","","5",""
"4122","apple","ukame,kisu,estante,edad","kisu","v","5","html-keyboard-response","1073","v","kisu","true","",""
"2124","","","","","5","html-slider-response","1074","","","","2",""
"6331","knee","duka,mvuke,kubale,bili","duka","f","5","html-keyboard-response","1075","n","bili","false","",""
"2387","","","","","5","html-slider-response","1076","","","","2",""
"4397","tooth","kijiko,kabalaka,uadui,pahiyum","kabalaka","v","5","html-keyboard-response","1077","f","kijiko","false","",""
"2059","","","","","5","html-slider-response","1078","","","","1",""
"1654","berry","abogado,nogozi,kinywa,kofia","kofia","n","5","html-keyboard-response","1079","n","kofia","true","",""
"2771","","","","","5","html-slider-response","1080","","","","5",""
"2604","bridge","daima,ngono,panya,sahani","sahani","n","5","html-keyboard-response","1081","f","daima","false","",""
"2537","","","","","5","html-slider-response","1082","","","","2",""
"4707","perfume","bino,sungura,ndogo,katuyoan","katuyoan","n","5","html-keyboard-response","1083","v","sungura","false","",""
"2294","","","","","5","html-slider-response","1084","","","","2",""
"6127","ladder","pangalan,mashua,mwanga,kamba","pangalan","f","5","html-keyboard-response","1085","j","mwanga","false","",""
"2268","","","","","5","html-slider-response","1086","","","","2",""
"3023","pants","pintal,chuki,hari,haki","haki","n","5","html-keyboard-response","1087","n","haki","true","",""
"2329","","","","","5","html-slider-response","1088","","","","5",""
"2014","salmon","mzungu,sensilyo,seri,baharia","sensilyo","v","5","html-keyboard-response","1089","v","sensilyo","true","",""
"3199","","","","","5","html-slider-response","1090","","","","5",""
"3465","coffin","barua,tubag,kioo,hulma","kioo","j","5","html-keyboard-response","1091","v","tubag","false","",""
"2072","","","","","5","html-slider-response","1092","","","","2",""
"4162","park","tambok,pwani,ihalas,bunifu","bunifu","n","5","html-keyboard-response","1093","f","tambok","false","",""
"2511","","","","","5","html-slider-response","1094","","","","1",""
"5768","giraffe","mahitabo,daraja,jumatu,hangyo","mahitabo","f","5","html-keyboard-response","1095","f","mahitabo","true","",""
"2240","","","","","5","html-slider-response","1096","","","","1",""
"7220","mirror","rangi,kanding,sulagma,furaha","sulagma","j","5","html-keyboard-response","1097","j","sulagma","true","",""
"2830","","","","","5","html-slider-response","1098","","","","5",""
"1961","ceiling","kugita,kawaida,maua,rayna","maua","j","5","html-keyboard-response","1099","n","rayna","false","",""
"2926","","","","","5","html-slider-response","1100","","","","2",""
"2736","marker","mapafu,salita,maji,atay","maji","j","5","html-keyboard-response","1101","j","maji","true","",""
"2560","","","","","5","html-slider-response","1102","","","","1",""
"3245","sock","ndoora,mamba,kimysa,mtirka","mamba","v","5","html-keyboard-response","1103","v","mamba","true","",""
"2186","","","","","5","html-slider-response","1104","","","","2",""
"2121","cop","bustani,jikoni,mechezo,bakus","mechezo","j","5","html-keyboard-response","1105","j","mechezo","true","",""
"2334","","","","","5","html-slider-response","1106","","","","5",""
"3802","gift","baba,nyange,baso,pagtawag","pagtawag","n","5","html-keyboard-response","1107","n","pagtawag","true","",""
"2461","","","","","5","html-slider-response","1108","","","","2",""
"2493","notebook","msitu,kila,kemia,mdudu","kemia","j","5","html-keyboard-response","1109","j","kemia","true","",""
"2126","","","","","5","html-slider-response","1110","","","","2",""
"3216","bank","silingan,kudhibi,tualya,ofisi","silingan","f","5","html-keyboard-response","1111","n","ofisi","false","",""
"2530","","","","","5","html-slider-response","1112","","","","2",""
"3357","letter","filimbi,chuma,uhuru,kifua","kifua","n","5","html-keyboard-response","1113","v","chuma","false","",""
"2156","","","","","5","html-slider-response","1114","","","","2",""
"2872","candle","geza,gabi,farasi,kupanda","geza","f","5","html-keyboard-response","1115","n","kupanda","false","",""
"1972","","","","","5","html-slider-response","1116","","","","2",""
"2065","bread","kaili,dizeli,bugas,dari","dari","n","5","html-keyboard-response","1117","n","dari","true","",""
"2492","","","","","5","html-slider-response","1118","","","","2",""
"11687","snake","jansa,karon,pagtukod,mvringo","pagtukod","j","5","html-keyboard-response","1119","j","pagtukod","true","",""
"2693","","","","","5","html-slider-response","1120","","","","4",""
"2546","rose","singizi,mwanake,amani,paghalad","paghalad","n","5","html-keyboard-response","1121","j","amani","false","",""
"2220","","","","","5","html-slider-response","1122","","","","4",""
"2792","hill","matumbo,kushoto,kukimba,sweta","matumbo","f","5","html-keyboard-response","1123","f","matumbo","true","",""
"2312","","","","","5","html-slider-response","1124","","","","1",""
"3989","train","itik,dakika,sayari,mungu","sayari","j","5","html-keyboard-response","1125","j","sayari","true","",""
"2103","","","","","5","html-slider-response","1126","","","","4",""
"3434","shop","nopya,kerida,samaki,ndezu","samaki","j","5","html-keyboard-response","1127","f","nopya","false","",""
"2396","","","","","5","html-slider-response","1128","","","","1",""
"1988","nose","gubat,kopa,kidole,sehemu","sehemu","n","5","html-keyboard-response","1129","v","kopa","false","",""
"2539","","","","","5","html-slider-response","1130","","","","2",""
"3750","boat","hamsi,pombe,agalon,kitanda","agalon","j","5","html-keyboard-response","1131","j","agalon","true","",""
"2650","","","","","5","html-slider-response","1132","","","","2",""
"3359","body","nyundu,tindashan,jibini,kununa","tindashan","v","5","html-keyboard-response","1133","v","tindashan","true","",""
"2949","","","","","5","html-slider-response","1134","","","","2",""
"3959","bed","kalipay,haraka,starehe,mapintas","mapintas","n","5","html-keyboard-response","1135","v","haraka","false","",""
"2598","","","","","5","html-slider-response","1136","","","","2",""
"3337","squirrel","mahugaw,ukweli,hofu,kichwa","hofu","j","5","html-keyboard-response","1137","f","mahugaw","false","",""
"2943","","","","","5","html-slider-response","1138","","","","1",""
"2262","window","nanga,kujenga,kweli,umaga","kweli","j","5","html-keyboard-response","1139","j","kweli","true","",""
"3006","","","","","5","html-slider-response","1140","","","","5",""
"1516","bonfire","mwezi,goti,mfuko,kusanya","goti","v","5","html-keyboard-response","1141","v","goti","true","",""
"2199","","","","","5","html-slider-response","1142","","","","4",""
"31390","fish","buli,bala,baho,imani","buli","f","5","html-keyboard-response","1143","j","baho","false","",""
"3111","","","","","5","html-slider-response","1144","","","","2",""
"3194","cat","neyemba,baki,paghukom,akili","paghukom","j","5","html-keyboard-response","1145","j","paghukom","true","",""
"3974","","","","","5","html-slider-response","1146","","","","5",""
"2374","spider","bunyag,mkboa,kamwe,atop","kamwe","j","5","html-keyboard-response","1147","j","kamwe","true","",""
"4117","","","","","5","html-slider-response","1148","","","","5",""
"3890","eel","ishara,msumari,kunywa,kabuang","msumari","v","5","html-keyboard-response","1149","v","msumari","true","",""
"2649","","","","","5","html-slider-response","1150","","","","4",""
"4712","woman","bandari,pagtabon,bituin,kovuli","pagtabon","v","5","html-keyboard-response","1151","v","pagtabon","true","",""
"2292","","","","","5","html-slider-response","1152","","","","2",""
"1677","magazine","gundi,kiti,mchawi,bahandi","kiti","v","5","html-keyboard-response","1153","v","kiti","true","",""
"2483","","","","","5","html-slider-response","1154","","","","5",""
"2002","pudding","abug,aibu,mpishi,iring","aibu","v","5","html-keyboard-response","1155","v","aibu","true","",""
"2422","","","","","5","html-slider-response","1156","","","","2",""
"5273","lamp","daub,bilaska,mbolea,afya","afya","n","5","html-keyboard-response","1157","n","afya","true","",""
"2743","","","","","5","html-slider-response","1158","","","","1",""
"12477","cave","ganti,maisha,nyundo,kesho","kesho","n","5","html-keyboard-response","1159","v","maisha","false","",""
"3197","","","","","5","html-slider-response","1160","","","","1",""
"2355","shoulder","mkuu,kelele,ndaniya,guruwe","mkuu","f","5","html-keyboard-response","1161","v","kelele","false","",""
"2188","","","","","5","html-slider-response","1162","","","","2",""
"2526","stone","ulimwengu,mkasi,asili,wingi","wingi","n","5","html-keyboard-response","1163","v","mkasi","false","",""
"2501","","","","","5","html-slider-response","1164","","","","1",""
"2860","column","pundok,ufagio,dila,pala","ufagio","v","5","html-keyboard-response","1165","f","pundok","false","",""
"2134","","","","","5","html-slider-response","1166","","","","1",""
"3476","page","wakala,ishiri,skina,wimbo","wimbo","n","5","html-keyboard-response","1167","f","wakala","false","",""
"2744","","","","","5","html-slider-response","1168","","","","1",""
"3876","shoe","nyeusi,uyoga,hatua,kama","uyoga","v","5","html-keyboard-response","1169","f","nyeusi","false","",""
"2730","","","","","5","html-slider-response","1170","","","","1",""
"8820","clock","kartasi,abang,osha,mbwa","mbwa","n","5","html-keyboard-response","1171","n","mbwa","true","",""
"3401","","","","","5","html-slider-response","1172","","","","4",""
"3046","towel","tembo,funzi,pito,pagpalit","pagpalit","n","5","html-keyboard-response","1173","f","tembo","false","",""
"2661","","","","","5","html-slider-response","1174","","","","1",""
"2329","tomato","chupi,chupa,takatak,mvua","mvua","n","5","html-keyboard-response","1175","j","takatak","false","",""
"2130","","","","","5","html-slider-response","1176","","","","2",""
"2819","bucket","baga,kiatu,ijayo,init","kiatu","v","5","html-keyboard-response","1177","f","baga","false","",""
"2134","","","","","5","html-slider-response","1178","","","","2",""
"2102","finger","simu,sufuria,moyo,lima","moyo","j","5","html-keyboard-response","1179","j","moyo","true","",""
"2481","","","","","5","html-slider-response","1180","","","","5",""
"1756","mother","kahawa,mbuzi,jokofu,babaye","babaye","n","5","html-keyboard-response","1181","n","babaye","true","",""
"2234","","","","","5","html-slider-response","1182","","","","5",""
"4318","human","bado,tinapay,kikapu,punguza","tinapay","v","5","html-keyboard-response","1183","n","punguza","false","",""
"3196","","","","","5","html-slider-response","1184","","","","2",""
"3010","sun","basi,bendi,luha,uongo","basi","f","5","html-keyboard-response","1185","f","basi","true","",""
"3192","","","","","5","html-slider-response","1186","","","","1",""
"2548","fork","mgonjwa,baboy,paghago,gorisi","mgonjwa","f","5","html-keyboard-response","1187","f","mgonjwa","true","",""
"2879","","","","","5","html-slider-response","1188","","","","2",""
"2715","donkey","bloke,lalake,elfu,rombus","elfu","j","5","html-keyboard-response","1189","j","elfu","true","",""
"2052","","","","","5","html-slider-response","1190","","","","5",""
"3637","wolf","kaburi,ndizi,lugha,mchuzi","lugha","j","5","html-keyboard-response","1191","v","ndizi","false","",""
"2466","","","","","5","html-slider-response","1192","","","","1",""
"3822","cigar","ndugu,kuta,adhabu,mlango","adhabu","j","5","html-keyboard-response","1193","n","mlango","false","",""
"2285","","","","","5","html-slider-response","1194","","","","1",""
"3512","olive","jiwe,bata,siagi,welder","jiwe","f","5","html-keyboard-response","1195","f","jiwe","true","",""
"3082","","","","","5","html-slider-response","1196","","","","2",""
"2485","key","chombo,miaka,goma,ahos","chombo","f","5","html-keyboard-response","1197","f","chombo","true","",""
"2234","","","","","5","html-slider-response","1198","","","","5",""
"5795","door","tena,soko,nyota,surali","surali","n","5","html-keyboard-response","1199","n","surali","true","",""
"2535","","","","","5","html-slider-response","1200","","","","2",""
"4260","wheel","punda,bafuni,tawo,baadaye","bafuni","v","5","html-keyboard-response","1201","f","punda","false","",""
"2801","","","","","5","html-slider-response","1202","","","","1",""
"3539","basket","kumbuka,utepe,kumba,hasira","kumba","j","5","html-keyboard-response","1203","j","kumba","true","",""
"2310","","","","","5","html-slider-response","1204","","","","2",""
"2948","elephant","petye,pagduol,kito,suka","kito","j","5","html-keyboard-response","1205","v","pagduol","false","",""
"2149","","","","","5","html-slider-response","1206","","","","2",""
"5197","office","leso,hazini,yatima,kuna","leso","f","5","html-keyboard-response","1207","f","leso","true","",""
"3225","","","","","5","html-slider-response","1208","","","","1",""
"4715","music","mraba,baiski,mageho,tumbo","baiski","v","5","html-keyboard-response","1209","v","baiski","true","",""
"2528","","","","","5","html-slider-response","1210","","","","4",""
"3310","tissue","lamigas,kisiwa,ugomvi,katika","ugomvi","j","5","html-keyboard-response","1211","v","kisiwa","false","",""
"2666","","","","","5","html-slider-response","1212","","","","1",""
"3868","curtain","mchanga,lisud,bulwawan,chubani","mchanga","f","5","html-keyboard-response","1213","f","mchanga","true","",""
"2593","","","","","5","html-slider-response","1214","","","","1",""
"3847","flag","ndege,mkate,kawa,trekta","trekta","n","5","html-keyboard-response","1215","n","trekta","true","",""
"2477","","","","","5","html-slider-response","1216","","","","5",""
"2748","dog","bahari,lubi,washia,kalamu","bahari","f","5","html-keyboard-response","1217","f","bahari","true","",""
"2121","","","","","5","html-slider-response","1218","","","","4",""
"2056","cup","dagat,shimoni,jeraha,matumai","matumai","n","5","html-keyboard-response","1219","f","dagat","false","",""
"2640","","","","","5","html-slider-response","1220","","","","1",""
"2152","sheet","bililhon,juuya,watu,kamantis","bililhon","f","5","html-keyboard-response","1221","v","juuya","false","",""
"2228","","","","","5","html-slider-response","1222","","","","1",""
"3761","spoon","pagsulod,betri,nzuri,ngazi","pagsulod","f","5","html-keyboard-response","1223","f","pagsulod","true","",""
"2380","","","","","5","html-slider-response","1224","","","","2",""
"3077","flower","tamasha,lobo,bega,usiku","bega","j","5","html-keyboard-response","1225","j","bega","true","",""
"2742","","","","","5","html-slider-response","1226","","","","2",""
"2323","picture","silya,chaki,asin,kubwa","kubwa","n","5","html-keyboard-response","1227","n","kubwa","true","",""
"2677","","","","","5","html-slider-response","1228","","","","1",""
"3136","puppet","napulo,lamok,mazishi,godoro","mazishi","j","5","html-keyboard-response","1229","f","napulo","false","",""
"2289","","","","","5","html-slider-response","1230","","","","1",""
"2156","banana","kasamok,kazi,hagdan,twai","kazi","v","5","html-keyboard-response","1231","v","kazi","true","",""
"2657","","","","","5","html-slider-response","1232","","","","4",""
"2700","book","kuhesa,mali,picha,mara","mali","v","5","html-keyboard-response","1233","f","kuhesa","false","",""
"2550","","","","","5","html-slider-response","1234","","","","1",""
"4502","triangle","kihozi,bentaha,kasadpan,liog","kasadpan","j","5","html-keyboard-response","1235","j","kasadpan","true","",""
"2425","","","","","5","html-slider-response","1236","","","","2",""
"3778","poster","nchi,madungog,fedha,kasuko","madungog","v","5","html-keyboard-response","1237","v","madungog","true","",""
"2153","","","","","5","html-slider-response","1238","","","","1",""
"2599","box","kuacha,adui,rafiki,kitande","adui","v","5","html-keyboard-response","1239","v","adui","true","",""
"2740","","","","","5","html-slider-response","1240","","","","5",""
"1674","mosquito","martilyo,isda,taras,gutom","martilyo","f","5","html-keyboard-response","1241","f","martilyo","true","",""
"2984","","","","","5","html-slider-response","1242","","","","5",""
"3175","shelf","bungtod,kadaot,awit,pamahaw","pamahaw","n","5","html-keyboard-response","1243","n","pamahaw","true","",""
"2158","","","","","5","html-slider-response","1244","","","","1",""
"1806","scissors","duga,mtawa,tanuri,suga","tanuri","j","5","html-keyboard-response","1245","n","suga","false","",""
"2432","","","","","5","html-slider-response","1246","","","","1",""
"3590","hammer","mekno,kitovu,layag,napakyas","napakyas","n","5","html-keyboard-response","1247","n","napakyas","true","",""
"2122","","","","","5","html-slider-response","1248","","","","1",""
