"rt","en_word","options","swa_word","correct_answer","phase","trial_type","trial_index","input_answer","input_word","accuracy","certainty","amt_choices"
"9108","bonfire","goti,mwezi,mfuko,kusanya","goti","f","2","html-keyboard-response","106","n","kusanya","false","",""
"4343","","","","","2","html-slider-response","107","","","","4",""
"7542","flower","tamasha,lobo,usiku,bega","bega","n","2","html-keyboard-response","108","n","bega","true","",""
"5332.399999976158","","","","","2","html-slider-response","109","","","","4",""
"9536","column","pundok,dila,ufagio,pala","ufagio","j","2","html-keyboard-response","110","n","pala","false","",""
"6248.600000023842","","","","","2","html-slider-response","111","","","","2",""
"6007","music","mraba,mageho,tumbo,baiski","baiski","n","2","html-keyboard-response","112","n","baiski","true","",""
"4587.400000035763","","","","","2","html-slider-response","113","","","","5",""
"3090","spider","bunyag,kamwe,mkboa,atop","kamwe","v","2","html-keyboard-response","114","v","kamwe","true","",""
"3732.800000011921","","","","","2","html-slider-response","115","","","","5",""
"8377","fork","mgonjwa,baboy,paghago,gorisi","mgonjwa","f","2","html-keyboard-response","116","f","mgonjwa","true","",""
"4359.699999988079","","","","","2","html-slider-response","117","","","","4",""
"5002","mosquito","isda,martilyo,taras,gutom","martilyo","v","2","html-keyboard-response","118","v","martilyo","true","",""
"3568.400000035763","","","","","2","html-slider-response","119","","","","5",""
"3932","banana","kasamok,hagdan,kazi,twai","kazi","j","2","html-keyboard-response","120","v","hagdan","false","",""
"3204.5","","","","","2","html-slider-response","121","","","","2",""
"6531","cup","dagat,matumai,shimoni,jeraha","matumai","v","2","html-keyboard-response","122","v","matumai","true","",""
"4559.5","","","","","2","html-slider-response","123","","","","4",""
"17522","shop","nopya,samaki,kerida,ndezu","samaki","v","2","html-keyboard-response","124","v","samaki","true","",""
"5467.700000047684","","","","","2","html-slider-response","125","","","","3",""
"7478","elephant","petye,pagduol,kito,suka","kito","j","2","html-keyboard-response","126","j","kito","true","",""
"3047","","","","","2","html-slider-response","127","","","","5",""
"6509","bucket","baga,kiatu,ijayo,init","kiatu","v","2","html-keyboard-response","128","v","kiatu","true","",""
"3742.7999999523163","","","","","2","html-slider-response","129","","","","5",""
"5555","book","mali,kuhesa,picha,mara","mali","f","2","html-keyboard-response","130","f","mali","true","",""
"2853.7999999523163","","","","","2","html-slider-response","131","","","","5",""
"5550","mirror","rangi,sulagma,kanding,furaha","sulagma","v","2","html-keyboard-response","132","j","kanding","false","",""
"3070.699999988079","","","","","2","html-slider-response","133","","","","5",""
"5714","office","leso,hazini,yatima,kuna","leso","f","2","html-keyboard-response","134","j","yatima","false","",""
"3972.5","","","","","2","html-slider-response","135","","","","4",""
"8567","body","tindashan,nyundu,jibini,kununa","tindashan","f","2","html-keyboard-response","136","f","tindashan","true","",""
"3512.300000011921","","","","","2","html-slider-response","137","","","","4",""
"4099","perfume","katuyoan,bino,sungura,ndogo","katuyoan","f","2","html-keyboard-response","138","f","katuyoan","true","",""
"3162.5","","","","","2","html-slider-response","139","","","","4",""
"5750","olive","jiwe,bata,siagi,welder","jiwe","f","2","html-keyboard-response","140","j","siagi","false","",""
"2593.199999988079","","","","","2","html-slider-response","141","","","","4",""
"6645","magazine","gundi,mchawi,kiti,bahandi","kiti","j","2","html-keyboard-response","142","v","mchawi","false","",""
"4922.100000023842","","","","","2","html-slider-response","143","","","","3",""
"7479","bread","kaili,dari,dizeli,bugas","dari","v","2","html-keyboard-response","144","v","dari","true","",""
"3266.900000035763","","","","","2","html-slider-response","145","","","","4",""
"7822","cave","kesho,ganti,maisha,nyundo","kesho","f","2","html-keyboard-response","146","f","kesho","true","",""
"3307.7000000476837","","","","","2","html-slider-response","147","","","","4",""
"4609","ladder","mashua,pangalan,mwanga,kamba","pangalan","v","2","html-keyboard-response","148","v","pangalan","true","",""
"3758.099999964237","","","","","2","html-slider-response","149","","","","5",""
"6656","human","bado,kikapu,tinapay,punguza","tinapay","j","2","html-keyboard-response","150","f","bado","false","",""
"3162.599999964237","","","","","2","html-slider-response","151","","","","4",""
"5921","clock","mbwa,kartasi,abang,osha","mbwa","f","2","html-keyboard-response","152","f","mbwa","true","",""
"3194.100000023842","","","","","2","html-slider-response","153","","","","2",""
"4413","shelf","pamahaw,bungtod,kadaot,awit","pamahaw","f","2","html-keyboard-response","154","f","pamahaw","true","",""
"5200","","","","","2","html-slider-response","155","","","","4",""
"5714","salmon","mzungu,seri,sensilyo,baharia","sensilyo","j","2","html-keyboard-response","156","j","sensilyo","true","",""
"6597.399999976158","","","","","2","html-slider-response","157","","","","4",""
"5883","coffin","barua,tubag,hulma,kioo","kioo","n","2","html-keyboard-response","158","n","kioo","true","",""
"3522.199999988079","","","","","2","html-slider-response","159","","","","2",""
"11973","notebook","msitu,kemia,kila,mdudu","kemia","v","2","html-keyboard-response","160","n","mdudu","false","",""
"3608.900000035763","","","","","2","html-slider-response","161","","","","1",""
"6580","shoulder","mkuu,kelele,ndaniya,guruwe","mkuu","f","2","html-keyboard-response","162","n","guruwe","false","",""
"7846.899999976158","","","","","2","html-slider-response","163","","","","3",""
"5801","park","tambok,bunifu,pwani,ihalas","bunifu","v","2","html-keyboard-response","164","j","pwani","false","",""
"6888.600000023842","","","","","2","html-slider-response","165","","","","2",""
"3285","number","mundamo,shule,kengele,choori","mundamo","f","2","html-keyboard-response","166","n","choori","false","",""
"4140.900000035763","","","","","2","html-slider-response","167","","","","3",""
"13223","apple","ukame,estante,edad,kisu","kisu","n","2","html-keyboard-response","168","j","edad","false","",""
"3791.2999999523163","","","","","2","html-slider-response","169","","","","1",""
"8268","letter","filimbi,chuma,kifua,uhuru","kifua","j","2","html-keyboard-response","170","f","filimbi","false","",""
"3638.899999976158","","","","","2","html-slider-response","171","","","","2",""
"2983","eel","msumari,ishara,kunywa,kabuang","msumari","f","2","html-keyboard-response","172","v","ishara","false","",""
"3267.300000011921","","","","","2","html-slider-response","173","","","","2",""
"6848","cop","bustani,mechezo,jikoni,bakus","mechezo","v","2","html-keyboard-response","174","v","mechezo","true","",""
"3573.400000035763","","","","","2","html-slider-response","175","","","","2",""
"3061","wolf","kaburi,ndizi,mchuzi,lugha","lugha","n","2","html-keyboard-response","176","n","lugha","true","",""
"5632.800000011921","","","","","2","html-slider-response","177","","","","2",""
"3936","squirrel","mahugaw,hofu,ukweli,kichwa","hofu","v","2","html-keyboard-response","178","v","hofu","true","",""
"8632","","","","","2","html-slider-response","179","","","","2",""
"2167","nose","gubat,kopa,kidole,sehemu","sehemu","n","2","html-keyboard-response","180","v","kopa","false","",""
"3420.399999976158","","","","","2","html-slider-response","181","","","","2",""
"4007","sock","mamba,ndoora,kimysa,mtirka","mamba","f","2","html-keyboard-response","182","j","kimysa","false","",""
"3192.100000023842","","","","","2","html-slider-response","183","","","","4",""
"6394","bank","kudhibi,tualya,silingan,ofisi","silingan","j","2","html-keyboard-response","184","j","silingan","true","",""
"3310.699999988079","","","","","2","html-slider-response","185","","","","4",""
"12485","donkey","elfu,bloke,lalake,rombus","elfu","f","2","html-keyboard-response","186","f","elfu","true","",""
"3656.800000011921","","","","","2","html-slider-response","187","","","","5",""
"4989","poster","nchi,fedha,kasuko,madungog","madungog","n","2","html-keyboard-response","188","n","madungog","true","",""
"3004.2999999523163","","","","","2","html-slider-response","189","","","","5",""
"7094","puppet","mazishi,napulo,lamok,godoro","mazishi","f","2","html-keyboard-response","190","n","godoro","false","",""
"3118.899999976158","","","","","2","html-slider-response","191","","","","4",""
"3901","hill","matumbo,kushoto,kukimba,sweta","matumbo","f","2","html-keyboard-response","192","f","matumbo","true","",""
"3203","","","","","2","html-slider-response","193","","","","4",""
"6692","tooth","kijiko,uadui,kabalaka,pahiyum","kabalaka","j","2","html-keyboard-response","194","j","kabalaka","true","",""
"9236.700000047684","","","","","2","html-slider-response","195","","","","4",""
"6351","woman","bandari,bituin,pagtabon,kovuli","pagtabon","j","2","html-keyboard-response","196","j","pagtabon","true","",""
"3233.900000035763","","","","","2","html-slider-response","197","","","","4",""
"3701","wheel","punda,tawo,bafuni,baadaye","bafuni","j","2","html-keyboard-response","198","n","baadaye","false","",""
"3297.899999976158","","","","","2","html-slider-response","199","","","","4",""
"3883","mother","babaye,kahawa,mbuzi,jokofu","babaye","f","2","html-keyboard-response","200","f","babaye","true","",""
"3287.800000011921","","","","","2","html-slider-response","201","","","","5",""
"2682","bed","mapintas,kalipay,haraka,starehe","mapintas","f","2","html-keyboard-response","202","f","mapintas","true","",""
"3631.199999988079","","","","","2","html-slider-response","203","","","","5",""
"6288","key","miaka,goma,chombo,ahos","chombo","j","2","html-keyboard-response","204","j","chombo","true","",""
"2796.5","","","","","2","html-slider-response","205","","","","4",""
"5390","page","wakala,ishiri,wimbo,skina","wimbo","j","2","html-keyboard-response","206","f","wakala","false","",""
"6743.300000011921","","","","","2","html-slider-response","207","","","","2",""
"3752","pants","pintal,chuki,haki,hari","haki","j","2","html-keyboard-response","208","n","hari","false","",""
"2905.5","","","","","2","html-slider-response","209","","","","2",""
"3705","sun","basi,bendi,luha,uongo","basi","f","2","html-keyboard-response","210","f","basi","true","",""
"3799","","","","","2","html-slider-response","211","","","","5",""
"3068","finger","simu,moyo,sufuria,lima","moyo","v","2","html-keyboard-response","212","v","moyo","true","",""
"3978.5","","","","","2","html-slider-response","213","","","","5",""
"3437","shoe","nyeusi,uyoga,hatua,kama","uyoga","v","2","html-keyboard-response","214","n","kama","false","",""
"3384.899999976158","","","","","2","html-slider-response","215","","","","5",""
"2376","giraffe","daraja,jumatu,hangyo,mahitabo","mahitabo","n","2","html-keyboard-response","216","n","mahitabo","true","",""
"3097.800000011921","","","","","2","html-slider-response","217","","","","5",""
"2168","dog","lubi,bahari,washia,kalamu","bahari","v","2","html-keyboard-response","218","v","bahari","true","",""
"3239.400000035763","","","","","2","html-slider-response","219","","","","5",""
"2331","box","kuacha,rafiki,adui,kitande","adui","j","2","html-keyboard-response","220","n","kitande","false","",""
"3317.699999988079","","","","","2","html-slider-response","221","","","","2",""
"5770","scissors","tanuri,duga,mtawa,suga","tanuri","f","2","html-keyboard-response","222","f","tanuri","true","",""
"3235.5","","","","","2","html-slider-response","223","","","","4",""
"3901","cat","neyemba,baki,paghukom,akili","paghukom","j","2","html-keyboard-response","224","j","paghukom","true","",""
"4563.100000023842","","","","","2","html-slider-response","225","","","","4",""
"3007","basket","kumbuka,utepe,hasira,kumba","kumba","n","2","html-keyboard-response","226","n","kumba","true","",""
"3279.800000011921","","","","","2","html-slider-response","227","","","","4",""
"4053","snake","jansa,pagtukod,karon,mvringo","pagtukod","v","2","html-keyboard-response","228","v","pagtukod","true","",""
"3392.399999976158","","","","","2","html-slider-response","229","","","","2",""
"5559","gift","baba,pagtawag,nyange,baso","pagtawag","v","2","html-keyboard-response","230","f","baba","false","",""
"3151.800000011921","","","","","2","html-slider-response","231","","","","2",""
"4527","train","itik,dakika,mungu,sayari","sayari","n","2","html-keyboard-response","232","n","sayari","true","",""
"3385.2000000476837","","","","","2","html-slider-response","233","","","","1",""
"8776","pudding","abug,mpishi,aibu,iring","aibu","j","2","html-keyboard-response","234","j","aibu","true","",""
"5543.399999976158","","","","","2","html-slider-response","235","","","","2",""
"5058","tomato","chupi,mvua,chupa,takatak","mvua","v","2","html-keyboard-response","236","n","takatak","false","",""
"4349.699999988079","","","","","2","html-slider-response","237","","","","2",""
"3574","stone","wingi,ulimwengu,mkasi,asili","wingi","f","2","html-keyboard-response","238","f","wingi","true","",""
"4106.199999988079","","","","","2","html-slider-response","239","","","","2",""
"2561","hammer","mekno,napakyas,kitovu,layag","napakyas","v","2","html-keyboard-response","240","v","napakyas","true","",""
"3350.800000011921","","","","","2","html-slider-response","241","","","","4",""
"4771","knee","mvuke,duka,kubale,bili","duka","v","2","html-keyboard-response","242","f","mvuke","false","",""
"3433.5","","","","","2","html-slider-response","243","","","","2",""
"2953","ceiling","maua,kugita,kawaida,rayna","maua","f","2","html-keyboard-response","244","j","kawaida","false","",""
"3040.5","","","","","2","html-slider-response","245","","","","4",""
"3000","spoon","betri,nzuri,ngazi,pagsulod","pagsulod","n","2","html-keyboard-response","246","n","pagsulod","true","",""
"2810.400000035763","","","","","2","html-slider-response","247","","","","4",""
"5459","marker","mapafu,salita,atay,maji","maji","n","2","html-keyboard-response","248","f","mapafu","false","",""
"3382.899999976158","","","","","2","html-slider-response","249","","","","2",""
"3075","candle","gabi,geza,farasi,kupanda","geza","v","2","html-keyboard-response","250","n","kupanda","false","",""
"3348.199999988079","","","","","2","html-slider-response","251","","","","1",""
"3891","tissue","lamigas,kisiwa,ugomvi,katika","ugomvi","j","2","html-keyboard-response","252","j","ugomvi","true","",""
"3277.699999988079","","","","","2","html-slider-response","253","","","","2",""
"2476","bridge","daima,ngono,sahani,panya","sahani","j","2","html-keyboard-response","254","n","panya","false","",""
"3114.300000011921","","","","","2","html-slider-response","255","","","","2",""
"4556","berry","abogado,nogozi,kinywa,kofia","kofia","n","2","html-keyboard-response","256","v","nogozi","false","",""
"5747.199999988079","","","","","2","html-slider-response","257","","","","2",""
"10408","triangle","kihozi,bentaha,kasadpan,liog","kasadpan","j","2","html-keyboard-response","258","j","kasadpan","true","",""
"3771.899999976158","","","","","2","html-slider-response","259","","","","4",""
"3704","door","tena,soko,surali,nyota","surali","j","2","html-keyboard-response","260","v","soko","false","",""
"3178.300000011921","","","","","2","html-slider-response","261","","","","2",""
"7751","fish","bala,baho,buli,imani","buli","j","2","html-keyboard-response","262","v","baho","false","",""
"3297.300000011921","","","","","2","html-slider-response","263","","","","4",""
"7522","curtain","mchanga,lisud,bulwawan,chubani","mchanga","f","2","html-keyboard-response","264","f","mchanga","true","",""
"3274","","","","","2","html-slider-response","265","","","","5",""
"2776","flag","trekta,ndege,mkate,kawa","trekta","f","2","html-keyboard-response","266","n","kawa","false","",""
"2831.199999988079","","","","","2","html-slider-response","267","","","","2",""
"3044","boat","agalon,hamsi,pombe,kitanda","agalon","f","2","html-keyboard-response","268","v","hamsi","false","",""
"3034.600000023842","","","","","2","html-slider-response","269","","","","2",""
"2352","rose","paghalad,singizi,mwanake,amani","paghalad","f","2","html-keyboard-response","270","f","paghalad","true","",""
"3127.199999988079","","","","","2","html-slider-response","271","","","","4",""
"2182","lamp","daub,bilaska,afya,mbolea","afya","j","2","html-keyboard-response","272","v","bilaska","false","",""
"2781.100000023842","","","","","2","html-slider-response","273","","","","2",""
"3613","cigar","ndugu,kuta,mlango,adhabu","adhabu","n","2","html-keyboard-response","274","n","adhabu","true","",""
"2810.600000023842","","","","","2","html-slider-response","275","","","","4",""
"4834","list","alizeti,kuzama,kaso,wingu","wingu","n","2","html-keyboard-response","276","n","wingu","true","",""
"3216.599999964237","","","","","2","html-slider-response","277","","","","5",""
"6887","sheet","bililhon,juuya,watu,kamantis","bililhon","f","2","html-keyboard-response","278","n","kamantis","false","",""
"3745.600000023842","","","","","2","html-slider-response","279","","","","2",""
"2131","picture","silya,chaki,asin,kubwa","kubwa","n","2","html-keyboard-response","280","n","kubwa","true","",""
"3553.5","","","","","2","html-slider-response","281","","","","2",""
"2849","towel","tembo,funzi,pagpalit,pito","pagpalit","j","2","html-keyboard-response","282","j","pagpalit","true","",""
"3438.199999988079","","","","","2","html-slider-response","283","","","","4",""
"3487","window","kweli,nanga,kujenga,umaga","kweli","f","2","html-keyboard-response","284","j","kujenga","false","",""
"3287.7999999523163","","","","","2","html-slider-response","285","","","","2",""
"7377","box","adui,kuacha,rafiki,kitande","adui","f","3","html-keyboard-response","293","v","kuacha","false","","4"
"4285.100000023842","","","","","3","html-slider-response","294","","","","2",""
"12081","","","","","3","html-keyboard-response","295","","","","",""
"3861","pants","haki,pintal,chuki,hari","haki","f","3","html-keyboard-response","296","j","chuki","false","","4"
"3719.2000000476837","","","","","3","html-slider-response","297","","","","2",""
"4418","","","","","3","html-keyboard-response","298","","","","",""
"5572","cup","matumai,dagat,shimoni,jeraha","matumai","f","3","html-keyboard-response","299","j","shimoni","false","","4"
"3141.099999964237","","","","","3","html-slider-response","300","","","","2",""
"9182","","","","","3","html-keyboard-response","301","","","","",""
"7151","triangle","kihozi,kasadpan,bentaha,liog","kasadpan","v","3","html-keyboard-response","302","v","kasadpan","true","","4"
"3529.899999976158","","","","","3","html-slider-response","303","","","","2",""
"2319","","","","","3","html-keyboard-response","304","","","","",""
"3347","curtain","lisud,bulwawan,chubani,mchanga","mchanga","n","3","html-keyboard-response","305","v","bulwawan","false","","4"
"3656.599999964237","","","","","3","html-slider-response","306","","","","2",""
"2517","","","","","3","html-keyboard-response","307","","","","",""
"3322","clock","kartasi,abang,mbwa,osha","mbwa","j","3","html-keyboard-response","308","n","osha","false","","4"
"2987.300000011921","","","","","3","html-slider-response","309","","","","2",""
"1937","","","","","3","html-keyboard-response","310","","","","",""
"3466","mirror","rangi,kanding,sulagma,furaha","sulagma","j","3","html-keyboard-response","311","j","sulagma","true","","4"
"3097.800000011921","","","","","3","html-slider-response","312","","","","2",""
"1671","","","","","3","html-keyboard-response","313","","","","",""
"2543","coffin","barua,tubag,hulma,kioo","kioo","n","3","html-keyboard-response","314","n","kioo","true","","1"
"4118","","","","","3","html-slider-response","315","","","","4",""
"1359","","","","","3","html-keyboard-response","316","","","","",""
"3168","magazine","gundi,kiti,mchawi,bahandi","kiti","v","3","html-keyboard-response","317","n","bahandi","false","","4"
"3127","","","","","3","html-slider-response","318","","","","4",""
"3372","","","","","3","html-keyboard-response","319","","","","",""
"2640","column","pundok,dila,ufagio,pala","ufagio","j","3","html-keyboard-response","320","j","ufagio","true","","1"
"3836.100000023842","","","","","3","html-slider-response","321","","","","5",""
"1349","","","","","3","html-keyboard-response","322","","","","",""
"4651","number","shule,mundamo,kengele,choori","mundamo","v","3","html-keyboard-response","323","n","choori","false","","4"
"4681.099999964237","","","","","3","html-slider-response","324","","","","5",""
"2658","","","","","3","html-keyboard-response","325","","","","",""
"2931","rose","paghalad,singizi,mwanake,amani","paghalad","f","3","html-keyboard-response","326","f","paghalad","true","","4"
"3398.899999976158","","","","","3","html-slider-response","327","","","","2",""
"1533","","","","","3","html-keyboard-response","328","","","","",""
"3975","eel","ishara,msumari,kunywa,kabuang","msumari","v","3","html-keyboard-response","329","f","ishara","false","","4"
"3236.100000023842","","","","","3","html-slider-response","330","","","","2",""
"1251","","","","","3","html-keyboard-response","331","","","","",""
"3278","gift","baba,nyange,baso,pagtawag","pagtawag","n","3","html-keyboard-response","332","n","pagtawag","true","","4"
"4392.300000011921","","","","","3","html-slider-response","333","","","","2",""
"1572","","","","","3","html-keyboard-response","334","","","","",""
"1855","apple","kisu,ukame,estante,edad","kisu","f","3","html-keyboard-response","335","f","kisu","true","","1"
"5308","","","","","3","html-slider-response","336","","","","5",""
"1286","","","","","3","html-keyboard-response","337","","","","",""
"1352","wheel","punda,bafuni,tawo,baadaye","bafuni","v","3","html-keyboard-response","338","v","bafuni","true","","1"
"3566.5","","","","","3","html-slider-response","339","","","","5",""
"1890","","","","","3","html-keyboard-response","340","","","","",""
"3689","knee","mvuke,kubale,duka,bili","duka","j","3","html-keyboard-response","341","f","mvuke","false","","4"
"3102.900000035763","","","","","3","html-slider-response","342","","","","2",""
"1330","","","","","3","html-keyboard-response","343","","","","",""
"2373","basket","kumbuka,kumba,utepe,hasira","kumba","v","3","html-keyboard-response","344","v","kumba","true","","1"
"3513.2000000476837","","","","","3","html-slider-response","345","","","","5",""
"2311","","","","","3","html-keyboard-response","346","","","","",""
"9570","park","tambok,bunifu,pwani,ihalas","bunifu","v","3","html-keyboard-response","347","v","bunifu","true","","4"
"3468.600000023842","","","","","3","html-slider-response","348","","","","5",""
"1061","","","","","3","html-keyboard-response","349","","","","",""
"2889","finger","simu,sufuria,moyo,lima","moyo","j","3","html-keyboard-response","350","j","moyo","true","","4"
"3272.900000035763","","","","","3","html-slider-response","351","","","","5",""
"1073","","","","","3","html-keyboard-response","352","","","","",""
"2750","boat","hamsi,pombe,kitanda,agalon","agalon","n","3","html-keyboard-response","353","v","pombe","false","","4"
"3290.399999976158","","","","","3","html-slider-response","354","","","","2",""
"551","","","","","3","html-keyboard-response","355","","","","",""
"2944","hill","kushoto,kukimba,matumbo,sweta","matumbo","j","3","html-keyboard-response","356","v","kukimba","false","","4"
"3488.5","","","","","3","html-slider-response","357","","","","2",""
"541","","","","","3","html-keyboard-response","358","","","","",""
"4721","train","itik,sayari,dakika,mungu","sayari","v","3","html-keyboard-response","359","j","dakika","false","","4"
"3409.800000011921","","","","","3","html-slider-response","360","","","","2",""
"925","","","","","3","html-keyboard-response","361","","","","",""
"3656","wolf","kaburi,lugha,ndizi,mchuzi","lugha","v","3","html-keyboard-response","362","v","lugha","true","","4"
"2973.199999988079","","","","","3","html-slider-response","363","","","","2",""
"1043","","","","","3","html-keyboard-response","364","","","","",""
"7146","snake","pagtukod,jansa,karon,mvringo","pagtukod","f","3","html-keyboard-response","365","f","pagtukod","true","","4"
"3234.699999988079","","","","","3","html-slider-response","366","","","","2",""
"1708","","","","","3","html-keyboard-response","367","","","","",""
"5851","tooth","kijiko,uadui,kabalaka,pahiyum","kabalaka","j","3","html-keyboard-response","368","j","kabalaka","true","","4"
"2883.300000011921","","","","","3","html-slider-response","369","","","","4",""
"711","","","","","3","html-keyboard-response","370","","","","",""
"5953","notebook","msitu,kemia,kila,mdudu","kemia","v","3","html-keyboard-response","371","n","mdudu","false","","4"
"3184.599999964237","","","","","3","html-slider-response","372","","","","2",""
"648","","","","","3","html-keyboard-response","373","","","","",""
"2557","flag","ndege,mkate,trekta,kawa","trekta","j","3","html-keyboard-response","374","f","ndege","false","","4"
"3630.699999988079","","","","","3","html-slider-response","375","","","","2",""
"618","","","","","3","html-keyboard-response","376","","","","",""
"2539","squirrel","hofu,mahugaw,ukweli,kichwa","hofu","f","3","html-keyboard-response","377","v","mahugaw","false","","4"
"3456.300000011921","","","","","3","html-slider-response","378","","","","4",""
"488","","","","","3","html-keyboard-response","379","","","","",""
"2617","door","tena,soko,surali,nyota","surali","j","3","html-keyboard-response","380","n","nyota","false","","4"
"3760.5","","","","","3","html-slider-response","381","","","","1",""
"581","","","","","3","html-keyboard-response","382","","","","",""
"4847","salmon","mzungu,sensilyo,seri,baharia","sensilyo","v","3","html-keyboard-response","383","v","sensilyo","true","","4"
"3394.800000011921","","","","","3","html-slider-response","384","","","","4",""
"892","","","","","3","html-keyboard-response","385","","","","",""
"3913","shoulder","kelele,ndaniya,guruwe,mkuu","mkuu","n","3","html-keyboard-response","386","j","guruwe","false","","4"
"3111.900000035763","","","","","3","html-slider-response","387","","","","2",""
"566","","","","","3","html-keyboard-response","388","","","","",""
"2301","lamp","daub,afya,bilaska,mbolea","afya","v","3","html-keyboard-response","389","n","mbolea","false","","4"
"2562.399999976158","","","","","3","html-slider-response","390","","","","2",""
"1201","","","","","3","html-keyboard-response","391","","","","",""
"1953","shelf","pamahaw,bungtod,kadaot,awit","pamahaw","f","3","html-keyboard-response","392","f","pamahaw","true","","1"
"3681.800000011921","","","","","3","html-slider-response","393","","","","5",""
"1319","","","","","3","html-keyboard-response","394","","","","",""
"6701","human","bado,kikapu,punguza,tinapay","tinapay","n","3","html-keyboard-response","395","n","tinapay","true","","4"
"3891.199999988079","","","","","3","html-slider-response","396","","","","2",""
"1379","","","","","3","html-keyboard-response","397","","","","",""
"2503","towel","tembo,funzi,pagpalit,pito","pagpalit","j","3","html-keyboard-response","398","j","pagpalit","true","","4"
"3073.300000011921","","","","","3","html-slider-response","399","","","","2",""
"1128","","","","","3","html-keyboard-response","400","","","","",""
"2074","cat","paghukom,neyemba,baki,akili","paghukom","f","3","html-keyboard-response","401","f","paghukom","true","","4"
"3535.800000011921","","","","","3","html-slider-response","402","","","","2",""
"1075","","","","","3","html-keyboard-response","403","","","","",""
"4538","spider","bunyag,mkboa,atop,kamwe","kamwe","n","3","html-keyboard-response","404","n","kamwe","true","","4"
"3056","","","","","3","html-slider-response","405","","","","2",""
"977","","","","","3","html-keyboard-response","406","","","","",""
"2621","window","kweli,nanga,kujenga,umaga","kweli","f","3","html-keyboard-response","407","j","kujenga","false","","4"
"3575.800000011921","","","","","3","html-slider-response","408","","","","2",""
"608","","","","","3","html-keyboard-response","409","","","","",""
"1536","woman","pagtabon,bandari,bituin,kovuli","pagtabon","f","3","html-keyboard-response","410","f","pagtabon","true","","1"
"3373.300000011921","","","","","3","html-slider-response","411","","","","4",""
"1461","","","","","3","html-keyboard-response","412","","","","",""
"1986","giraffe","mahitabo,daraja,jumatu,hangyo","mahitabo","f","3","html-keyboard-response","413","f","mahitabo","true","","4"
"3336.300000011921","","","","","3","html-slider-response","414","","","","2",""
"767","","","","","3","html-keyboard-response","415","","","","",""
"5636","elephant","petye,pagduol,suka,kito","kito","n","3","html-keyboard-response","416","f","petye","false","","4"
"6646.099999964237","","","","","3","html-slider-response","417","","","","4",""
"1268","","","","","3","html-keyboard-response","418","","","","",""
"3265","cave","ganti,maisha,nyundo,kesho","kesho","n","3","html-keyboard-response","419","v","maisha","false","","4"
"3544.800000011921","","","","","3","html-slider-response","420","","","","2",""
"1119","","","","","3","html-keyboard-response","421","","","","",""
"3142","bread","kaili,dizeli,dari,bugas","dari","j","3","html-keyboard-response","422","j","dari","true","","4"
"2731.899999976158","","","","","3","html-slider-response","423","","","","2",""
"1003","","","","","3","html-keyboard-response","424","","","","",""
"3488","stone","ulimwengu,mkasi,asili,wingi","wingi","n","3","html-keyboard-response","425","j","asili","false","","4"
"3327.900000035763","","","","","3","html-slider-response","426","","","","2",""
"675","","","","","3","html-keyboard-response","427","","","","",""
"3195","donkey","bloke,lalake,elfu,rombus","elfu","j","3","html-keyboard-response","428","j","elfu","true","","4"
"3374.399999976158","","","","","3","html-slider-response","429","","","","5",""
"2601","","","","","3","html-keyboard-response","430","","","","",""
"3087","bridge","sahani,daima,ngono,panya","sahani","f","3","html-keyboard-response","431","f","sahani","true","","4"
"3059.5","","","","","3","html-slider-response","432","","","","2",""
"348","","","","","3","html-keyboard-response","433","","","","",""
"3206","bonfire","mwezi,mfuko,kusanya,goti","goti","n","3","html-keyboard-response","434","n","goti","true","","4"
"3222.699999988079","","","","","3","html-slider-response","435","","","","2",""
"385","","","","","3","html-keyboard-response","436","","","","",""
"3021","book","kuhesa,mali,picha,mara","mali","v","3","html-keyboard-response","437","v","mali","true","","4"
"3408.899999976158","","","","","3","html-slider-response","438","","","","2",""
"905","","","","","3","html-keyboard-response","439","","","","",""
"3053","fish","bala,buli,baho,imani","buli","v","3","html-keyboard-response","440","n","imani","false","","4"
"3645.399999976158","","","","","3","html-slider-response","441","","","","2",""
"363","","","","","3","html-keyboard-response","442","","","","",""
"2431","spoon","betri,pagsulod,nzuri,ngazi","pagsulod","v","3","html-keyboard-response","443","v","pagsulod","true","","4"
"2895.5","","","","","3","html-slider-response","444","","","","2",""
"495","","","","","3","html-keyboard-response","445","","","","",""
"5724","scissors","tanuri,duga,mtawa,suga","tanuri","f","3","html-keyboard-response","446","j","mtawa","false","","4"
"2909.300000011921","","","","","3","html-slider-response","447","","","","2",""
"792","","","","","3","html-keyboard-response","448","","","","",""
"5710","page","wimbo,wakala,ishiri,skina","wimbo","f","3","html-keyboard-response","449","n","skina","false","","4"
"3284.300000011921","","","","","3","html-slider-response","450","","","","2",""
"2605","","","","","3","html-keyboard-response","451","","","","",""
"1468","nose","sehemu,gubat,kopa,kidole","sehemu","f","3","html-keyboard-response","452","f","sehemu","true","","1"
"3165.699999988079","","","","","3","html-slider-response","453","","","","5",""
"847","","","","","3","html-keyboard-response","454","","","","",""
"1939","ceiling","kugita,kawaida,maua,rayna","maua","j","3","html-keyboard-response","455","v","kawaida","false","","4"
"3324.300000011921","","","","","3","html-slider-response","456","","","","4",""
"2887","","","","","3","html-keyboard-response","457","","","","",""
"12004","bucket","baga,ijayo,init,kiatu","kiatu","n","3","html-keyboard-response","458","n","kiatu","true","","4"
"100232","","","","","3","html-slider-response","459","","","","2",""
"3517","","","","","3","html-keyboard-response","460","","","","",""
"1846","berry","kofia,abogado,nogozi,kinywa","kofia","f","3","html-keyboard-response","461","f","kofia","true","","1"
"3126.800000011921","","","","","3","html-slider-response","462","","","","2",""
"2281","","","","","3","html-keyboard-response","463","","","","",""
"6377","mother","kahawa,babaye,mbuzi,jokofu","babaye","v","3","html-keyboard-response","464","v","babaye","true","","1"
"4343.099999964237","","","","","3","html-slider-response","465","","","","5",""
"2844","","","","","3","html-keyboard-response","466","","","","",""
"3362","mosquito","isda,taras,gutom,martilyo","martilyo","n","3","html-keyboard-response","467","f","isda","false","","4"
"4776.900000035763","","","","","3","html-slider-response","468","","","","2",""
"1810","","","","","3","html-keyboard-response","469","","","","",""
"4881","perfume","bino,sungura,katuyoan,ndogo","katuyoan","j","3","html-keyboard-response","470","j","katuyoan","true","","4"
"3125.199999988079","","","","","3","html-slider-response","471","","","","2",""
"1020","","","","","3","html-keyboard-response","472","","","","",""
"2038","sheet","bililhon,juuya,watu,kamantis","bililhon","f","3","html-keyboard-response","473","n","kamantis","false","","4"
"4251.100000023842","","","","","3","html-slider-response","474","","","","2",""
"721","","","","","3","html-keyboard-response","475","","","","",""
"1680","puppet","napulo,lamok,mazishi,godoro","mazishi","j","3","html-keyboard-response","476","j","mazishi","true","","1"
"3422.199999988079","","","","","3","html-slider-response","477","","","","5",""
"823","","","","","3","html-keyboard-response","478","","","","",""
"5288","poster","nchi,fedha,madungog,kasuko","madungog","j","3","html-keyboard-response","479","j","madungog","true","","4"
"3210.800000011921","","","","","3","html-slider-response","480","","","","2",""
"751","","","","","3","html-keyboard-response","481","","","","",""
"4009","music","baiski,mraba,mageho,tumbo","baiski","f","3","html-keyboard-response","482","f","baiski","true","","4"
"3335.400000035763","","","","","3","html-slider-response","483","","","","5",""
"1521","","","","","3","html-keyboard-response","484","","","","",""
"2405","key","miaka,goma,chombo,ahos","chombo","j","3","html-keyboard-response","485","j","chombo","true","","4"
"3141.599999964237","","","","","3","html-slider-response","486","","","","2",""
"758","","","","","3","html-keyboard-response","487","","","","",""
"2629","sock","ndoora,kimysa,mtirka,mamba","mamba","n","3","html-keyboard-response","488","n","mamba","true","","4"
"3137","","","","","3","html-slider-response","489","","","","2",""
"1045","","","","","3","html-keyboard-response","490","","","","",""
"2922","marker","maji,mapafu,salita,atay","maji","f","3","html-keyboard-response","491","v","mapafu","false","","4"
"3362","","","","","3","html-slider-response","492","","","","2",""
"768","","","","","3","html-keyboard-response","493","","","","",""
"3059","office","leso,hazini,yatima,kuna","leso","f","3","html-keyboard-response","494","j","yatima","false","","4"
"3321.600000023842","","","","","3","html-slider-response","495","","","","2",""
"673","","","","","3","html-keyboard-response","496","","","","",""
"2207","shoe","nyeusi,uyoga,hatua,kama","uyoga","v","3","html-keyboard-response","497","n","kama","false","","4"
"3161.300000011921","","","","","3","html-slider-response","498","","","","2",""
"856","","","","","3","html-keyboard-response","499","","","","",""
"1912","cop","bustani,jikoni,bakus,mechezo","mechezo","n","3","html-keyboard-response","500","n","mechezo","true","","4"
"2850.599999964237","","","","","3","html-slider-response","501","","","","2",""
"772","","","","","3","html-keyboard-response","502","","","","",""
"1712","bank","kudhibi,tualya,ofisi,silingan","silingan","n","3","html-keyboard-response","503","n","silingan","true","","4"
"2783","","","","","3","html-slider-response","504","","","","2",""
"817","","","","","3","html-keyboard-response","505","","","","",""
"2324","letter","filimbi,chuma,kifua,uhuru","kifua","j","3","html-keyboard-response","506","j","kifua","true","","1"
"4444","","","","","3","html-slider-response","507","","","","5",""
"1047","","","","","3","html-keyboard-response","508","","","","",""
"3770","dog","lubi,bahari,washia,kalamu","bahari","v","3","html-keyboard-response","509","v","bahari","true","","1"
"3493.5","","","","","3","html-slider-response","510","","","","5",""
"1857","","","","","3","html-keyboard-response","511","","","","",""
"2698","shop","samaki,nopya,kerida,ndezu","samaki","f","3","html-keyboard-response","512","f","samaki","true","","4"
"3425.199999988079","","","","","3","html-slider-response","513","","","","2",""
"547","","","","","3","html-keyboard-response","514","","","","",""
"3870","flower","bega,tamasha,lobo,usiku","bega","f","3","html-keyboard-response","515","v","tamasha","false","","4"
"3278.5","","","","","3","html-slider-response","516","","","","2",""
"461","","","","","3","html-keyboard-response","517","","","","",""
"1400","cigar","adhabu,ndugu,kuta,mlango","adhabu","f","3","html-keyboard-response","518","f","adhabu","true","","1"
"3791.199999988079","","","","","3","html-slider-response","519","","","","5",""
"1409","","","","","3","html-keyboard-response","520","","","","",""
"2014","hammer","mekno,kitovu,napakyas,layag","napakyas","j","3","html-keyboard-response","521","n","layag","false","","4"
"3429","","","","","3","html-slider-response","522","","","","2",""
"345","","","","","3","html-keyboard-response","523","","","","",""
"1833","fork","baboy,paghago,mgonjwa,gorisi","mgonjwa","j","3","html-keyboard-response","524","v","paghago","false","","4"
"3210.899999976158","","","","","3","html-slider-response","525","","","","2",""
"301","","","","","3","html-keyboard-response","526","","","","",""
"1997","sun","basi,bendi,luha,uongo","basi","f","3","html-keyboard-response","527","f","basi","true","","1"
"3127.5","","","","","3","html-slider-response","528","","","","4",""
"742","","","","","3","html-keyboard-response","529","","","","",""
"2528","ladder","mashua,mwanga,pangalan,kamba","pangalan","j","3","html-keyboard-response","530","j","pangalan","true","","4"
"3077.699999988079","","","","","3","html-slider-response","531","","","","5",""
"547","","","","","3","html-keyboard-response","532","","","","",""
"1592","banana","kasamok,hagdan,twai,kazi","kazi","n","3","html-keyboard-response","533","n","kazi","true","","1"
"3207.300000011921","","","","","3","html-slider-response","534","","","","5",""
"434","","","","","3","html-keyboard-response","535","","","","",""
"4755","pudding","aibu,abug,mpishi,iring","aibu","f","3","html-keyboard-response","536","f","aibu","true","","4"
"4088.900000035763","","","","","3","html-slider-response","537","","","","4",""
"340","","","","","3","html-keyboard-response","538","","","","",""
"3588","body","nyundu,tindashan,jibini,kununa","tindashan","v","3","html-keyboard-response","539","v","tindashan","true","","4"
"3366.099999964237","","","","","3","html-slider-response","540","","","","2",""
"415","","","","","3","html-keyboard-response","541","","","","",""
"2249","bed","kalipay,haraka,starehe,mapintas","mapintas","n","3","html-keyboard-response","542","n","mapintas","true","","4"
"3101.199999988079","","","","","3","html-slider-response","543","","","","2",""
"292","","","","","3","html-keyboard-response","544","","","","",""
"1976","tissue","lamigas,kisiwa,katika,ugomvi","ugomvi","n","3","html-keyboard-response","545","n","ugomvi","true","","4"
"4000.900000035763","","","","","3","html-slider-response","546","","","","2",""
"914","","","","","3","html-keyboard-response","547","","","","",""
"1976","candle","geza,gabi,farasi,kupanda","geza","f","3","html-keyboard-response","548","n","kupanda","false","","4"
"3380.899999976158","","","","","3","html-slider-response","549","","","","2",""
"672","","","","","3","html-keyboard-response","550","","","","",""
"2045","tomato","chupi,chupa,takatak,mvua","mvua","n","3","html-keyboard-response","551","n","mvua","true","","1"
"4209.900000035763","","","","","3","html-slider-response","552","","","","5",""
"767","","","","","3","html-keyboard-response","553","","","","",""
"3718","list","alizeti,kuzama,wingu,kaso","wingu","j","3","html-keyboard-response","554","n","kaso","false","","4"
"3251.399999976158","","","","","3","html-slider-response","555","","","","2",""
"306","","","","","3","html-keyboard-response","556","","","","",""
"3072","olive","jiwe,bata,siagi,welder","jiwe","f","3","html-keyboard-response","557","n","welder","false","","4"
"2789.600000023842","","","","","3","html-slider-response","558","","","","2",""
"323","","","","","3","html-keyboard-response","559","","","","",""
"1353","picture","silya,chaki,kubwa,asin","kubwa","j","3","html-keyboard-response","560","j","kubwa","true","","1"
"3031.5","","","","","3","html-slider-response","561","","","","5",""
"867","","","","","3","html-keyboard-response","562","","","","",""
"8939","page","wakala,wimbo,ishiri,skina","wimbo","v","4","html-keyboard-response","888","j","ishiri","false","",""
"5332","","","","","4","html-slider-response","889","","","","4",""
"6521","sheet","bililhon,juuya,watu,kamantis","bililhon","f","4","html-keyboard-response","890","f","bililhon","true","",""
"2575.7000000476837","","","","","4","html-slider-response","891","","","","4",""
"2494","ladder","mashua,mwanga,kamba,pangalan","pangalan","n","4","html-keyboard-response","892","n","pangalan","true","",""
"3059.400000035763","","","","","4","html-slider-response","893","","","","5",""
"3176","door","tena,surali,soko,nyota","surali","v","4","html-keyboard-response","894","v","surali","true","",""
"3440.099999964237","","","","","4","html-slider-response","895","","","","2",""
"3567","spider","kamwe,bunyag,mkboa,atop","kamwe","f","4","html-keyboard-response","896","f","kamwe","true","",""
"3464.899999976158","","","","","4","html-slider-response","897","","","","5",""
"6173","picture","silya,kubwa,chaki,asin","kubwa","v","4","html-keyboard-response","898","j","chaki","false","",""
"3591.600000023842","","","","","4","html-slider-response","899","","","","2",""
"132816","boat","hamsi,pombe,agalon,kitanda","agalon","j","4","html-keyboard-response","900","v","pombe","false","",""
"3413.600000023842","","","","","4","html-slider-response","901","","","","5",""
"2511","donkey","bloke,lalake,rombus,elfu","elfu","n","4","html-keyboard-response","902","n","elfu","true","",""
"3358.100000023842","","","","","4","html-slider-response","903","","","","5",""
"1898","book","kuhesa,mali,picha,mara","mali","v","4","html-keyboard-response","904","v","mali","true","",""
"2366","","","","","4","html-slider-response","905","","","","5",""
"1412","cup","dagat,shimoni,matumai,jeraha","matumai","j","4","html-keyboard-response","906","v","shimoni","false","",""
"3229.099999964237","","","","","4","html-slider-response","907","","","","5",""
"2793","sun","basi,bendi,luha,uongo","basi","f","4","html-keyboard-response","908","f","basi","true","",""
"3768.400000035763","","","","","4","html-slider-response","909","","","","5",""
"2948","pudding","abug,mpishi,iring,aibu","aibu","n","4","html-keyboard-response","910","n","aibu","true","",""
"2920.699999988079","","","","","4","html-slider-response","911","","","","5",""
"4290","human","bado,kikapu,tinapay,punguza","tinapay","j","4","html-keyboard-response","912","j","tinapay","true","",""
"3808.400000035763","","","","","4","html-slider-response","913","","","","5",""
"2134","squirrel","mahugaw,ukweli,kichwa,hofu","hofu","n","4","html-keyboard-response","914","f","mahugaw","false","",""
"2895.199999988079","","","","","4","html-slider-response","915","","","","4",""
"2619","park","bunifu,tambok,pwani,ihalas","bunifu","f","4","html-keyboard-response","916","f","bunifu","true","",""
"3623.600000023842","","","","","4","html-slider-response","917","","","","4",""
"2514","poster","nchi,fedha,madungog,kasuko","madungog","j","4","html-keyboard-response","918","j","madungog","true","",""
"2607.599999964237","","","","","4","html-slider-response","919","","","","5",""
"2235","wolf","kaburi,ndizi,mchuzi,lugha","lugha","n","4","html-keyboard-response","920","n","lugha","true","",""
"2912.199999988079","","","","","4","html-slider-response","921","","","","5",""
"1766","cat","neyemba,baki,paghukom,akili","paghukom","j","4","html-keyboard-response","922","v","baki","false","",""
"3585.199999988079","","","","","4","html-slider-response","923","","","","2",""
"3853","fish","buli,bala,baho,imani","buli","f","4","html-keyboard-response","924","n","imani","false","",""
"3404.199999988079","","","","","4","html-slider-response","925","","","","4",""
"4596","tooth","kijiko,kabalaka,uadui,pahiyum","kabalaka","v","4","html-keyboard-response","926","f","kijiko","false","",""
"4172.399999976158","","","","","4","html-slider-response","927","","","","2",""
"4207","cave","ganti,maisha,kesho,nyundo","kesho","j","4","html-keyboard-response","928","v","maisha","false","",""
"3193.7999999523163","","","","","4","html-slider-response","929","","","","2",""
"1697","lamp","daub,bilaska,mbolea,afya","afya","n","4","html-keyboard-response","930","v","bilaska","false","",""
"3550.399999976158","","","","","4","html-slider-response","931","","","","2",""
"3039","banana","kazi,kasamok,hagdan,twai","kazi","f","4","html-keyboard-response","932","f","kazi","true","",""
"2775.600000023842","","","","","4","html-slider-response","933","","","","5",""
"3137","bonfire","mwezi,mfuko,goti,kusanya","goti","j","4","html-keyboard-response","934","j","goti","true","",""
"3044.199999988079","","","","","4","html-slider-response","935","","","","5",""
"2708","cop","bustani,jikoni,mechezo,bakus","mechezo","j","4","html-keyboard-response","936","j","mechezo","true","",""
"3364","","","","","4","html-slider-response","937","","","","2",""
"1780","marker","mapafu,maji,salita,atay","maji","v","4","html-keyboard-response","938","f","mapafu","false","",""
"2819.699999988079","","","","","4","html-slider-response","939","","","","2",""
"2106","window","kweli,nanga,kujenga,umaga","kweli","f","4","html-keyboard-response","940","n","umaga","false","",""
"3190.5","","","","","4","html-slider-response","941","","","","2",""
"2920","body","nyundu,tindashan,jibini,kununa","tindashan","v","4","html-keyboard-response","942","v","tindashan","true","",""
"3165.300000011921","","","","","4","html-slider-response","943","","","","5",""
"2710","apple","ukame,kisu,estante,edad","kisu","v","4","html-keyboard-response","944","n","edad","false","",""
"2899.100000023842","","","","","4","html-slider-response","945","","","","2",""
"1837","salmon","mzungu,seri,baharia,sensilyo","sensilyo","n","4","html-keyboard-response","946","n","sensilyo","true","",""
"3218.600000023842","","","","","4","html-slider-response","947","","","","5",""
"1486","bed","mapintas,kalipay,haraka,starehe","mapintas","f","4","html-keyboard-response","948","f","mapintas","true","",""
"2982.099999964237","","","","","4","html-slider-response","949","","","","2",""
"1808","berry","abogado,nogozi,kinywa,kofia","kofia","n","4","html-keyboard-response","950","v","nogozi","false","",""
"3084.800000011921","","","","","4","html-slider-response","951","","","","2",""
"2087","mirror","rangi,sulagma,kanding,furaha","sulagma","v","4","html-keyboard-response","952","v","sulagma","true","",""
"2913.100000023842","","","","","4","html-slider-response","953","","","","4",""
"2596","flag","trekta,ndege,mkate,kawa","trekta","f","4","html-keyboard-response","954","n","kawa","false","",""
"2829.7999999523163","","","","","4","html-slider-response","955","","","","2",""
"5822","shoulder","kelele,ndaniya,guruwe,mkuu","mkuu","n","4","html-keyboard-response","956","j","guruwe","false","",""
"3043.199999988079","","","","","4","html-slider-response","957","","","","5",""
"1570","tissue","ugomvi,lamigas,kisiwa,katika","ugomvi","f","4","html-keyboard-response","958","n","katika","false","",""
"3350.699999988079","","","","","4","html-slider-response","959","","","","2",""
"2203","notebook","msitu,kemia,kila,mdudu","kemia","v","4","html-keyboard-response","960","j","kila","false","",""
"3444.2000000476837","","","","","4","html-slider-response","961","","","","4",""
"2546","snake","jansa,pagtukod,karon,mvringo","pagtukod","v","4","html-keyboard-response","962","n","mvringo","false","",""
"3107.7999999523163","","","","","4","html-slider-response","963","","","","4",""
"2179","finger","simu,moyo,sufuria,lima","moyo","v","4","html-keyboard-response","964","v","moyo","true","",""
"3591.800000011921","","","","","4","html-slider-response","965","","","","5",""
"2259","basket","kumbuka,utepe,hasira,kumba","kumba","n","4","html-keyboard-response","966","n","kumba","true","",""
"3150.899999976158","","","","","4","html-slider-response","967","","","","2",""
"1781","curtain","lisud,bulwawan,chubani,mchanga","mchanga","n","4","html-keyboard-response","968","v","bulwawan","false","",""
"2978.5","","","","","4","html-slider-response","969","","","","4",""
"2578","perfume","bino,sungura,katuyoan,ndogo","katuyoan","j","4","html-keyboard-response","970","j","katuyoan","true","",""
"2791.600000023842","","","","","4","html-slider-response","971","","","","2",""
"4329","key","miaka,chombo,goma,ahos","chombo","v","4","html-keyboard-response","972","j","goma","false","",""
"3338.5","","","","","4","html-slider-response","973","","","","2",""
"8907","olive","bata,siagi,welder,jiwe","jiwe","n","4","html-keyboard-response","974","n","jiwe","true","",""
"3034","","","","","4","html-slider-response","975","","","","4",""
"9460","rose","paghalad,singizi,mwanake,amani","paghalad","f","4","html-keyboard-response","976","n","amani","false","",""
"3344.399999976158","","","","","4","html-slider-response","977","","","","4",""
"2181","bridge","daima,ngono,panya,sahani","sahani","n","4","html-keyboard-response","978","n","sahani","true","",""
"3221","","","","","4","html-slider-response","979","","","","4",""
"2941","hill","kushoto,kukimba,matumbo,sweta","matumbo","j","4","html-keyboard-response","980","v","kukimba","false","",""
"4348.5","","","","","4","html-slider-response","981","","","","4",""
"2086","letter","filimbi,chuma,uhuru,kifua","kifua","n","4","html-keyboard-response","982","n","kifua","true","",""
"4170.699999988079","","","","","4","html-slider-response","983","","","","4",""
"4414","sock","ndoora,mamba,kimysa,mtirka","mamba","v","4","html-keyboard-response","984","v","mamba","true","",""
"2968.2000000476837","","","","","4","html-slider-response","985","","","","2",""
"1798","fork","mgonjwa,baboy,paghago,gorisi","mgonjwa","f","4","html-keyboard-response","986","f","mgonjwa","true","",""
"3865.5","","","","","4","html-slider-response","987","","","","4",""
"2817","box","kuacha,rafiki,kitande,adui","adui","n","4","html-keyboard-response","988","n","adui","true","",""
"3331.100000023842","","","","","4","html-slider-response","989","","","","2",""
"2207","gift","pagtawag,baba,nyange,baso","pagtawag","f","4","html-keyboard-response","990","f","pagtawag","true","",""
"4128.700000047684","","","","","4","html-slider-response","991","","","","4",""
"6508","bucket","baga,ijayo,kiatu,init","kiatu","j","4","html-keyboard-response","992","j","kiatu","true","",""
"3213.600000023842","","","","","4","html-slider-response","993","","","","2",""
"2132","shop","nopya,kerida,samaki,ndezu","samaki","j","4","html-keyboard-response","994","j","samaki","true","",""
"2928.400000035763","","","","","4","html-slider-response","995","","","","2",""
"2509","puppet","napulo,lamok,godoro,mazishi","mazishi","n","4","html-keyboard-response","996","j","godoro","false","",""
"2996.600000023842","","","","","4","html-slider-response","997","","","","2",""
"1680","nose","gubat,sehemu,kopa,kidole","sehemu","v","4","html-keyboard-response","998","n","kidole","false","",""
"3164.800000011921","","","","","4","html-slider-response","999","","","","2",""
"2517","music","baiski,mraba,mageho,tumbo","baiski","f","4","html-keyboard-response","1000","f","baiski","true","",""
"3260.899999976158","","","","","4","html-slider-response","1001","","","","5",""
"1594","dog","bahari,lubi,washia,kalamu","bahari","f","4","html-keyboard-response","1002","f","bahari","true","",""
"3029.2999999523163","","","","","4","html-slider-response","1003","","","","5",""
"2741","eel","ishara,kunywa,msumari,kabuang","msumari","j","4","html-keyboard-response","1004","f","ishara","false","",""
"2824.300000011921","","","","","4","html-slider-response","1005","","","","2",""
"1756","number","shule,mundamo,kengele,choori","mundamo","v","4","html-keyboard-response","1006","n","choori","false","",""
"4004.100000023842","","","","","4","html-slider-response","1007","","","","2",""
"3190","tomato","chupi,chupa,takatak,mvua","mvua","n","4","html-keyboard-response","1008","f","chupi","false","",""
"2985.5","","","","","4","html-slider-response","1009","","","","2",""
"3244","coffin","barua,tubag,kioo,hulma","kioo","j","4","html-keyboard-response","1010","f","barua","false","",""
"3033.7999999523163","","","","","4","html-slider-response","1011","","","","2",""
"2422","knee","mvuke,kubale,duka,bili","duka","j","4","html-keyboard-response","1012","v","kubale","false","",""
"2805.400000035763","","","","","4","html-slider-response","1013","","","","2",""
"2487","woman","pagtabon,bandari,bituin,kovuli","pagtabon","f","4","html-keyboard-response","1014","f","pagtabon","true","",""
"3141.899999976158","","","","","4","html-slider-response","1015","","","","5",""
"2333","stone","wingi,ulimwengu,mkasi,asili","wingi","f","4","html-keyboard-response","1016","n","asili","false","",""
"2907.600000023842","","","","","4","html-slider-response","1017","","","","4",""
"1771","bread","kaili,dizeli,bugas,dari","dari","n","4","html-keyboard-response","1018","n","dari","true","",""
"3302.7000000476837","","","","","4","html-slider-response","1019","","","","4",""
"1577","triangle","kihozi,bentaha,kasadpan,liog","kasadpan","j","4","html-keyboard-response","1020","v","bentaha","false","",""
"3135.7999999523163","","","","","4","html-slider-response","1021","","","","2",""
"1544","scissors","duga,tanuri,mtawa,suga","tanuri","v","4","html-keyboard-response","1022","n","suga","false","",""
"3232.199999988079","","","","","4","html-slider-response","1023","","","","2",""
"1435","giraffe","daraja,jumatu,mahitabo,hangyo","mahitabo","j","4","html-keyboard-response","1024","v","jumatu","false","",""
"3077.5","","","","","4","html-slider-response","1025","","","","2",""
"1778","flower","bega,tamasha,lobo,usiku","bega","f","4","html-keyboard-response","1026","n","usiku","false","",""
"2811.5","","","","","4","html-slider-response","1027","","","","4",""
"990","candle","geza,gabi,farasi,kupanda","geza","f","4","html-keyboard-response","1028","v","gabi","false","",""
"6343.5","","","","","4","html-slider-response","1029","","","","2",""
"1817","mother","kahawa,mbuzi,jokofu,babaye","babaye","n","4","html-keyboard-response","1030","n","babaye","true","",""
"4027.600000023842","","","","","4","html-slider-response","1031","","","","5",""
"5569","towel","pagpalit,tembo,funzi,pito","pagpalit","f","4","html-keyboard-response","1032","n","pito","false","",""
"3296.5","","","","","4","html-slider-response","1033","","","","4",""
"2062","elephant","petye,pagduol,suka,kito","kito","n","4","html-keyboard-response","1034","n","kito","true","",""
"2891.400000035763","","","","","4","html-slider-response","1035","","","","4",""
"1518","shelf","bungtod,kadaot,awit,pamahaw","pamahaw","n","4","html-keyboard-response","1036","n","pamahaw","true","",""
"3223.2000000476837","","","","","4","html-slider-response","1037","","","","2",""
"1797","mosquito","isda,martilyo,taras,gutom","martilyo","v","4","html-keyboard-response","1038","v","martilyo","true","",""
"3349.800000011921","","","","","4","html-slider-response","1039","","","","5",""
"1737","column","pundok,dila,pala,ufagio","ufagio","n","4","html-keyboard-response","1040","v","dila","false","",""
"2721.400000035763","","","","","4","html-slider-response","1041","","","","2",""
"1517","pants","pintal,haki,chuki,hari","haki","v","4","html-keyboard-response","1042","v","haki","true","",""
"2765.899999976158","","","","","4","html-slider-response","1043","","","","4",""
"10537","list","alizeti,wingu,kuzama,kaso","wingu","v","4","html-keyboard-response","1044","v","wingu","true","",""
"4586.899999976158","","","","","4","html-slider-response","1045","","","","4",""
"3127","bank","kudhibi,silingan,tualya,ofisi","silingan","v","4","html-keyboard-response","1046","n","ofisi","false","",""
"3095.699999988079","","","","","4","html-slider-response","1047","","","","4",""
"1902","clock","mbwa,kartasi,abang,osha","mbwa","f","4","html-keyboard-response","1048","n","osha","false","",""
"3042.300000011921","","","","","4","html-slider-response","1049","","","","5",""
"2150","ceiling","maua,kugita,kawaida,rayna","maua","f","4","html-keyboard-response","1050","j","kawaida","false","",""
"3049.900000035763","","","","","4","html-slider-response","1051","","","","2",""
"4671","train","itik,dakika,sayari,mungu","sayari","j","4","html-keyboard-response","1052","v","dakika","false","",""
"3176.899999976158","","","","","4","html-slider-response","1053","","","","4",""
"7278","magazine","kiti,gundi,mchawi,bahandi","kiti","f","4","html-keyboard-response","1054","v","gundi","false","",""
"2804.5","","","","","4","html-slider-response","1055","","","","2",""
"1423","office","hazini,yatima,leso,kuna","leso","j","4","html-keyboard-response","1056","v","yatima","false","",""
"3412.599999964237","","","","","4","html-slider-response","1057","","","","2",""
"1234","wheel","bafuni,punda,tawo,baadaye","bafuni","f","4","html-keyboard-response","1058","v","punda","false","",""
"12275.800000011921","","","","","4","html-slider-response","1059","","","","4",""
"2467","spoon","betri,nzuri,pagsulod,ngazi","pagsulod","j","4","html-keyboard-response","1060","j","pagsulod","true","",""
"7574.399999976158","","","","","4","html-slider-response","1061","","","","2",""
"2086","hammer","mekno,kitovu,napakyas,layag","napakyas","j","4","html-keyboard-response","1062","j","napakyas","true","",""
"2805","","","","","4","html-slider-response","1063","","","","2",""
"2664","cigar","ndugu,adhabu,kuta,mlango","adhabu","v","4","html-keyboard-response","1064","v","adhabu","true","",""
"4926.099999964237","","","","","4","html-slider-response","1065","","","","4",""
"1499","shoe","nyeusi,uyoga,hatua,kama","uyoga","v","4","html-keyboard-response","1066","v","uyoga","true","",""
"3344.699999988079","","","","","4","html-slider-response","1067","","","","2",""
"4553","list","wingu,alizeti,kuzama,kaso","wingu","f","5","html-keyboard-response","1069","n","kaso","false","",""
"3671.900000035763","","","","","5","html-slider-response","1070","","","","4",""
"1884","number","shule,kengele,mundamo,choori","mundamo","j","5","html-keyboard-response","1071","n","choori","false","",""
"3235","","","","","5","html-slider-response","1072","","","","5",""
"3020","apple","ukame,estante,kisu,edad","kisu","j","5","html-keyboard-response","1073","n","edad","false","",""
"3198.7000000476837","","","","","5","html-slider-response","1074","","","","5",""
"12546","knee","mvuke,duka,kubale,bili","duka","v","5","html-keyboard-response","1075","v","duka","true","",""
"3469","","","","","5","html-slider-response","1076","","","","4",""
"2867","tooth","kijiko,kabalaka,uadui,pahiyum","kabalaka","v","5","html-keyboard-response","1077","n","pahiyum","false","",""
"3061.699999988079","","","","","5","html-slider-response","1078","","","","5",""
"3369","berry","abogado,nogozi,kofia,kinywa","kofia","j","5","html-keyboard-response","1079","j","kofia","true","",""
"5286","","","","","5","html-slider-response","1080","","","","5",""
"3393","bridge","daima,sahani,ngono,panya","sahani","v","5","html-keyboard-response","1081","n","panya","false","",""
"4116.199999988079","","","","","5","html-slider-response","1082","","","","2",""
"2213","perfume","bino,sungura,katuyoan,ndogo","katuyoan","j","5","html-keyboard-response","1083","v","sungura","false","",""
"3193","","","","","5","html-slider-response","1084","","","","5",""
"1714","ladder","mashua,mwanga,kamba,pangalan","pangalan","n","5","html-keyboard-response","1085","n","pangalan","true","",""
"3072.699999988079","","","","","5","html-slider-response","1086","","","","5",""
"2421","pants","pintal,chuki,haki,hari","haki","j","5","html-keyboard-response","1087","j","haki","true","",""
"3421.599999964237","","","","","5","html-slider-response","1088","","","","5",""
"1761","salmon","mzungu,seri,baharia,sensilyo","sensilyo","n","5","html-keyboard-response","1089","n","sensilyo","true","",""
"3142.399999976158","","","","","5","html-slider-response","1090","","","","5",""
"3195","coffin","barua,tubag,kioo,hulma","kioo","j","5","html-keyboard-response","1091","j","kioo","true","",""
"3607.600000023842","","","","","5","html-slider-response","1092","","","","2",""
"2788","park","tambok,pwani,bunifu,ihalas","bunifu","j","5","html-keyboard-response","1093","j","bunifu","true","",""
"3263","","","","","5","html-slider-response","1094","","","","5",""
"2080","giraffe","mahitabo,daraja,jumatu,hangyo","mahitabo","f","5","html-keyboard-response","1095","f","mahitabo","true","",""
"3348","","","","","5","html-slider-response","1096","","","","1",""
"1732","mirror","rangi,kanding,furaha,sulagma","sulagma","n","5","html-keyboard-response","1097","n","sulagma","true","",""
"3493.5","","","","","5","html-slider-response","1098","","","","5",""
"1620","ceiling","maua,kugita,kawaida,rayna","maua","f","5","html-keyboard-response","1099","j","kawaida","false","",""
"3007.099999964237","","","","","5","html-slider-response","1100","","","","2",""
"2997","marker","mapafu,salita,atay,maji","maji","n","5","html-keyboard-response","1101","f","mapafu","false","",""
"2841.899999976158","","","","","5","html-slider-response","1102","","","","2",""
"1874","sock","ndoora,kimysa,mtirka,mamba","mamba","n","5","html-keyboard-response","1103","j","mtirka","false","",""
"2956.300000011921","","","","","5","html-slider-response","1104","","","","2",""
"2287","cop","bustani,jikoni,mechezo,bakus","mechezo","j","5","html-keyboard-response","1105","f","bustani","false","",""
"3753.5","","","","","5","html-slider-response","1106","","","","2",""
"1727","gift","baba,pagtawag,nyange,baso","pagtawag","v","5","html-keyboard-response","1107","v","pagtawag","true","",""
"3311.300000011921","","","","","5","html-slider-response","1108","","","","5",""
"1691","notebook","kemia,msitu,kila,mdudu","kemia","f","5","html-keyboard-response","1109","n","mdudu","false","",""
"2838.599999964237","","","","","5","html-slider-response","1110","","","","2",""
"1497","bank","kudhibi,tualya,ofisi,silingan","silingan","n","5","html-keyboard-response","1111","n","silingan","true","",""
"4539.699999988079","","","","","5","html-slider-response","1112","","","","2",""
"2755","letter","filimbi,chuma,uhuru,kifua","kifua","n","5","html-keyboard-response","1113","v","chuma","false","",""
"3176.2000000476837","","","","","5","html-slider-response","1114","","","","2",""
"1539","candle","gabi,geza,farasi,kupanda","geza","v","5","html-keyboard-response","1115","n","kupanda","false","",""
"3099.399999976158","","","","","5","html-slider-response","1116","","","","2",""
"2423","bread","kaili,dari,dizeli,bugas","dari","v","5","html-keyboard-response","1117","v","dari","true","",""
"3281.599999964237","","","","","5","html-slider-response","1118","","","","5",""
"2528","snake","jansa,karon,pagtukod,mvringo","pagtukod","j","5","html-keyboard-response","1119","n","mvringo","false","",""
"3426.300000011921","","","","","5","html-slider-response","1120","","","","5",""
"5080","rose","singizi,mwanake,paghalad,amani","paghalad","j","5","html-keyboard-response","1121","j","paghalad","true","",""
"3357.300000011921","","","","","5","html-slider-response","1122","","","","2",""
"1633","hill","matumbo,kushoto,kukimba,sweta","matumbo","f","5","html-keyboard-response","1123","n","sweta","false","",""
"3036.300000011921","","","","","5","html-slider-response","1124","","","","2",""
"2023","train","itik,dakika,mungu,sayari","sayari","n","5","html-keyboard-response","1125","v","dakika","false","",""
"3283.099999964237","","","","","5","html-slider-response","1126","","","","5",""
"1601","shop","nopya,kerida,ndezu,samaki","samaki","n","5","html-keyboard-response","1127","n","samaki","true","",""
"2958.100000023842","","","","","5","html-slider-response","1128","","","","2",""
"1481","nose","sehemu,gubat,kopa,kidole","sehemu","f","5","html-keyboard-response","1129","n","kidole","false","",""
"2901.100000023842","","","","","5","html-slider-response","1130","","","","2",""
"1316","boat","hamsi,pombe,kitanda,agalon","agalon","n","5","html-keyboard-response","1131","v","pombe","false","",""
"3627.399999976158","","","","","5","html-slider-response","1132","","","","4",""
"2783","body","tindashan,nyundu,jibini,kununa","tindashan","f","5","html-keyboard-response","1133","f","tindashan","true","",""
"3134.400000035763","","","","","5","html-slider-response","1134","","","","5",""
"1686","bed","kalipay,haraka,mapintas,starehe","mapintas","j","5","html-keyboard-response","1135","j","mapintas","true","",""
"3180.599999964237","","","","","5","html-slider-response","1136","","","","5",""
"2044","squirrel","hofu,mahugaw,ukweli,kichwa","hofu","f","5","html-keyboard-response","1137","v","mahugaw","false","",""
"3058.2999999523163","","","","","5","html-slider-response","1138","","","","5",""
"1453","window","nanga,kujenga,umaga,kweli","kweli","n","5","html-keyboard-response","1139","v","kujenga","false","",""
"3364.800000011921","","","","","5","html-slider-response","1140","","","","4",""
"2524","bonfire","mwezi,mfuko,goti,kusanya","goti","j","5","html-keyboard-response","1141","j","goti","true","",""
"3435.199999988079","","","","","5","html-slider-response","1142","","","","5",""
"2885","fish","bala,baho,buli,imani","buli","j","5","html-keyboard-response","1143","j","buli","true","",""
"3096.300000011921","","","","","5","html-slider-response","1144","","","","4",""
"1617","cat","neyemba,baki,akili,paghukom","paghukom","n","5","html-keyboard-response","1145","n","paghukom","true","",""
"4103.800000011921","","","","","5","html-slider-response","1146","","","","2",""
"3633","spider","kamwe,bunyag,mkboa,atop","kamwe","f","5","html-keyboard-response","1147","f","kamwe","true","",""
"3578.5","","","","","5","html-slider-response","1148","","","","5",""
"2750","eel","ishara,kunywa,msumari,kabuang","msumari","j","5","html-keyboard-response","1149","f","ishara","false","",""
"5002.600000023842","","","","","5","html-slider-response","1150","","","","2",""
"3709","woman","bandari,bituin,kovuli,pagtabon","pagtabon","n","5","html-keyboard-response","1151","n","pagtabon","true","",""
"2781.399999976158","","","","","5","html-slider-response","1152","","","","2",""
"2451","magazine","gundi,mchawi,bahandi,kiti","kiti","n","5","html-keyboard-response","1153","n","kiti","true","",""
"3250.600000023842","","","","","5","html-slider-response","1154","","","","5",""
"2686","pudding","abug,aibu,mpishi,iring","aibu","v","5","html-keyboard-response","1155","v","aibu","true","",""
"3432.2000000476837","","","","","5","html-slider-response","1156","","","","5",""
"1115","lamp","daub,bilaska,afya,mbolea","afya","j","5","html-keyboard-response","1157","v","bilaska","false","",""
"2924.7000000476837","","","","","5","html-slider-response","1158","","","","2",""
"944","cave","ganti,maisha,nyundo,kesho","kesho","n","5","html-keyboard-response","1159","v","maisha","false","",""
"3959.899999976158","","","","","5","html-slider-response","1160","","","","4",""
"974","shoulder","kelele,ndaniya,mkuu,guruwe","mkuu","j","5","html-keyboard-response","1161","v","ndaniya","false","",""
"3455.399999976158","","","","","5","html-slider-response","1162","","","","1",""
"1573","stone","ulimwengu,mkasi,wingi,asili","wingi","j","5","html-keyboard-response","1163","f","ulimwengu","false","",""
"3141.600000023842","","","","","5","html-slider-response","1164","","","","2",""
"1814","column","pundok,dila,pala,ufagio","ufagio","n","5","html-keyboard-response","1165","n","ufagio","true","",""
"3761.800000011921","","","","","5","html-slider-response","1166","","","","2",""
"1993","page","wakala,ishiri,wimbo,skina","wimbo","j","5","html-keyboard-response","1167","n","skina","false","",""
"2762.300000011921","","","","","5","html-slider-response","1168","","","","2",""
"2997","shoe","nyeusi,hatua,uyoga,kama","uyoga","j","5","html-keyboard-response","1169","j","uyoga","true","",""
"3732.899999976158","","","","","5","html-slider-response","1170","","","","2",""
"1701","clock","kartasi,mbwa,abang,osha","mbwa","v","5","html-keyboard-response","1171","n","osha","false","",""
"3080","","","","","5","html-slider-response","1172","","","","5",""
"1571","towel","tembo,funzi,pagpalit,pito","pagpalit","j","5","html-keyboard-response","1173","n","pito","false","",""
"3233.399999976158","","","","","5","html-slider-response","1174","","","","5",""
"1542","tomato","chupi,chupa,mvua,takatak","mvua","j","5","html-keyboard-response","1175","v","chupa","false","",""
"3850","","","","","5","html-slider-response","1176","","","","5",""
"2615","bucket","baga,kiatu,ijayo,init","kiatu","v","5","html-keyboard-response","1177","f","baga","false","",""
"3669.400000035763","","","","","5","html-slider-response","1178","","","","5",""
"1583","finger","simu,moyo,sufuria,lima","moyo","v","5","html-keyboard-response","1179","v","moyo","true","",""
"3783.899999976158","","","","","5","html-slider-response","1180","","","","5",""
"2622","mother","kahawa,mbuzi,babaye,jokofu","babaye","j","5","html-keyboard-response","1181","j","babaye","true","",""
"3518.900000035763","","","","","5","html-slider-response","1182","","","","5",""
"3263","human","bado,tinapay,kikapu,punguza","tinapay","v","5","html-keyboard-response","1183","v","tinapay","true","",""
"3639.900000035763","","","","","5","html-slider-response","1184","","","","5",""
"1601","sun","bendi,luha,uongo,basi","basi","n","5","html-keyboard-response","1185","n","basi","true","",""
"3157.300000011921","","","","","5","html-slider-response","1186","","","","5",""
"2167","fork","baboy,paghago,gorisi,mgonjwa","mgonjwa","n","5","html-keyboard-response","1187","n","mgonjwa","true","",""
"3364","","","","","5","html-slider-response","1188","","","","4",""
"1994","donkey","bloke,lalake,elfu,rombus","elfu","j","5","html-keyboard-response","1189","j","elfu","true","",""
"2924.2999999523163","","","","","5","html-slider-response","1190","","","","5",""
"2341","wolf","kaburi,ndizi,lugha,mchuzi","lugha","j","5","html-keyboard-response","1191","j","lugha","true","",""
"3123","","","","","5","html-slider-response","1192","","","","5",""
"1601","cigar","ndugu,adhabu,kuta,mlango","adhabu","v","5","html-keyboard-response","1193","n","mlango","false","",""
"2908.300000011921","","","","","5","html-slider-response","1194","","","","2",""
"1588","olive","jiwe,bata,siagi,welder","jiwe","f","5","html-keyboard-response","1195","v","bata","false","",""
"2752.900000035763","","","","","5","html-slider-response","1196","","","","4",""
"971","key","miaka,chombo,goma,ahos","chombo","v","5","html-keyboard-response","1197","v","chombo","true","",""
"5015","","","","","5","html-slider-response","1198","","","","2",""
"1945","door","surali,tena,soko,nyota","surali","f","5","html-keyboard-response","1199","j","soko","false","",""
"3037.699999988079","","","","","5","html-slider-response","1200","","","","2",""
"853","wheel","punda,tawo,baadaye,bafuni","bafuni","n","5","html-keyboard-response","1201","v","tawo","false","",""
"3846.199999988079","","","","","5","html-slider-response","1202","","","","4",""
"1846","basket","kumbuka,utepe,kumba,hasira","kumba","j","5","html-keyboard-response","1203","f","kumbuka","false","",""
"3750.599999964237","","","","","5","html-slider-response","1204","","","","2",""
"1972","elephant","petye,pagduol,kito,suka","kito","j","5","html-keyboard-response","1205","j","kito","true","",""
"2859.7999999523163","","","","","5","html-slider-response","1206","","","","5",""
"1813","office","hazini,yatima,kuna,leso","leso","n","5","html-keyboard-response","1207","n","leso","true","",""
"3756.699999988079","","","","","5","html-slider-response","1208","","","","2",""
"2002","music","baiski,mraba,mageho,tumbo","baiski","f","5","html-keyboard-response","1209","v","mraba","false","",""
"3634.5","","","","","5","html-slider-response","1210","","","","5",""
"1637","tissue","lamigas,kisiwa,ugomvi,katika","ugomvi","j","5","html-keyboard-response","1211","v","kisiwa","false","",""
"3049.800000011921","","","","","5","html-slider-response","1212","","","","2",""
"2598","curtain","mchanga,lisud,bulwawan,chubani","mchanga","f","5","html-keyboard-response","1213","f","mchanga","true","",""
"3236.300000011921","","","","","5","html-slider-response","1214","","","","2",""
"1238","flag","ndege,trekta,mkate,kawa","trekta","v","5","html-keyboard-response","1215","v","trekta","true","",""
"2879.5","","","","","5","html-slider-response","1216","","","","2",""
"2066","dog","bahari,lubi,washia,kalamu","bahari","f","5","html-keyboard-response","1217","f","bahari","true","",""
"4877.699999988079","","","","","5","html-slider-response","1218","","","","5",""
"1280","cup","matumai,dagat,shimoni,jeraha","matumai","f","5","html-keyboard-response","1219","v","dagat","false","",""
"2885.900000035763","","","","","5","html-slider-response","1220","","","","2",""
"1749","sheet","juuya,watu,bililhon,kamantis","bililhon","j","5","html-keyboard-response","1221","v","watu","false","",""
"3051.100000023842","","","","","5","html-slider-response","1222","","","","2",""
"1514","spoon","betri,nzuri,ngazi,pagsulod","pagsulod","n","5","html-keyboard-response","1223","n","pagsulod","true","",""
"3226.300000011921","","","","","5","html-slider-response","1224","","","","5",""
"1893","flower","bega,tamasha,lobo,usiku","bega","f","5","html-keyboard-response","1225","v","tamasha","false","",""
"2950.900000035763","","","","","5","html-slider-response","1226","","","","2",""
"2612","picture","silya,chaki,asin,kubwa","kubwa","n","5","html-keyboard-response","1227","f","silya","false","",""
"3158.699999988079","","","","","5","html-slider-response","1228","","","","1",""
"2431","puppet","mazishi,napulo,lamok,godoro","mazishi","f","5","html-keyboard-response","1229","n","godoro","false","",""
"2700.199999988079","","","","","5","html-slider-response","1230","","","","2",""
"3000","banana","kazi,kasamok,hagdan,twai","kazi","f","5","html-keyboard-response","1231","f","kazi","true","",""
"3507","","","","","5","html-slider-response","1232","","","","5",""
"1455","book","kuhesa,picha,mali,mara","mali","j","5","html-keyboard-response","1233","n","mara","false","",""
"2673.899999976158","","","","","5","html-slider-response","1234","","","","5",""
"3020","triangle","kihozi,kasadpan,bentaha,liog","kasadpan","v","5","html-keyboard-response","1235","j","bentaha","false","",""
"3102.699999988079","","","","","5","html-slider-response","1236","","","","5",""
"3151","poster","nchi,fedha,madungog,kasuko","madungog","j","5","html-keyboard-response","1237","j","madungog","true","",""
"3164.199999988079","","","","","5","html-slider-response","1238","","","","5",""
"2502","box","kuacha,adui,rafiki,kitande","adui","v","5","html-keyboard-response","1239","v","adui","true","",""
"3637.100000023842","","","","","5","html-slider-response","1240","","","","5",""
"1832","mosquito","isda,taras,martilyo,gutom","martilyo","j","5","html-keyboard-response","1241","j","martilyo","true","",""
"3339","","","","","5","html-slider-response","1242","","","","5",""
"1911","shelf","pamahaw,bungtod,kadaot,awit","pamahaw","f","5","html-keyboard-response","1243","f","pamahaw","true","",""
"2957.2999999523163","","","","","5","html-slider-response","1244","","","","5",""
"1747","scissors","tanuri,duga,mtawa,suga","tanuri","f","5","html-keyboard-response","1245","n","suga","false","",""
"3097.899999976158","","","","","5","html-slider-response","1246","","","","5",""
"1296","hammer","mekno,napakyas,kitovu,layag","napakyas","v","5","html-keyboard-response","1247","v","napakyas","true","",""
"4723.300000011921","","","","","5","html-slider-response","1248","","","","4",""
