"rt","en_word","options","swa_word","correct_answer","phase","trial_type","trial_index","input_answer","input_word","accuracy","certainty","amt_choices"
"3807","bonfire","mwezi,mfuko,goti,kusanya","goti","j","2","html-keyboard-response","106","j","goti","true","",""
"1431","","","","","2","html-slider-response","107","","","","2",""
"3298","flower","tamasha,bega,lobo,usiku","bega","v","2","html-keyboard-response","108","v","bega","true","",""
"1687.2999999970198","","","","","2","html-slider-response","109","","","","5",""
"3848","column","pundok,dila,ufagio,pala","ufagio","j","2","html-keyboard-response","110","v","dila","false","",""
"1571.4000000059605","","","","","2","html-slider-response","111","","","","2",""
"6493","music","mraba,mageho,tumbo,baiski","baiski","n","2","html-keyboard-response","112","f","mraba","false","",""
"1658.7999999970198","","","","","2","html-slider-response","113","","","","2",""
"3102","spider","kamwe,bunyag,mkboa,atop","kamwe","f","2","html-keyboard-response","114","v","bunyag","false","",""
"1594","","","","","2","html-slider-response","115","","","","2",""
"7589","fork","mgonjwa,baboy,paghago,gorisi","mgonjwa","f","2","html-keyboard-response","116","j","paghago","false","",""
"2030.0999999940395","","","","","2","html-slider-response","117","","","","2",""
"2622","mosquito","martilyo,isda,taras,gutom","martilyo","f","2","html-keyboard-response","118","f","martilyo","true","",""
"1790.199999988079","","","","","2","html-slider-response","119","","","","5",""
"7097","banana","kasamok,hagdan,twai,kazi","kazi","n","2","html-keyboard-response","120","j","twai","false","",""
"1796.7999999970198","","","","","2","html-slider-response","121","","","","2",""
"3102","cup","dagat,matumai,shimoni,jeraha","matumai","v","2","html-keyboard-response","122","f","dagat","false","",""
"1524.7999999970198","","","","","2","html-slider-response","123","","","","2",""
"3484","shop","nopya,kerida,samaki,ndezu","samaki","j","2","html-keyboard-response","124","j","samaki","true","",""
"1455.7999999970198","","","","","2","html-slider-response","125","","","","4",""
"4127","elephant","kito,petye,pagduol,suka","kito","f","2","html-keyboard-response","126","f","kito","true","",""
"1871","","","","","2","html-slider-response","127","","","","2",""
"3975","bucket","baga,ijayo,kiatu,init","kiatu","j","2","html-keyboard-response","128","j","kiatu","true","",""
"1364.7999999970198","","","","","2","html-slider-response","129","","","","4",""
"6932","book","kuhesa,picha,mali,mara","mali","j","2","html-keyboard-response","130","j","mali","true","",""
"1401.3999999910593","","","","","2","html-slider-response","131","","","","4",""
"3733","mirror","sulagma,rangi,kanding,furaha","sulagma","f","2","html-keyboard-response","132","f","sulagma","true","",""
"1381.7999999970198","","","","","2","html-slider-response","133","","","","5",""
"2263","office","hazini,yatima,kuna,leso","leso","n","2","html-keyboard-response","134","n","leso","true","",""
"1677.9000000059605","","","","","2","html-slider-response","135","","","","5",""
"3749","body","tindashan,nyundu,jibini,kununa","tindashan","f","2","html-keyboard-response","136","f","tindashan","true","",""
"1355.0999999940395","","","","","2","html-slider-response","137","","","","5",""
"3950","perfume","katuyoan,bino,sungura,ndogo","katuyoan","f","2","html-keyboard-response","138","j","sungura","false","",""
"1561","","","","","2","html-slider-response","139","","","","2",""
"2175","olive","bata,siagi,welder,jiwe","jiwe","n","2","html-keyboard-response","140","n","jiwe","true","",""
"1472.7999999970198","","","","","2","html-slider-response","141","","","","5",""
"12006","magazine","gundi,mchawi,bahandi,kiti","kiti","n","2","html-keyboard-response","142","n","kiti","true","",""
"1871.7999999970198","","","","","2","html-slider-response","143","","","","2",""
"2423","bread","kaili,dari,dizeli,bugas","dari","v","2","html-keyboard-response","144","v","dari","true","",""
"1608.2000000029802","","","","","2","html-slider-response","145","","","","5",""
"2625","cave","ganti,maisha,kesho,nyundo","kesho","j","2","html-keyboard-response","146","j","kesho","true","",""
"1525.4000000059605","","","","","2","html-slider-response","147","","","","5",""
"2957","ladder","mashua,pangalan,mwanga,kamba","pangalan","v","2","html-keyboard-response","148","v","pangalan","true","",""
"2585.2999999970198","","","","","2","html-slider-response","149","","","","5",""
"3804","human","bado,kikapu,tinapay,punguza","tinapay","j","2","html-keyboard-response","150","j","tinapay","true","",""
"1354.2000000029802","","","","","2","html-slider-response","151","","","","5",""
"5501","clock","kartasi,abang,mbwa,osha","mbwa","j","2","html-keyboard-response","152","j","mbwa","true","",""
"1562.4000000059605","","","","","2","html-slider-response","153","","","","5",""
"4222","shelf","bungtod,kadaot,awit,pamahaw","pamahaw","n","2","html-keyboard-response","154","n","pamahaw","true","",""
"1327","","","","","2","html-slider-response","155","","","","2",""
"4675","salmon","sensilyo,mzungu,seri,baharia","sensilyo","f","2","html-keyboard-response","156","f","sensilyo","true","",""
"1367.5","","","","","2","html-slider-response","157","","","","4",""
"2990","coffin","kioo,barua,tubag,hulma","kioo","f","2","html-keyboard-response","158","f","kioo","true","",""
"1346.4000000059605","","","","","2","html-slider-response","159","","","","5",""
"4873","notebook","msitu,kemia,kila,mdudu","kemia","v","2","html-keyboard-response","160","v","kemia","true","",""
"1535","","","","","2","html-slider-response","161","","","","2",""
"3893","shoulder","kelele,mkuu,ndaniya,guruwe","mkuu","v","2","html-keyboard-response","162","v","mkuu","true","",""
"1563.8999999910593","","","","","2","html-slider-response","163","","","","5",""
"3987","park","bunifu,tambok,pwani,ihalas","bunifu","f","2","html-keyboard-response","164","j","pwani","false","",""
"1220.1000000089407","","","","","2","html-slider-response","165","","","","2",""
"5186","number","mundamo,shule,kengele,choori","mundamo","f","2","html-keyboard-response","166","n","choori","false","",""
"1997.5","","","","","2","html-slider-response","167","","","","2",""
"3540","apple","kisu,ukame,estante,edad","kisu","f","2","html-keyboard-response","168","f","kisu","true","",""
"1703.7999999970198","","","","","2","html-slider-response","169","","","","2",""
"4932","letter","filimbi,chuma,uhuru,kifua","kifua","n","2","html-keyboard-response","170","j","uhuru","false","",""
"2825.0999999940395","","","","","2","html-slider-response","171","","","","2",""
"4263","eel","msumari,ishara,kunywa,kabuang","msumari","f","2","html-keyboard-response","172","n","kabuang","false","",""
"2393.2999999970198","","","","","2","html-slider-response","173","","","","2",""
"4493","cop","bustani,jikoni,bakus,mechezo","mechezo","n","2","html-keyboard-response","174","n","mechezo","true","",""
"1573.0999999940395","","","","","2","html-slider-response","175","","","","4",""
"2118","wolf","lugha,kaburi,ndizi,mchuzi","lugha","f","2","html-keyboard-response","176","f","lugha","true","",""
"1179.2000000029802","","","","","2","html-slider-response","177","","","","2",""
"2295","squirrel","mahugaw,hofu,ukweli,kichwa","hofu","v","2","html-keyboard-response","178","j","ukweli","false","",""
"1768.3999999910593","","","","","2","html-slider-response","179","","","","2",""
"4838","nose","gubat,kopa,kidole,sehemu","sehemu","n","2","html-keyboard-response","180","n","sehemu","true","",""
"1224.1000000089407","","","","","2","html-slider-response","181","","","","2",""
"2559","sock","ndoora,mamba,kimysa,mtirka","mamba","v","2","html-keyboard-response","182","v","mamba","true","",""
"1526.7999999970198","","","","","2","html-slider-response","183","","","","5",""
"2816","bank","silingan,kudhibi,tualya,ofisi","silingan","f","2","html-keyboard-response","184","n","ofisi","false","",""
"1440.2000000029802","","","","","2","html-slider-response","185","","","","2",""
"3335","donkey","bloke,lalake,elfu,rombus","elfu","j","2","html-keyboard-response","186","j","elfu","true","",""
"1666.2999999970198","","","","","2","html-slider-response","187","","","","5",""
"2504","poster","nchi,fedha,kasuko,madungog","madungog","n","2","html-keyboard-response","188","f","nchi","false","",""
"1789.4000000059605","","","","","2","html-slider-response","189","","","","2",""
"3808","puppet","mazishi,napulo,lamok,godoro","mazishi","f","2","html-keyboard-response","190","v","napulo","false","",""
"2506.4000000059605","","","","","2","html-slider-response","191","","","","2",""
"2720","hill","matumbo,kushoto,kukimba,sweta","matumbo","f","2","html-keyboard-response","192","n","sweta","false","",""
"1212.2000000029802","","","","","2","html-slider-response","193","","","","2",""
"3285","tooth","kijiko,kabalaka,uadui,pahiyum","kabalaka","v","2","html-keyboard-response","194","j","uadui","false","",""
"1305.6000000089407","","","","","2","html-slider-response","195","","","","2",""
"7474","woman","bandari,bituin,kovuli,pagtabon","pagtabon","n","2","html-keyboard-response","196","n","pagtabon","true","",""
"1578.5999999940395","","","","","2","html-slider-response","197","","","","4",""
"3509","wheel","bafuni,punda,tawo,baadaye","bafuni","f","2","html-keyboard-response","198","j","tawo","false","",""
"1492.5","","","","","2","html-slider-response","199","","","","2",""
"2398","mother","kahawa,mbuzi,jokofu,babaye","babaye","n","2","html-keyboard-response","200","n","babaye","true","",""
"1358.3999999910593","","","","","2","html-slider-response","201","","","","5",""
"3697","bed","mapintas,kalipay,haraka,starehe","mapintas","f","2","html-keyboard-response","202","j","haraka","false","",""
"1599","","","","","2","html-slider-response","203","","","","2",""
"4542","key","miaka,goma,ahos,chombo","chombo","n","2","html-keyboard-response","204","v","goma","false","",""
"1487.5","","","","","2","html-slider-response","205","","","","2",""
"4746","page","wakala,wimbo,ishiri,skina","wimbo","v","2","html-keyboard-response","206","v","wimbo","true","",""
"1405.4000000059605","","","","","2","html-slider-response","207","","","","2",""
"4162","pants","pintal,chuki,haki,hari","haki","j","2","html-keyboard-response","208","j","haki","true","",""
"1448.4000000059605","","","","","2","html-slider-response","209","","","","2",""
"3809","sun","bendi,luha,uongo,basi","basi","n","2","html-keyboard-response","210","n","basi","true","",""
"2331.1000000089407","","","","","2","html-slider-response","211","","","","2",""
"2554","finger","moyo,simu,sufuria,lima","moyo","f","2","html-keyboard-response","212","j","sufuria","false","",""
"1316.7000000029802","","","","","2","html-slider-response","213","","","","2",""
"2576","shoe","nyeusi,hatua,kama,uyoga","uyoga","n","2","html-keyboard-response","214","n","uyoga","true","",""
"1555","","","","","2","html-slider-response","215","","","","2",""
"2990","giraffe","daraja,jumatu,hangyo,mahitabo","mahitabo","n","2","html-keyboard-response","216","n","mahitabo","true","",""
"2803.2999999970198","","","","","2","html-slider-response","217","","","","2",""
"4269","dog","lubi,washia,kalamu,bahari","bahari","n","2","html-keyboard-response","218","f","lubi","false","",""
"1545.4000000059605","","","","","2","html-slider-response","219","","","","2",""
"8940","box","kuacha,rafiki,adui,kitande","adui","j","2","html-keyboard-response","220","n","kitande","false","",""
"1535.4000000059605","","","","","2","html-slider-response","221","","","","2",""
"4649","scissors","duga,mtawa,tanuri,suga","tanuri","j","2","html-keyboard-response","222","f","duga","false","",""
"1419.7999999970198","","","","","2","html-slider-response","223","","","","2",""
"2953","cat","neyemba,baki,akili,paghukom","paghukom","n","2","html-keyboard-response","224","j","akili","false","",""
"2136.5999999940395","","","","","2","html-slider-response","225","","","","2",""
"3584","basket","kumbuka,utepe,hasira,kumba","kumba","n","2","html-keyboard-response","226","f","kumbuka","false","",""
"1779.5999999940395","","","","","2","html-slider-response","227","","","","2",""
"5667","snake","jansa,karon,mvringo,pagtukod","pagtukod","n","2","html-keyboard-response","228","f","jansa","false","",""
"2088","","","","","2","html-slider-response","229","","","","2",""
"3975","gift","baba,nyange,baso,pagtawag","pagtawag","n","2","html-keyboard-response","230","j","baso","false","",""
"1731.2999999970198","","","","","2","html-slider-response","231","","","","2",""
"4225","train","itik,dakika,sayari,mungu","sayari","j","2","html-keyboard-response","232","v","dakika","false","",""
"1377.9000000059605","","","","","2","html-slider-response","233","","","","2",""
"3833","pudding","abug,mpishi,iring,aibu","aibu","n","2","html-keyboard-response","234","v","mpishi","false","",""
"1653.300000011921","","","","","2","html-slider-response","235","","","","2",""
"26006","tomato","chupi,mvua,chupa,takatak","mvua","v","2","html-keyboard-response","236","n","takatak","false","",""
"2082.7999999970198","","","","","2","html-slider-response","237","","","","2",""
"2771","stone","wingi,ulimwengu,mkasi,asili","wingi","f","2","html-keyboard-response","238","n","asili","false","",""
"1223.7999999970198","","","","","2","html-slider-response","239","","","","2",""
"3677","hammer","mekno,kitovu,layag,napakyas","napakyas","n","2","html-keyboard-response","240","j","layag","false","",""
"1801.2000000029802","","","","","2","html-slider-response","241","","","","2",""
"3735","knee","mvuke,kubale,duka,bili","duka","j","2","html-keyboard-response","242","v","kubale","false","",""
"1425.1000000089407","","","","","2","html-slider-response","243","","","","4",""
"3197","ceiling","maua,kugita,kawaida,rayna","maua","f","2","html-keyboard-response","244","f","maua","true","",""
"1347.2999999970198","","","","","2","html-slider-response","245","","","","2",""
"3442","spoon","betri,nzuri,pagsulod,ngazi","pagsulod","j","2","html-keyboard-response","246","n","ngazi","false","",""
"1542.5","","","","","2","html-slider-response","247","","","","2",""
"7826","marker","mapafu,salita,maji,atay","maji","j","2","html-keyboard-response","248","j","maji","true","",""
"1637.1000000089407","","","","","2","html-slider-response","249","","","","2",""
"2395","candle","gabi,farasi,kupanda,geza","geza","n","2","html-keyboard-response","250","n","geza","true","",""
"1402","","","","","2","html-slider-response","251","","","","2",""
"4460","tissue","lamigas,kisiwa,katika,ugomvi","ugomvi","n","2","html-keyboard-response","252","f","lamigas","false","",""
"1993.300000011921","","","","","2","html-slider-response","253","","","","2",""
"11843","bridge","daima,sahani,ngono,panya","sahani","v","2","html-keyboard-response","254","f","daima","false","",""
"2271.5","","","","","2","html-slider-response","255","","","","2",""
"15164","berry","kofia,abogado,nogozi,kinywa","kofia","f","2","html-keyboard-response","256","v","abogado","false","",""
"1606.3999999910593","","","","","2","html-slider-response","257","","","","2",""
"10477","triangle","kasadpan,kihozi,bentaha,liog","kasadpan","f","2","html-keyboard-response","258","n","liog","false","",""
"2240.800000011921","","","","","2","html-slider-response","259","","","","2",""
"6460","door","tena,surali,soko,nyota","surali","v","2","html-keyboard-response","260","j","soko","false","",""
"1555","","","","","2","html-slider-response","261","","","","2",""
"4339","fish","bala,buli,baho,imani","buli","v","2","html-keyboard-response","262","f","bala","false","",""
"1685.5","","","","","2","html-slider-response","263","","","","4",""
"2905","curtain","lisud,bulwawan,mchanga,chubani","mchanga","j","2","html-keyboard-response","264","n","chubani","false","",""
"1560","","","","","2","html-slider-response","265","","","","2",""
"3791","flag","ndege,mkate,kawa,trekta","trekta","n","2","html-keyboard-response","266","j","kawa","false","",""
"1487.2000000029802","","","","","2","html-slider-response","267","","","","2",""
"3024","boat","hamsi,agalon,pombe,kitanda","agalon","v","2","html-keyboard-response","268","v","agalon","true","",""
"2345.7000000029802","","","","","2","html-slider-response","269","","","","2",""
"3221","rose","paghalad,singizi,mwanake,amani","paghalad","f","2","html-keyboard-response","270","n","amani","false","",""
"1845.9000000059605","","","","","2","html-slider-response","271","","","","4",""
"3691","lamp","daub,bilaska,mbolea,afya","afya","n","2","html-keyboard-response","272","n","afya","true","",""
"1176.6000000089407","","","","","2","html-slider-response","273","","","","2",""
"2328","cigar","ndugu,kuta,mlango,adhabu","adhabu","n","2","html-keyboard-response","274","v","kuta","false","",""
"1858.5","","","","","2","html-slider-response","275","","","","2",""
"2266","list","wingu,alizeti,kuzama,kaso","wingu","f","2","html-keyboard-response","276","v","alizeti","false","",""
"1622.3999999910593","","","","","2","html-slider-response","277","","","","2",""
"3806","sheet","juuya,watu,kamantis,bililhon","bililhon","n","2","html-keyboard-response","278","f","juuya","false","",""
"1174.1000000089407","","","","","2","html-slider-response","279","","","","2",""
"2857","picture","silya,chaki,kubwa,asin","kubwa","j","2","html-keyboard-response","280","n","asin","false","",""
"1957.5","","","","","2","html-slider-response","281","","","","2",""
"3703","towel","tembo,funzi,pagpalit,pito","pagpalit","j","2","html-keyboard-response","282","f","tembo","false","",""
"1428.4000000059605","","","","","2","html-slider-response","283","","","","5",""
"3658","window","nanga,kujenga,umaga,kweli","kweli","n","2","html-keyboard-response","284","j","umaga","false","",""
"1851.300000011921","","","","","2","html-slider-response","285","","","","2",""
"3001","box","kuacha,rafiki,adui,kitande","adui","j","3","html-keyboard-response","293","j","adui","true","","4"
"1376.7000000029802","","","","","3","html-slider-response","294","","","","2",""
"2562","","","","","3","html-keyboard-response","295","","","","",""
"3101","pants","pintal,haki,chuki,hari","haki","v","3","html-keyboard-response","296","v","haki","true","","4"
"1389.7999999970198","","","","","3","html-slider-response","297","","","","2",""
"1572","","","","","3","html-keyboard-response","298","","","","",""
"3707","cup","dagat,matumai,shimoni,jeraha","matumai","v","3","html-keyboard-response","299","f","dagat","false","","4"
"1355.300000011921","","","","","3","html-slider-response","300","","","","2",""
"1233","","","","","3","html-keyboard-response","301","","","","",""
"2436","triangle","kasadpan,kihozi,bentaha,liog","kasadpan","f","3","html-keyboard-response","302","n","liog","false","","4"
"1432.2000000029802","","","","","3","html-slider-response","303","","","","2",""
"629","","","","","3","html-keyboard-response","304","","","","",""
"2465","curtain","lisud,mchanga,bulwawan,chubani","mchanga","v","3","html-keyboard-response","305","f","lisud","false","","4"
"1159.2000000029802","","","","","3","html-slider-response","306","","","","2",""
"996","","","","","3","html-keyboard-response","307","","","","",""
"2853","clock","kartasi,abang,osha,mbwa","mbwa","n","3","html-keyboard-response","308","n","mbwa","true","","4"
"1394.2999999970198","","","","","3","html-slider-response","309","","","","5",""
"792","","","","","3","html-keyboard-response","310","","","","",""
"3567","mirror","rangi,kanding,sulagma,furaha","sulagma","j","3","html-keyboard-response","311","n","furaha","false","","4"
"1335.2000000029802","","","","","3","html-slider-response","312","","","","2",""
"820","","","","","3","html-keyboard-response","313","","","","",""
"2031","coffin","kioo,barua,tubag,hulma","kioo","f","3","html-keyboard-response","314","f","kioo","true","","1"
"1793.800000011921","","","","","3","html-slider-response","315","","","","5",""
"578","","","","","3","html-keyboard-response","316","","","","",""
"3816","magazine","gundi,kiti,mchawi,bahandi","kiti","v","3","html-keyboard-response","317","v","kiti","true","","4"
"1284.2000000029802","","","","","3","html-slider-response","318","","","","4",""
"731","","","","","3","html-keyboard-response","319","","","","",""
"1939","column","pundok,dila,ufagio,pala","ufagio","j","3","html-keyboard-response","320","j","ufagio","true","","1"
"1132.800000011921","","","","","3","html-slider-response","321","","","","5",""
"712","","","","","3","html-keyboard-response","322","","","","",""
"3784","number","shule,mundamo,kengele,choori","mundamo","v","3","html-keyboard-response","323","v","mundamo","true","","4"
"1365.2999999970198","","","","","3","html-slider-response","324","","","","2",""
"867","","","","","3","html-keyboard-response","325","","","","",""
"3910","rose","singizi,paghalad,mwanake,amani","paghalad","v","3","html-keyboard-response","326","f","singizi","false","","4"
"1485.7000000029802","","","","","3","html-slider-response","327","","","","2",""
"948","","","","","3","html-keyboard-response","328","","","","",""
"2544","eel","msumari,ishara,kunywa,kabuang","msumari","f","3","html-keyboard-response","329","j","kunywa","false","","4"
"1677.5999999940395","","","","","3","html-slider-response","330","","","","2",""
"338","","","","","3","html-keyboard-response","331","","","","",""
"3598","gift","baba,nyange,pagtawag,baso","pagtawag","j","3","html-keyboard-response","332","f","baba","false","","4"
"1230.2000000029802","","","","","3","html-slider-response","333","","","","4",""
"350","","","","","3","html-keyboard-response","334","","","","",""
"1954","apple","kisu,ukame,estante,edad","kisu","f","3","html-keyboard-response","335","f","kisu","true","","1"
"2065.5","","","","","3","html-slider-response","336","","","","5",""
"602","","","","","3","html-keyboard-response","337","","","","",""
"1535","wheel","punda,bafuni,tawo,baadaye","bafuni","v","3","html-keyboard-response","338","v","bafuni","true","","1"
"1263.0999999940395","","","","","3","html-slider-response","339","","","","5",""
"364","","","","","3","html-keyboard-response","340","","","","",""
"3024","knee","duka,mvuke,kubale,bili","duka","f","3","html-keyboard-response","341","v","mvuke","false","","4"
"1467.2999999970198","","","","","3","html-slider-response","342","","","","4",""
"315","","","","","3","html-keyboard-response","343","","","","",""
"2264","basket","kumbuka,utepe,hasira,kumba","kumba","n","3","html-keyboard-response","344","n","kumba","true","","1"
"2218.4000000059605","","","","","3","html-slider-response","345","","","","5",""
"340","","","","","3","html-keyboard-response","346","","","","",""
"3723","park","tambok,bunifu,pwani,ihalas","bunifu","v","3","html-keyboard-response","347","j","pwani","false","","4"
"1356.1000000089407","","","","","3","html-slider-response","348","","","","4",""
"379","","","","","3","html-keyboard-response","349","","","","",""
"3552","finger","simu,sufuria,moyo,lima","moyo","j","3","html-keyboard-response","350","n","lima","false","","4"
"1434.2000000029802","","","","","3","html-slider-response","351","","","","4",""
"970","","","","","3","html-keyboard-response","352","","","","",""
"3753","boat","hamsi,pombe,kitanda,agalon","agalon","n","3","html-keyboard-response","353","v","pombe","false","","4"
"1062.2999999970198","","","","","3","html-slider-response","354","","","","4",""
"363","","","","","3","html-keyboard-response","355","","","","",""
"3568","hill","kushoto,kukimba,sweta,matumbo","matumbo","n","3","html-keyboard-response","356","f","kushoto","false","","4"
"1621.7999999970198","","","","","3","html-slider-response","357","","","","4",""
"440","","","","","3","html-keyboard-response","358","","","","",""
"1768","train","itik,dakika,sayari,mungu","sayari","j","3","html-keyboard-response","359","f","itik","false","","4"
"1265.5","","","","","3","html-slider-response","360","","","","4",""
"687","","","","","3","html-keyboard-response","361","","","","",""
"1458","wolf","kaburi,lugha,ndizi,mchuzi","lugha","v","3","html-keyboard-response","362","f","kaburi","false","","4"
"1210.3999999910593","","","","","3","html-slider-response","363","","","","2",""
"354","","","","","3","html-keyboard-response","364","","","","",""
"4513","snake","pagtukod,jansa,karon,mvringo","pagtukod","f","3","html-keyboard-response","365","n","mvringo","false","","4"
"2423.7999999970198","","","","","3","html-slider-response","366","","","","2",""
"382","","","","","3","html-keyboard-response","367","","","","",""
"3491","tooth","kabalaka,kijiko,uadui,pahiyum","kabalaka","f","3","html-keyboard-response","368","n","pahiyum","false","","4"
"1474.5","","","","","3","html-slider-response","369","","","","2",""
"1129","","","","","3","html-keyboard-response","370","","","","",""
"2699","notebook","kemia,msitu,kila,mdudu","kemia","f","3","html-keyboard-response","371","j","kila","false","","4"
"1384","","","","","3","html-slider-response","372","","","","2",""
"569","","","","","3","html-keyboard-response","373","","","","",""
"4327","flag","trekta,ndege,mkate,kawa","trekta","f","3","html-keyboard-response","374","j","mkate","false","","4"
"1471.2000000029802","","","","","3","html-slider-response","375","","","","2",""
"761","","","","","3","html-keyboard-response","376","","","","",""
"1628","squirrel","mahugaw,hofu,ukweli,kichwa","hofu","v","3","html-keyboard-response","377","f","mahugaw","false","","4"
"1386.2000000029802","","","","","3","html-slider-response","378","","","","2",""
"785","","","","","3","html-keyboard-response","379","","","","",""
"2544","door","tena,soko,surali,nyota","surali","j","3","html-keyboard-response","380","n","nyota","false","","4"
"1411.5","","","","","3","html-slider-response","381","","","","2",""
"743","","","","","3","html-keyboard-response","382","","","","",""
"3644","salmon","mzungu,seri,sensilyo,baharia","sensilyo","j","3","html-keyboard-response","383","j","sensilyo","true","","4"
"1534.1000000089407","","","","","3","html-slider-response","384","","","","5",""
"931","","","","","3","html-keyboard-response","385","","","","",""
"2946","shoulder","mkuu,kelele,ndaniya,guruwe","mkuu","f","3","html-keyboard-response","386","f","mkuu","true","","4"
"1204","","","","","3","html-slider-response","387","","","","5",""
"393","","","","","3","html-keyboard-response","388","","","","",""
"1891","lamp","daub,afya,bilaska,mbolea","afya","v","3","html-keyboard-response","389","f","daub","false","","4"
"1502.800000011921","","","","","3","html-slider-response","390","","","","2",""
"419","","","","","3","html-keyboard-response","391","","","","",""
"1799","shelf","bungtod,pamahaw,kadaot,awit","pamahaw","v","3","html-keyboard-response","392","v","pamahaw","true","","1"
"1241.7999999970198","","","","","3","html-slider-response","393","","","","5",""
"323","","","","","3","html-keyboard-response","394","","","","",""
"3070","human","tinapay,bado,kikapu,punguza","tinapay","f","3","html-keyboard-response","395","f","tinapay","true","","4"
"1746.1000000089407","","","","","3","html-slider-response","396","","","","5",""
"362","","","","","3","html-keyboard-response","397","","","","",""
"2590","towel","tembo,pagpalit,funzi,pito","pagpalit","v","3","html-keyboard-response","398","f","tembo","false","","4"
"1524.699999988079","","","","","3","html-slider-response","399","","","","2",""
"397","","","","","3","html-keyboard-response","400","","","","",""
"3226","cat","paghukom,neyemba,baki,akili","paghukom","f","3","html-keyboard-response","401","n","akili","false","","4"
"1146.8999999910593","","","","","3","html-slider-response","402","","","","2",""
"899","","","","","3","html-keyboard-response","403","","","","",""
"4311","spider","bunyag,kamwe,mkboa,atop","kamwe","v","3","html-keyboard-response","404","v","kamwe","true","","4"
"2224.3999999910593","","","","","3","html-slider-response","405","","","","2",""
"1078","","","","","3","html-keyboard-response","406","","","","",""
"2544","window","nanga,kujenga,kweli,umaga","kweli","j","3","html-keyboard-response","407","f","nanga","false","","4"
"1366.5999999940395","","","","","3","html-slider-response","408","","","","2",""
"338","","","","","3","html-keyboard-response","409","","","","",""
"1675","woman","bandari,bituin,kovuli,pagtabon","pagtabon","n","3","html-keyboard-response","410","n","pagtabon","true","","1"
"1269.800000011921","","","","","3","html-slider-response","411","","","","5",""
"466","","","","","3","html-keyboard-response","412","","","","",""
"2869","giraffe","daraja,jumatu,hangyo,mahitabo","mahitabo","n","3","html-keyboard-response","413","v","jumatu","false","","4"
"1525","","","","","3","html-slider-response","414","","","","2",""
"1483","","","","","3","html-keyboard-response","415","","","","",""
"6267","elephant","petye,pagduol,kito,suka","kito","j","3","html-keyboard-response","416","v","pagduol","false","","4"
"2187.1000000089407","","","","","3","html-slider-response","417","","","","2",""
"851","","","","","3","html-keyboard-response","418","","","","",""
"6344","cave","kesho,ganti,maisha,nyundo","kesho","f","3","html-keyboard-response","419","j","maisha","false","","4"
"1717.2999999970198","","","","","3","html-slider-response","420","","","","2",""
"530","","","","","3","html-keyboard-response","421","","","","",""
"1302","bread","kaili,dizeli,bugas,dari","dari","n","3","html-keyboard-response","422","v","dizeli","false","","4"
"1253.0999999940395","","","","","3","html-slider-response","423","","","","2",""
"700","","","","","3","html-keyboard-response","424","","","","",""
"2279","stone","wingi,ulimwengu,mkasi,asili","wingi","f","3","html-keyboard-response","425","f","wingi","true","","4"
"1332.2999999970198","","","","","3","html-slider-response","426","","","","2",""
"435","","","","","3","html-keyboard-response","427","","","","",""
"2017","donkey","bloke,lalake,rombus,elfu","elfu","n","3","html-keyboard-response","428","v","lalake","false","","4"
"1382.699999988079","","","","","3","html-slider-response","429","","","","2",""
"415","","","","","3","html-keyboard-response","430","","","","",""
"2016","bridge","daima,sahani,ngono,panya","sahani","v","3","html-keyboard-response","431","n","panya","false","","4"
"1254.6000000089407","","","","","3","html-slider-response","432","","","","2",""
"404","","","","","3","html-keyboard-response","433","","","","",""
"1814","bonfire","goti,mwezi,mfuko,kusanya","goti","f","3","html-keyboard-response","434","f","goti","true","","4"
"2371","","","","","3","html-slider-response","435","","","","2",""
"575","","","","","3","html-keyboard-response","436","","","","",""
"1147","book","mali,kuhesa,picha,mara","mali","f","3","html-keyboard-response","437","f","mali","true","","4"
"1333.9000000059605","","","","","3","html-slider-response","438","","","","2",""
"821","","","","","3","html-keyboard-response","439","","","","",""
"619","fish","bala,baho,buli,imani","buli","j","3","html-keyboard-response","440","v","baho","false","","4"
"1135.2000000029802","","","","","3","html-slider-response","441","","","","2",""
"632","","","","","3","html-keyboard-response","442","","","","",""
"1489","spoon","betri,nzuri,ngazi,pagsulod","pagsulod","n","3","html-keyboard-response","443","j","ngazi","false","","4"
"2105.2999999970198","","","","","3","html-slider-response","444","","","","2",""
"422","","","","","3","html-keyboard-response","445","","","","",""
"2669","scissors","duga,mtawa,tanuri,suga","tanuri","j","3","html-keyboard-response","446","n","suga","false","","4"
"1607.1000000089407","","","","","3","html-slider-response","447","","","","4",""
"422","","","","","3","html-keyboard-response","448","","","","",""
"1302","page","wimbo,wakala,ishiri,skina","wimbo","f","3","html-keyboard-response","449","v","wakala","false","","4"
"1517.1000000089407","","","","","3","html-slider-response","450","","","","2",""
"312","","","","","3","html-keyboard-response","451","","","","",""
"1427","nose","sehemu,gubat,kopa,kidole","sehemu","f","3","html-keyboard-response","452","f","sehemu","true","","1"
"1947.2000000029802","","","","","3","html-slider-response","453","","","","5",""
"316","","","","","3","html-keyboard-response","454","","","","",""
"2356","ceiling","maua,kugita,kawaida,rayna","maua","f","3","html-keyboard-response","455","j","kawaida","false","","4"
"1176.4000000059605","","","","","3","html-slider-response","456","","","","2",""
"373","","","","","3","html-keyboard-response","457","","","","",""
"3087","bucket","baga,ijayo,kiatu,init","kiatu","j","3","html-keyboard-response","458","f","baga","false","","4"
"1087.9000000059605","","","","","3","html-slider-response","459","","","","2",""
"540","","","","","3","html-keyboard-response","460","","","","",""
"1380","berry","kofia,abogado,nogozi,kinywa","kofia","f","3","html-keyboard-response","461","f","kofia","true","","1"
"1828.9000000059605","","","","","3","html-slider-response","462","","","","5",""
"246","","","","","3","html-keyboard-response","463","","","","",""
"822","mother","babaye,kahawa,mbuzi,jokofu","babaye","f","3","html-keyboard-response","464","f","babaye","true","","1"
"1838.2999999970198","","","","","3","html-slider-response","465","","","","5",""
"641","","","","","3","html-keyboard-response","466","","","","",""
"2885","mosquito","isda,taras,martilyo,gutom","martilyo","j","3","html-keyboard-response","467","j","martilyo","true","","4"
"1513.2999999970198","","","","","3","html-slider-response","468","","","","5",""
"269","","","","","3","html-keyboard-response","469","","","","",""
"3677","perfume","bino,sungura,katuyoan,ndogo","katuyoan","j","3","html-keyboard-response","470","v","sungura","false","","4"
"1416.9000000059605","","","","","3","html-slider-response","471","","","","4",""
"396","","","","","3","html-keyboard-response","472","","","","",""
"2373","sheet","bililhon,juuya,watu,kamantis","bililhon","f","3","html-keyboard-response","473","f","bililhon","true","","4"
"1208.5","","","","","3","html-slider-response","474","","","","2",""
"373","","","","","3","html-keyboard-response","475","","","","",""
"853","puppet","mazishi,napulo,lamok,godoro","mazishi","f","3","html-keyboard-response","476","f","mazishi","true","","1"
"2291.7999999970198","","","","","3","html-slider-response","477","","","","5",""
"670","","","","","3","html-keyboard-response","478","","","","",""
"4141","poster","nchi,fedha,kasuko,madungog","madungog","n","3","html-keyboard-response","479","n","madungog","true","","4"
"1301.0999999940395","","","","","3","html-slider-response","480","","","","2",""
"543","","","","","3","html-keyboard-response","481","","","","",""
"1954","music","mraba,mageho,tumbo,baiski","baiski","n","3","html-keyboard-response","482","f","mraba","false","","4"
"1371","","","","","3","html-slider-response","483","","","","4",""
"365","","","","","3","html-keyboard-response","484","","","","",""
"4188","key","miaka,chombo,goma,ahos","chombo","v","3","html-keyboard-response","485","f","miaka","false","","4"
"1104.7000000029802","","","","","3","html-slider-response","486","","","","4",""
"662","","","","","3","html-keyboard-response","487","","","","",""
"2699","sock","ndoora,kimysa,mamba,mtirka","mamba","j","3","html-keyboard-response","488","j","mamba","true","","4"
"1679.0999999940395","","","","","3","html-slider-response","489","","","","5",""
"383","","","","","3","html-keyboard-response","490","","","","",""
"3503","marker","mapafu,salita,atay,maji","maji","n","3","html-keyboard-response","491","f","mapafu","false","","4"
"1483.9000000059605","","","","","3","html-slider-response","492","","","","2",""
"578","","","","","3","html-keyboard-response","493","","","","",""
"3025","office","hazini,yatima,leso,kuna","leso","j","3","html-keyboard-response","494","j","leso","true","","4"
"1346.9000000059605","","","","","3","html-slider-response","495","","","","5",""
"264","","","","","3","html-keyboard-response","496","","","","",""
"2264","shoe","nyeusi,hatua,kama,uyoga","uyoga","n","3","html-keyboard-response","497","j","kama","false","","4"
"1172.199999988079","","","","","3","html-slider-response","498","","","","2",""
"268","","","","","3","html-keyboard-response","499","","","","",""
"2481","cop","bustani,jikoni,mechezo,bakus","mechezo","j","3","html-keyboard-response","500","j","mechezo","true","","4"
"1204.2999999970198","","","","","3","html-slider-response","501","","","","5",""
"361","","","","","3","html-keyboard-response","502","","","","",""
"3815","bank","kudhibi,silingan,tualya,ofisi","silingan","v","3","html-keyboard-response","503","n","ofisi","false","","4"
"1431.2000000029802","","","","","3","html-slider-response","504","","","","2",""
"320","","","","","3","html-keyboard-response","505","","","","",""
"1101","letter","kifua,filimbi,chuma,uhuru","kifua","f","3","html-keyboard-response","506","f","kifua","true","","1"
"1374.7000000029802","","","","","3","html-slider-response","507","","","","5",""
"408","","","","","3","html-keyboard-response","508","","","","",""
"1706","dog","lubi,washia,kalamu,bahari","bahari","n","3","html-keyboard-response","509","n","bahari","true","","1"
"1182","","","","","3","html-slider-response","510","","","","5",""
"445","","","","","3","html-keyboard-response","511","","","","",""
"2684","shop","samaki,nopya,kerida,ndezu","samaki","f","3","html-keyboard-response","512","v","nopya","false","","4"
"1857.2999999970198","","","","","3","html-slider-response","513","","","","2",""
"359","","","","","3","html-keyboard-response","514","","","","",""
"1442","flower","tamasha,bega,lobo,usiku","bega","v","3","html-keyboard-response","515","f","tamasha","false","","4"
"1786.2000000029802","","","","","3","html-slider-response","516","","","","2",""
"369","","","","","3","html-keyboard-response","517","","","","",""
"1519","cigar","ndugu,kuta,adhabu,mlango","adhabu","j","3","html-keyboard-response","518","j","adhabu","true","","1"
"1396.7999999970198","","","","","3","html-slider-response","519","","","","5",""
"308","","","","","3","html-keyboard-response","520","","","","",""
"2559","hammer","mekno,napakyas,kitovu,layag","napakyas","v","3","html-keyboard-response","521","n","layag","false","","4"
"1523.7000000029802","","","","","3","html-slider-response","522","","","","2",""
"488","","","","","3","html-keyboard-response","523","","","","",""
"3675","fork","baboy,paghago,gorisi,mgonjwa","mgonjwa","n","3","html-keyboard-response","524","f","baboy","false","","4"
"1651.2000000029802","","","","","3","html-slider-response","525","","","","2",""
"471","","","","","3","html-keyboard-response","526","","","","",""
"1504","sun","bendi,luha,basi,uongo","basi","j","3","html-keyboard-response","527","j","basi","true","","1"
"1367.8999999910593","","","","","3","html-slider-response","528","","","","5",""
"353","","","","","3","html-keyboard-response","529","","","","",""
"4792","ladder","mashua,pangalan,mwanga,kamba","pangalan","v","3","html-keyboard-response","530","v","pangalan","true","","4"
"1554","","","","","3","html-slider-response","531","","","","5",""
"306","","","","","3","html-keyboard-response","532","","","","",""
"1411","banana","kasamok,hagdan,twai,kazi","kazi","n","3","html-keyboard-response","533","n","kazi","true","","1"
"1847.199999988079","","","","","3","html-slider-response","534","","","","5",""
"509","","","","","3","html-keyboard-response","535","","","","",""
"2621","pudding","abug,aibu,mpishi,iring","aibu","v","3","html-keyboard-response","536","f","abug","false","","4"
"1347.4000000059605","","","","","3","html-slider-response","537","","","","2",""
"622","","","","","3","html-keyboard-response","538","","","","",""
"4606","body","nyundu,jibini,tindashan,kununa","tindashan","j","3","html-keyboard-response","539","j","tindashan","true","","4"
"1795.5","","","","","3","html-slider-response","540","","","","5",""
"375","","","","","3","html-keyboard-response","541","","","","",""
"2900","bed","kalipay,mapintas,haraka,starehe","mapintas","v","3","html-keyboard-response","542","v","mapintas","true","","4"
"1320.3999999910593","","","","","3","html-slider-response","543","","","","2",""
"1207","","","","","3","html-keyboard-response","544","","","","",""
"1953","tissue","ugomvi,lamigas,kisiwa,katika","ugomvi","f","3","html-keyboard-response","545","v","lamigas","false","","4"
"1233.3999999910593","","","","","3","html-slider-response","546","","","","2",""
"348","","","","","3","html-keyboard-response","547","","","","",""
"1970","candle","gabi,geza,farasi,kupanda","geza","v","3","html-keyboard-response","548","f","gabi","false","","4"
"1392.5999999940395","","","","","3","html-slider-response","549","","","","2",""
"324","","","","","3","html-keyboard-response","550","","","","",""
"1597","tomato","chupi,chupa,mvua,takatak","mvua","j","3","html-keyboard-response","551","j","mvua","true","","1"
"1668.199999988079","","","","","3","html-slider-response","552","","","","5",""
"424","","","","","3","html-keyboard-response","553","","","","",""
"2497","list","wingu,alizeti,kuzama,kaso","wingu","f","3","html-keyboard-response","554","v","alizeti","false","","4"
"1444.6000000089407","","","","","3","html-slider-response","555","","","","2",""
"586","","","","","3","html-keyboard-response","556","","","","",""
"14256","olive","bata,siagi,jiwe,welder","jiwe","j","3","html-keyboard-response","557","j","jiwe","true","","4"
"1573.5999999940395","","","","","3","html-slider-response","558","","","","5",""
"581","","","","","3","html-keyboard-response","559","","","","",""
"1443","picture","kubwa,silya,chaki,asin","kubwa","f","3","html-keyboard-response","560","f","kubwa","true","","1"
"1508.8999999910593","","","","","3","html-slider-response","561","","","","5",""
"289","","","","","3","html-keyboard-response","562","","","","",""
"3265","page","wakala,wimbo,ishiri,skina","wimbo","v","4","html-keyboard-response","888","v","wimbo","true","",""
"1486.2000000029802","","","","","4","html-slider-response","889","","","","2",""
"2608","sheet","juuya,watu,bililhon,kamantis","bililhon","j","4","html-keyboard-response","890","j","bililhon","true","",""
"1502.9000000059605","","","","","4","html-slider-response","891","","","","2",""
"2778","ladder","mashua,mwanga,pangalan,kamba","pangalan","j","4","html-keyboard-response","892","v","mwanga","false","",""
"1513.7999999970198","","","","","4","html-slider-response","893","","","","5",""
"1695","door","tena,soko,surali,nyota","surali","j","4","html-keyboard-response","894","v","soko","false","",""
"1791.5","","","","","4","html-slider-response","895","","","","2",""
"2379","spider","bunyag,mkboa,atop,kamwe","kamwe","n","4","html-keyboard-response","896","n","kamwe","true","",""
"1334.7000000029802","","","","","4","html-slider-response","897","","","","2",""
"2353","picture","kubwa,silya,chaki,asin","kubwa","f","4","html-keyboard-response","898","f","kubwa","true","",""
"1273.2999999970198","","","","","4","html-slider-response","899","","","","2",""
"3564","boat","hamsi,agalon,pombe,kitanda","agalon","v","4","html-keyboard-response","900","n","kitanda","false","",""
"1102.4000000059605","","","","","4","html-slider-response","901","","","","4",""
"2744","donkey","bloke,lalake,rombus,elfu","elfu","n","4","html-keyboard-response","902","v","lalake","false","",""
"1334.2999999970198","","","","","4","html-slider-response","903","","","","2",""
"2698","book","kuhesa,mali,picha,mara","mali","v","4","html-keyboard-response","904","j","picha","false","",""
"1224.7999999970198","","","","","4","html-slider-response","905","","","","2",""
"3086","cup","matumai,dagat,shimoni,jeraha","matumai","f","4","html-keyboard-response","906","f","matumai","true","",""
"2022.6000000089407","","","","","4","html-slider-response","907","","","","2",""
"3777","sun","bendi,basi,luha,uongo","basi","v","4","html-keyboard-response","908","v","basi","true","",""
"1468.9000000059605","","","","","4","html-slider-response","909","","","","4",""
"1569","pudding","abug,mpishi,iring,aibu","aibu","n","4","html-keyboard-response","910","v","mpishi","false","",""
"1246.1000000089407","","","","","4","html-slider-response","911","","","","2",""
"2506","human","bado,kikapu,tinapay,punguza","tinapay","j","4","html-keyboard-response","912","j","tinapay","true","",""
"1868","","","","","4","html-slider-response","913","","","","5",""
"3249","squirrel","hofu,mahugaw,ukweli,kichwa","hofu","f","4","html-keyboard-response","914","v","mahugaw","false","",""
"1498.2999999970198","","","","","4","html-slider-response","915","","","","4",""
"1509","park","tambok,pwani,ihalas,bunifu","bunifu","n","4","html-keyboard-response","916","f","tambok","false","",""
"1310.7999999970198","","","","","4","html-slider-response","917","","","","2",""
"2953","poster","nchi,fedha,kasuko,madungog","madungog","n","4","html-keyboard-response","918","n","madungog","true","",""
"1542.699999988079","","","","","4","html-slider-response","919","","","","5",""
"1604","wolf","lugha,kaburi,ndizi,mchuzi","lugha","f","4","html-keyboard-response","920","v","kaburi","false","",""
"1780.5999999940395","","","","","4","html-slider-response","921","","","","2",""
"5958","cat","neyemba,paghukom,baki,akili","paghukom","v","4","html-keyboard-response","922","v","paghukom","true","",""
"1424","","","","","4","html-slider-response","923","","","","5",""
"3026","fish","buli,bala,baho,imani","buli","f","4","html-keyboard-response","924","j","baho","false","",""
"1739.4000000059605","","","","","4","html-slider-response","925","","","","2",""
"4261","tooth","kijiko,kabalaka,uadui,pahiyum","kabalaka","v","4","html-keyboard-response","926","f","kijiko","false","",""
"2164.3999999910593","","","","","4","html-slider-response","927","","","","2",""
"2612","cave","ganti,maisha,nyundo,kesho","kesho","n","4","html-keyboard-response","928","n","kesho","true","",""
"1499.7999999970198","","","","","4","html-slider-response","929","","","","5",""
"1522","lamp","daub,bilaska,afya,mbolea","afya","j","4","html-keyboard-response","930","f","daub","false","",""
"1387.2999999970198","","","","","4","html-slider-response","931","","","","2",""
"2412","banana","kasamok,kazi,hagdan,twai","kazi","v","4","html-keyboard-response","932","v","kazi","true","",""
"1460.7999999970198","","","","","4","html-slider-response","933","","","","2",""
"2665","bonfire","mwezi,mfuko,kusanya,goti","goti","n","4","html-keyboard-response","934","f","mwezi","false","",""
"1829","","","","","4","html-slider-response","935","","","","2",""
"1970","cop","bustani,mechezo,jikoni,bakus","mechezo","v","4","html-keyboard-response","936","v","mechezo","true","",""
"1333","","","","","4","html-slider-response","937","","","","5",""
"3596","marker","maji,mapafu,salita,atay","maji","f","4","html-keyboard-response","938","v","mapafu","false","",""
"1138.1000000089407","","","","","4","html-slider-response","939","","","","2",""
"2396","window","kweli,nanga,kujenga,umaga","kweli","f","4","html-keyboard-response","940","j","kujenga","false","",""
"1416.7999999970198","","","","","4","html-slider-response","941","","","","2",""
"1823","body","nyundu,jibini,tindashan,kununa","tindashan","j","4","html-keyboard-response","942","v","jibini","false","",""
"1632.2000000029802","","","","","4","html-slider-response","943","","","","2",""
"3889","apple","ukame,kisu,estante,edad","kisu","v","4","html-keyboard-response","944","f","ukame","false","",""
"1610.7999999970198","","","","","4","html-slider-response","945","","","","2",""
"1629","salmon","mzungu,seri,sensilyo,baharia","sensilyo","j","4","html-keyboard-response","946","v","seri","false","",""
"2103","","","","","4","html-slider-response","947","","","","2",""
"3046","bed","kalipay,mapintas,haraka,starehe","mapintas","v","4","html-keyboard-response","948","f","kalipay","false","",""
"1660.5","","","","","4","html-slider-response","949","","","","2",""
"2015","berry","abogado,nogozi,kinywa,kofia","kofia","n","4","html-keyboard-response","950","j","kinywa","false","",""
"1983.7000000029802","","","","","4","html-slider-response","951","","","","2",""
"2529","mirror","rangi,kanding,furaha,sulagma","sulagma","n","4","html-keyboard-response","952","n","sulagma","true","",""
"1475.5999999940395","","","","","4","html-slider-response","953","","","","5",""
"1548","flag","trekta,ndege,mkate,kawa","trekta","f","4","html-keyboard-response","954","f","trekta","true","",""
"1166","","","","","4","html-slider-response","955","","","","5",""
"1330","shoulder","kelele,mkuu,ndaniya,guruwe","mkuu","v","4","html-keyboard-response","956","v","mkuu","true","",""
"1304.699999988079","","","","","4","html-slider-response","957","","","","5",""
"959","tissue","ugomvi,lamigas,kisiwa,katika","ugomvi","f","4","html-keyboard-response","958","f","ugomvi","true","",""
"1347.7999999970198","","","","","4","html-slider-response","959","","","","2",""
"1195","notebook","msitu,kila,kemia,mdudu","kemia","j","4","html-keyboard-response","960","v","kila","false","",""
"1265.2999999970198","","","","","4","html-slider-response","961","","","","2",""
"5233","snake","jansa,karon,pagtukod,mvringo","pagtukod","j","4","html-keyboard-response","962","v","karon","false","",""
"1288.7999999970198","","","","","4","html-slider-response","963","","","","2",""
"5907","finger","moyo,simu,sufuria,lima","moyo","f","4","html-keyboard-response","964","v","simu","false","",""
"1504.7999999970198","","","","","4","html-slider-response","965","","","","4",""
"2914","basket","kumbuka,utepe,kumba,hasira","kumba","j","4","html-keyboard-response","966","j","kumba","true","",""
"1270.4000000059605","","","","","4","html-slider-response","967","","","","2",""
"1211","curtain","mchanga,lisud,bulwawan,chubani","mchanga","f","4","html-keyboard-response","968","v","lisud","false","",""
"1729.8999999910593","","","","","4","html-slider-response","969","","","","2",""
"2906","perfume","bino,sungura,ndogo,katuyoan","katuyoan","n","4","html-keyboard-response","970","f","bino","false","",""
"1533.2999999970198","","","","","4","html-slider-response","971","","","","2",""
"2808","key","miaka,goma,ahos,chombo","chombo","n","4","html-keyboard-response","972","n","chombo","true","",""
"1952.2000000029802","","","","","4","html-slider-response","973","","","","2",""
"2685","olive","bata,jiwe,siagi,welder","jiwe","v","4","html-keyboard-response","974","v","jiwe","true","",""
"2181","","","","","4","html-slider-response","975","","","","5",""
"3882","rose","singizi,mwanake,paghalad,amani","paghalad","j","4","html-keyboard-response","976","j","paghalad","true","",""
"1229.2000000029802","","","","","4","html-slider-response","977","","","","4",""
"1172","bridge","daima,ngono,sahani,panya","sahani","j","4","html-keyboard-response","978","v","ngono","false","",""
"1295.5","","","","","4","html-slider-response","979","","","","2",""
"1154","hill","kushoto,kukimba,sweta,matumbo","matumbo","n","4","html-keyboard-response","980","f","kushoto","false","",""
"1931.199999988079","","","","","4","html-slider-response","981","","","","2",""
"2363","letter","filimbi,chuma,kifua,uhuru","kifua","j","4","html-keyboard-response","982","v","chuma","false","",""
"1247.0999999940395","","","","","4","html-slider-response","983","","","","2",""
"1667","sock","mamba,ndoora,kimysa,mtirka","mamba","f","4","html-keyboard-response","984","f","mamba","true","",""
"1978.5999999940395","","","","","4","html-slider-response","985","","","","5",""
"2022","fork","mgonjwa,baboy,paghago,gorisi","mgonjwa","f","4","html-keyboard-response","986","f","mgonjwa","true","",""
"1577.7000000029802","","","","","4","html-slider-response","987","","","","4",""
"964","box","adui,kuacha,rafiki,kitande","adui","f","4","html-keyboard-response","988","v","kuacha","false","",""
"1413.5","","","","","4","html-slider-response","989","","","","2",""
"1052","gift","pagtawag,baba,nyange,baso","pagtawag","f","4","html-keyboard-response","990","f","pagtawag","true","",""
"1221.5999999940395","","","","","4","html-slider-response","991","","","","4",""
"1831","bucket","kiatu,baga,ijayo,init","kiatu","f","4","html-keyboard-response","992","j","ijayo","false","",""
"2061.199999988079","","","","","4","html-slider-response","993","","","","4",""
"900","shop","nopya,kerida,samaki,ndezu","samaki","j","4","html-keyboard-response","994","v","kerida","false","",""
"1234","","","","","4","html-slider-response","995","","","","2",""
"2193","puppet","napulo,mazishi,lamok,godoro","mazishi","v","4","html-keyboard-response","996","f","napulo","false","",""
"1191.5999999940395","","","","","4","html-slider-response","997","","","","2",""
"1522","nose","gubat,kopa,kidole,sehemu","sehemu","n","4","html-keyboard-response","998","v","kopa","false","",""
"1160.9000000059605","","","","","4","html-slider-response","999","","","","2",""
"948","music","mraba,mageho,tumbo,baiski","baiski","n","4","html-keyboard-response","1000","f","mraba","false","",""
"1206.8999999910593","","","","","4","html-slider-response","1001","","","","4",""
"1056","dog","bahari,lubi,washia,kalamu","bahari","f","4","html-keyboard-response","1002","v","lubi","false","",""
"1721.800000011921","","","","","4","html-slider-response","1003","","","","2",""
"1984","eel","ishara,kunywa,kabuang,msumari","msumari","n","4","html-keyboard-response","1004","n","msumari","true","",""
"1069.7999999970198","","","","","4","html-slider-response","1005","","","","4",""
"3364","number","shule,kengele,choori,mundamo","mundamo","n","4","html-keyboard-response","1006","f","shule","false","",""
"1253.4000000059605","","","","","4","html-slider-response","1007","","","","2",""
"1087","tomato","mvua,chupi,chupa,takatak","mvua","f","4","html-keyboard-response","1008","v","chupi","false","",""
"1152.0999999940395","","","","","4","html-slider-response","1009","","","","2",""
"1436","coffin","kioo,barua,tubag,hulma","kioo","f","4","html-keyboard-response","1010","f","kioo","true","",""
"2372.800000011921","","","","","4","html-slider-response","1011","","","","5",""
"2590","knee","mvuke,kubale,duka,bili","duka","j","4","html-keyboard-response","1012","v","kubale","false","",""
"1467.9000000059605","","","","","4","html-slider-response","1013","","","","2",""
"3262","woman","pagtabon,bandari,bituin,kovuli","pagtabon","f","4","html-keyboard-response","1014","f","pagtabon","true","",""
"1492","","","","","4","html-slider-response","1015","","","","5",""
"1066","stone","wingi,ulimwengu,mkasi,asili","wingi","f","4","html-keyboard-response","1016","v","ulimwengu","false","",""
"2522","","","","","4","html-slider-response","1017","","","","2",""
"2719","bread","kaili,dizeli,dari,bugas","dari","j","4","html-keyboard-response","1018","j","dari","true","",""
"2428.7000000029802","","","","","4","html-slider-response","1019","","","","5",""
"1619","triangle","kihozi,bentaha,liog,kasadpan","kasadpan","n","4","html-keyboard-response","1020","v","bentaha","false","",""
"1419.7999999970198","","","","","4","html-slider-response","1021","","","","2",""
"2969","scissors","duga,mtawa,tanuri,suga","tanuri","j","4","html-keyboard-response","1022","v","mtawa","false","",""
"1879.199999988079","","","","","4","html-slider-response","1023","","","","2",""
"1298","giraffe","mahitabo,daraja,jumatu,hangyo","mahitabo","f","4","html-keyboard-response","1024","f","mahitabo","true","",""
"1267.7000000029802","","","","","4","html-slider-response","1025","","","","2",""
"4998","flower","tamasha,bega,lobo,usiku","bega","v","4","html-keyboard-response","1026","j","lobo","false","",""
"1251.7999999970198","","","","","4","html-slider-response","1027","","","","2",""
"3291","candle","gabi,geza,farasi,kupanda","geza","v","4","html-keyboard-response","1028","n","kupanda","false","",""
"2479.2000000029802","","","","","4","html-slider-response","1029","","","","2",""
"3538","mother","kahawa,mbuzi,jokofu,babaye","babaye","n","4","html-keyboard-response","1030","n","babaye","true","",""
"2257.5","","","","","4","html-slider-response","1031","","","","5",""
"1075","towel","tembo,funzi,pagpalit,pito","pagpalit","j","4","html-keyboard-response","1032","f","tembo","false","",""
"1202.5999999940395","","","","","4","html-slider-response","1033","","","","2",""
"1027","elephant","kito,petye,pagduol,suka","kito","f","4","html-keyboard-response","1034","v","petye","false","",""
"997","","","","","4","html-slider-response","1035","","","","2",""
"1669","shelf","bungtod,kadaot,awit,pamahaw","pamahaw","n","4","html-keyboard-response","1036","j","awit","false","",""
"1259.7000000029802","","","","","4","html-slider-response","1037","","","","2",""
"1997","mosquito","isda,taras,martilyo,gutom","martilyo","j","4","html-keyboard-response","1038","j","martilyo","true","",""
"1605.8999999910593","","","","","4","html-slider-response","1039","","","","5",""
"5498","column","pundok,dila,pala,ufagio","ufagio","n","4","html-keyboard-response","1040","n","ufagio","true","",""
"1401.8999999910593","","","","","4","html-slider-response","1041","","","","2",""
"3793","pants","haki,pintal,chuki,hari","haki","f","4","html-keyboard-response","1042","f","haki","true","",""
"1935.5","","","","","4","html-slider-response","1043","","","","2",""
"2515","list","alizeti,kuzama,wingu,kaso","wingu","j","4","html-keyboard-response","1044","v","kuzama","false","",""
"1588.9000000059605","","","","","4","html-slider-response","1045","","","","2",""
"1558","bank","kudhibi,silingan,tualya,ofisi","silingan","v","4","html-keyboard-response","1046","v","silingan","true","",""
"1724.0999999940395","","","","","4","html-slider-response","1047","","","","2",""
"2234","clock","kartasi,abang,osha,mbwa","mbwa","n","4","html-keyboard-response","1048","n","mbwa","true","",""
"1390.2000000029802","","","","","4","html-slider-response","1049","","","","5",""
"3088","ceiling","kugita,maua,kawaida,rayna","maua","v","4","html-keyboard-response","1050","f","kugita","false","",""
"1643.0999999940395","","","","","4","html-slider-response","1051","","","","2",""
"2218","train","itik,dakika,mungu,sayari","sayari","n","4","html-keyboard-response","1052","v","dakika","false","",""
"1312.2000000029802","","","","","4","html-slider-response","1053","","","","4",""
"1045","magazine","kiti,gundi,mchawi,bahandi","kiti","f","4","html-keyboard-response","1054","f","kiti","true","",""
"1745.5","","","","","4","html-slider-response","1055","","","","5",""
"1929","office","hazini,leso,yatima,kuna","leso","v","4","html-keyboard-response","1056","v","leso","true","",""
"1531.0999999940395","","","","","4","html-slider-response","1057","","","","5",""
"1321","wheel","punda,tawo,bafuni,baadaye","bafuni","j","4","html-keyboard-response","1058","f","punda","false","",""
"1154.2999999970198","","","","","4","html-slider-response","1059","","","","2",""
"1155","spoon","betri,nzuri,ngazi,pagsulod","pagsulod","n","4","html-keyboard-response","1060","v","nzuri","false","",""
"1361.4000000059605","","","","","4","html-slider-response","1061","","","","2",""
"2593","hammer","mekno,kitovu,layag,napakyas","napakyas","n","4","html-keyboard-response","1062","j","layag","false","",""
"1324","","","","","4","html-slider-response","1063","","","","2",""
"909","cigar","ndugu,adhabu,kuta,mlango","adhabu","v","4","html-keyboard-response","1064","v","adhabu","true","",""
"2709.2000000029802","","","","","4","html-slider-response","1065","","","","2",""
"1772","shoe","nyeusi,hatua,kama,uyoga","uyoga","n","4","html-keyboard-response","1066","j","kama","false","",""
"1428.4000000059605","","","","","4","html-slider-response","1067","","","","2",""
"3017","list","wingu,alizeti,kuzama,kaso","wingu","f","5","html-keyboard-response","1069","f","wingu","true","",""
"1791.4000000059605","","","","","5","html-slider-response","1070","","","","2",""
"906","number","shule,kengele,choori,mundamo","mundamo","n","5","html-keyboard-response","1071","v","kengele","false","",""
"2092.2999999970198","","","","","5","html-slider-response","1072","","","","2",""
"1350","apple","kisu,ukame,estante,edad","kisu","f","5","html-keyboard-response","1073","f","kisu","true","",""
"1380.7000000029802","","","","","5","html-slider-response","1074","","","","2",""
"3288","knee","mvuke,duka,kubale,bili","duka","v","5","html-keyboard-response","1075","n","bili","false","",""
"1805","","","","","5","html-slider-response","1076","","","","2",""
"1854","tooth","kijiko,uadui,kabalaka,pahiyum","kabalaka","j","5","html-keyboard-response","1077","f","kijiko","false","",""
"1547.5","","","","","5","html-slider-response","1078","","","","4",""
"854","berry","kofia,abogado,nogozi,kinywa","kofia","f","5","html-keyboard-response","1079","v","abogado","false","",""
"1241.5","","","","","5","html-slider-response","1080","","","","2",""
"3363","bridge","daima,sahani,ngono,panya","sahani","v","5","html-keyboard-response","1081","n","panya","false","",""
"1188.2000000029802","","","","","5","html-slider-response","1082","","","","4",""
"2548","perfume","bino,sungura,katuyoan,ndogo","katuyoan","j","5","html-keyboard-response","1083","n","ndogo","false","",""
"1179.3999999910593","","","","","5","html-slider-response","1084","","","","4",""
"1890","ladder","mashua,mwanga,kamba,pangalan","pangalan","n","5","html-keyboard-response","1085","n","pangalan","true","",""
"1489.7999999970198","","","","","5","html-slider-response","1086","","","","5",""
"1286","pants","pintal,chuki,haki,hari","haki","j","5","html-keyboard-response","1087","f","pintal","false","",""
"1511.2999999970198","","","","","5","html-slider-response","1088","","","","2",""
"2347","salmon","mzungu,seri,baharia,sensilyo","sensilyo","n","5","html-keyboard-response","1089","n","sensilyo","true","",""
"1506.3999999910593","","","","","5","html-slider-response","1090","","","","5",""
"1330","coffin","kioo,barua,tubag,hulma","kioo","f","5","html-keyboard-response","1091","f","kioo","true","",""
"1385.2000000029802","","","","","5","html-slider-response","1092","","","","5",""
"956","park","tambok,pwani,ihalas,bunifu","bunifu","n","5","html-keyboard-response","1093","v","pwani","false","",""
"2088.9000000059605","","","","","5","html-slider-response","1094","","","","2",""
"1400","giraffe","daraja,jumatu,hangyo,mahitabo","mahitabo","n","5","html-keyboard-response","1095","f","daraja","false","",""
"1147.199999988079","","","","","5","html-slider-response","1096","","","","2",""
"3413","mirror","rangi,kanding,sulagma,furaha","sulagma","j","5","html-keyboard-response","1097","f","rangi","false","",""
"1422.5","","","","","5","html-slider-response","1098","","","","2",""
"1353","ceiling","kugita,kawaida,rayna,maua","maua","n","5","html-keyboard-response","1099","v","kawaida","false","",""
"1335.2000000029802","","","","","5","html-slider-response","1100","","","","2",""
"834","marker","maji,mapafu,salita,atay","maji","f","5","html-keyboard-response","1101","f","maji","true","",""
"1071","","","","","5","html-slider-response","1102","","","","2",""
"1891","sock","ndoora,kimysa,mamba,mtirka","mamba","j","5","html-keyboard-response","1103","j","mamba","true","",""
"1329","","","","","5","html-slider-response","1104","","","","5",""
"1104","cop","bustani,mechezo,jikoni,bakus","mechezo","v","5","html-keyboard-response","1105","v","mechezo","true","",""
"2143.9000000059605","","","","","5","html-slider-response","1106","","","","5",""
"4495","gift","pagtawag,baba,nyange,baso","pagtawag","f","5","html-keyboard-response","1107","v","baba","false","",""
"2034","","","","","5","html-slider-response","1108","","","","2",""
"897","notebook","kemia,msitu,kila,mdudu","kemia","f","5","html-keyboard-response","1109","f","kemia","true","",""
"2195.6000000089407","","","","","5","html-slider-response","1110","","","","2",""
"2798","bank","silingan,kudhibi,tualya,ofisi","silingan","f","5","html-keyboard-response","1111","n","ofisi","false","",""
"1630.7999999970198","","","","","5","html-slider-response","1112","","","","4",""
"1454","letter","filimbi,kifua,chuma,uhuru","kifua","v","5","html-keyboard-response","1113","v","kifua","true","",""
"1968","","","","","5","html-slider-response","1114","","","","2",""
"5337","candle","gabi,farasi,geza,kupanda","geza","j","5","html-keyboard-response","1115","v","farasi","false","",""
"1884.5","","","","","5","html-slider-response","1116","","","","2",""
"2023","bread","kaili,dizeli,dari,bugas","dari","j","5","html-keyboard-response","1117","j","dari","true","",""
"1226.7999999970198","","","","","5","html-slider-response","1118","","","","5",""
"4308","snake","jansa,karon,mvringo,pagtukod","pagtukod","n","5","html-keyboard-response","1119","f","jansa","false","",""
"1181.5","","","","","5","html-slider-response","1120","","","","2",""
"2741","rose","paghalad,singizi,mwanake,amani","paghalad","f","5","html-keyboard-response","1121","f","paghalad","true","",""
"2002.5999999940395","","","","","5","html-slider-response","1122","","","","2",""
"1115","hill","matumbo,kushoto,kukimba,sweta","matumbo","f","5","html-keyboard-response","1123","v","kushoto","false","",""
"1137.699999988079","","","","","5","html-slider-response","1124","","","","2",""
"1312","train","sayari,itik,dakika,mungu","sayari","f","5","html-keyboard-response","1125","v","itik","false","",""
"1701","","","","","5","html-slider-response","1126","","","","4",""
"1633","shop","nopya,kerida,ndezu,samaki","samaki","n","5","html-keyboard-response","1127","f","nopya","false","",""
"1249.2999999970198","","","","","5","html-slider-response","1128","","","","2",""
"2548","nose","gubat,kopa,sehemu,kidole","sehemu","j","5","html-keyboard-response","1129","v","kopa","false","",""
"1255.7000000029802","","","","","5","html-slider-response","1130","","","","2",""
"804","boat","agalon,hamsi,pombe,kitanda","agalon","f","5","html-keyboard-response","1131","v","hamsi","false","",""
"1145.7999999970198","","","","","5","html-slider-response","1132","","","","2",""
"2948","body","nyundu,tindashan,jibini,kununa","tindashan","v","5","html-keyboard-response","1133","v","tindashan","true","",""
"1497.800000011921","","","","","5","html-slider-response","1134","","","","5",""
"1029","bed","kalipay,haraka,starehe,mapintas","mapintas","n","5","html-keyboard-response","1135","f","kalipay","false","",""
"1258.7999999970198","","","","","5","html-slider-response","1136","","","","2",""
"1733","squirrel","mahugaw,ukweli,hofu,kichwa","hofu","j","5","html-keyboard-response","1137","j","hofu","true","",""
"1821.3999999910593","","","","","5","html-slider-response","1138","","","","2",""
"2226","window","nanga,kweli,kujenga,umaga","kweli","v","5","html-keyboard-response","1139","j","kujenga","false","",""
"1519.2999999970198","","","","","5","html-slider-response","1140","","","","2",""
"1209","bonfire","mwezi,goti,mfuko,kusanya","goti","v","5","html-keyboard-response","1141","f","mwezi","false","",""
"1143.7000000029802","","","","","5","html-slider-response","1142","","","","2",""
"1321","fish","bala,buli,baho,imani","buli","v","5","html-keyboard-response","1143","v","buli","true","",""
"1046.800000011921","","","","","5","html-slider-response","1144","","","","4",""
"3559","cat","neyemba,baki,akili,paghukom","paghukom","n","5","html-keyboard-response","1145","f","neyemba","false","",""
"1903.7000000029802","","","","","5","html-slider-response","1146","","","","4",""
"1260","spider","kamwe,bunyag,mkboa,atop","kamwe","f","5","html-keyboard-response","1147","f","kamwe","true","",""
"1705.2999999970198","","","","","5","html-slider-response","1148","","","","2",""
"899","eel","ishara,kunywa,kabuang,msumari","msumari","n","5","html-keyboard-response","1149","v","kunywa","false","",""
"2102.9000000059605","","","","","5","html-slider-response","1150","","","","2",""
"3683","woman","bandari,bituin,pagtabon,kovuli","pagtabon","j","5","html-keyboard-response","1151","j","pagtabon","true","",""
"1460.6000000089407","","","","","5","html-slider-response","1152","","","","4",""
"2214","magazine","gundi,mchawi,bahandi,kiti","kiti","n","5","html-keyboard-response","1153","n","kiti","true","",""
"1536.800000011921","","","","","5","html-slider-response","1154","","","","5",""
"1021","pudding","abug,mpishi,iring,aibu","aibu","n","5","html-keyboard-response","1155","f","abug","false","",""
"1252.9000000059605","","","","","5","html-slider-response","1156","","","","2",""
"1011","lamp","daub,afya,bilaska,mbolea","afya","v","5","html-keyboard-response","1157","v","afya","true","",""
"1178.199999988079","","","","","5","html-slider-response","1158","","","","2",""
"1938","cave","kesho,ganti,maisha,nyundo","kesho","f","5","html-keyboard-response","1159","f","kesho","true","",""
"1328.0999999940395","","","","","5","html-slider-response","1160","","","","5",""
"1959","shoulder","kelele,ndaniya,guruwe,mkuu","mkuu","n","5","html-keyboard-response","1161","n","mkuu","true","",""
"1431.8999999910593","","","","","5","html-slider-response","1162","","","","5",""
"1266","stone","wingi,ulimwengu,mkasi,asili","wingi","f","5","html-keyboard-response","1163","v","ulimwengu","false","",""
"1624","","","","","5","html-slider-response","1164","","","","2",""
"1120","column","pundok,ufagio,dila,pala","ufagio","v","5","html-keyboard-response","1165","f","pundok","false","",""
"1008.0999999940395","","","","","5","html-slider-response","1166","","","","2",""
"742","page","wakala,ishiri,wimbo,skina","wimbo","j","5","html-keyboard-response","1167","v","ishiri","false","",""
"1385.2000000029802","","","","","5","html-slider-response","1168","","","","2",""
"1794","shoe","nyeusi,hatua,kama,uyoga","uyoga","n","5","html-keyboard-response","1169","j","kama","false","",""
"1314.2000000029802","","","","","5","html-slider-response","1170","","","","2",""
"5835","clock","kartasi,abang,mbwa,osha","mbwa","j","5","html-keyboard-response","1171","j","mbwa","true","",""
"1425.5","","","","","5","html-slider-response","1172","","","","5",""
"868","towel","tembo,funzi,pito,pagpalit","pagpalit","n","5","html-keyboard-response","1173","f","tembo","false","",""
"1151.5","","","","","5","html-slider-response","1174","","","","2",""
"1887","tomato","chupi,chupa,mvua,takatak","mvua","j","5","html-keyboard-response","1175","v","chupa","false","",""
"2718.800000011921","","","","","5","html-slider-response","1176","","","","2",""
"956","bucket","baga,ijayo,init,kiatu","kiatu","n","5","html-keyboard-response","1177","f","baga","false","",""
"1275.2999999970198","","","","","5","html-slider-response","1178","","","","2",""
"3190","finger","simu,sufuria,moyo,lima","moyo","j","5","html-keyboard-response","1179","n","lima","false","",""
"1177.5","","","","","5","html-slider-response","1180","","","","2",""
"2342","mother","kahawa,mbuzi,jokofu,babaye","babaye","n","5","html-keyboard-response","1181","n","babaye","true","",""
"1314.800000011921","","","","","5","html-slider-response","1182","","","","5",""
"1709","human","tinapay,bado,kikapu,punguza","tinapay","f","5","html-keyboard-response","1183","f","tinapay","true","",""
"2265.6000000089407","","","","","5","html-slider-response","1184","","","","5",""
"3565","sun","bendi,luha,basi,uongo","basi","j","5","html-keyboard-response","1185","j","basi","true","",""
"1343.6000000089407","","","","","5","html-slider-response","1186","","","","4",""
"1850","fork","mgonjwa,baboy,paghago,gorisi","mgonjwa","f","5","html-keyboard-response","1187","v","baboy","false","",""
"2114.5","","","","","5","html-slider-response","1188","","","","2",""
"1158","donkey","bloke,elfu,lalake,rombus","elfu","v","5","html-keyboard-response","1189","f","bloke","false","",""
"3311.3999999910593","","","","","5","html-slider-response","1190","","","","1",""
"1310","wolf","kaburi,ndizi,lugha,mchuzi","lugha","j","5","html-keyboard-response","1191","f","kaburi","false","",""
"1137.9000000059605","","","","","5","html-slider-response","1192","","","","2",""
"1078","cigar","ndugu,adhabu,kuta,mlango","adhabu","v","5","html-keyboard-response","1193","v","adhabu","true","",""
"2003.5","","","","","5","html-slider-response","1194","","","","2",""
"1702","olive","bata,siagi,jiwe,welder","jiwe","j","5","html-keyboard-response","1195","j","jiwe","true","",""
"1649.7000000029802","","","","","5","html-slider-response","1196","","","","5",""
"1096","key","miaka,goma,chombo,ahos","chombo","j","5","html-keyboard-response","1197","v","goma","false","",""
"1794.7000000029802","","","","","5","html-slider-response","1198","","","","2",""
"1755","door","surali,tena,soko,nyota","surali","f","5","html-keyboard-response","1199","f","surali","true","",""
"1269.5","","","","","5","html-slider-response","1200","","","","2",""
"791","wheel","bafuni,punda,tawo,baadaye","bafuni","f","5","html-keyboard-response","1201","v","punda","false","",""
"2088.5999999940395","","","","","5","html-slider-response","1202","","","","2",""
"2626","basket","kumbuka,utepe,kumba,hasira","kumba","j","5","html-keyboard-response","1203","j","kumba","true","",""
"1302.4000000059605","","","","","5","html-slider-response","1204","","","","2",""
"2155","elephant","petye,pagduol,kito,suka","kito","j","5","html-keyboard-response","1205","v","pagduol","false","",""
"1400.6000000089407","","","","","5","html-slider-response","1206","","","","2",""
"2398","office","hazini,yatima,kuna,leso","leso","n","5","html-keyboard-response","1207","n","leso","true","",""
"1346.2000000029802","","","","","5","html-slider-response","1208","","","","5",""
"1088","music","mraba,mageho,tumbo,baiski","baiski","n","5","html-keyboard-response","1209","f","mraba","false","",""
"1294.6000000089407","","","","","5","html-slider-response","1210","","","","4",""
"783","tissue","ugomvi,lamigas,kisiwa,katika","ugomvi","f","5","html-keyboard-response","1211","v","lamigas","false","",""
"1135.8999999910593","","","","","5","html-slider-response","1212","","","","4",""
"988","curtain","lisud,bulwawan,chubani,mchanga","mchanga","n","5","html-keyboard-response","1213","v","bulwawan","false","",""
"1964.2000000029802","","","","","5","html-slider-response","1214","","","","2",""
"889","flag","ndege,trekta,mkate,kawa","trekta","v","5","html-keyboard-response","1215","f","ndege","false","",""
"1047.5","","","","","5","html-slider-response","1216","","","","2",""
"875","dog","lubi,bahari,washia,kalamu","bahari","v","5","html-keyboard-response","1217","v","bahari","true","",""
"1335.7000000029802","","","","","5","html-slider-response","1218","","","","2",""
"1036","cup","dagat,matumai,shimoni,jeraha","matumai","v","5","html-keyboard-response","1219","f","dagat","false","",""
"1318.3999999910593","","","","","5","html-slider-response","1220","","","","2",""
"1456","sheet","juuya,bililhon,watu,kamantis","bililhon","v","5","html-keyboard-response","1221","v","bililhon","true","",""
"1422","","","","","5","html-slider-response","1222","","","","4",""
"795","spoon","betri,nzuri,ngazi,pagsulod","pagsulod","n","5","html-keyboard-response","1223","f","betri","false","",""
"1127.5","","","","","5","html-slider-response","1224","","","","2",""
"2920","flower","tamasha,lobo,bega,usiku","bega","j","5","html-keyboard-response","1225","j","bega","true","",""
"1322.1000000089407","","","","","5","html-slider-response","1226","","","","5",""
"972","picture","silya,chaki,asin,kubwa","kubwa","n","5","html-keyboard-response","1227","f","silya","false","",""
"1265.9000000059605","","","","","5","html-slider-response","1228","","","","2",""
"702","puppet","napulo,lamok,mazishi,godoro","mazishi","j","5","html-keyboard-response","1229","v","lamok","false","",""
"1528.5","","","","","5","html-slider-response","1230","","","","4",""
"1387","banana","kazi,kasamok,hagdan,twai","kazi","f","5","html-keyboard-response","1231","v","kasamok","false","",""
"2113.8999999910593","","","","","5","html-slider-response","1232","","","","2",""
"2135","book","mali,kuhesa,picha,mara","mali","f","5","html-keyboard-response","1233","f","mali","true","",""
"1202.7999999970198","","","","","5","html-slider-response","1234","","","","4",""
"1882","triangle","kihozi,bentaha,liog,kasadpan","kasadpan","n","5","html-keyboard-response","1235","v","bentaha","false","",""
"1368.0999999940395","","","","","5","html-slider-response","1236","","","","2",""
"787","poster","nchi,fedha,madungog,kasuko","madungog","j","5","html-keyboard-response","1237","f","nchi","false","",""
"1134.6000000089407","","","","","5","html-slider-response","1238","","","","2",""
"755","box","kuacha,rafiki,kitande,adui","adui","n","5","html-keyboard-response","1239","f","kuacha","false","",""
"1341.2999999970198","","","","","5","html-slider-response","1240","","","","4",""
"690","mosquito","isda,taras,gutom,martilyo","martilyo","n","5","html-keyboard-response","1241","j","gutom","false","",""
"1464.6000000089407","","","","","5","html-slider-response","1242","","","","2",""
"1000","shelf","bungtod,kadaot,awit,pamahaw","pamahaw","n","5","html-keyboard-response","1243","f","bungtod","false","",""
"1100.1000000089407","","","","","5","html-slider-response","1244","","","","2",""
"853","scissors","duga,mtawa,tanuri,suga","tanuri","j","5","html-keyboard-response","1245","v","mtawa","false","",""
"1763.3999999910593","","","","","5","html-slider-response","1246","","","","2",""
"3398","hammer","mekno,napakyas,kitovu,layag","napakyas","v","5","html-keyboard-response","1247","n","layag","false","",""
"1444.0999999940395","","","","","5","html-slider-response","1248","","","","5",""
