"rt","en_word","options","swa_word","correct_answer","phase","trial_type","trial_index","input_answer","input_word","accuracy","certainty","amt_choices"
"35434","bonfire","mwezi,goti,mfuko,kusanya","goti","v","2","html-keyboard-response","106","n","kusanya","false","",""
"1684","","","","","2","html-slider-response","107","","","","1",""
"4611","flower","tamasha,lobo,bega,usiku","bega","j","2","html-keyboard-response","108","j","bega","true","",""
"1962","","","","","2","html-slider-response","109","","","","4",""
"8560","column","pundok,dila,pala,ufagio","ufagio","n","2","html-keyboard-response","110","n","ufagio","true","",""
"2114","","","","","2","html-slider-response","111","","","","2",""
"6590","music","mraba,mageho,tumbo,baiski","baiski","n","2","html-keyboard-response","112","n","baiski","true","",""
"1903","","","","","2","html-slider-response","113","","","","5",""
"8830","spider","bunyag,mkboa,kamwe,atop","kamwe","j","2","html-keyboard-response","114","v","mkboa","false","",""
"1643","","","","","2","html-slider-response","115","","","","1",""
"5448","fork","baboy,paghago,gorisi,mgonjwa","mgonjwa","n","2","html-keyboard-response","116","n","mgonjwa","true","",""
"1819","","","","","2","html-slider-response","117","","","","4",""
"8962","mosquito","martilyo,isda,taras,gutom","martilyo","f","2","html-keyboard-response","118","f","martilyo","true","",""
"1815","","","","","2","html-slider-response","119","","","","2",""
"5863","banana","kazi,kasamok,hagdan,twai","kazi","f","2","html-keyboard-response","120","n","twai","false","",""
"1987","","","","","2","html-slider-response","121","","","","5",""
"9003","cup","dagat,matumai,shimoni,jeraha","matumai","v","2","html-keyboard-response","122","v","matumai","true","",""
"2321","","","","","2","html-slider-response","123","","","","1",""
"7050","shop","nopya,samaki,kerida,ndezu","samaki","v","2","html-keyboard-response","124","v","samaki","true","",""
"1704","","","","","2","html-slider-response","125","","","","5",""
"11933","elephant","petye,pagduol,suka,kito","kito","n","2","html-keyboard-response","126","v","pagduol","false","",""
"2240","","","","","2","html-slider-response","127","","","","1",""
"11378","bucket","baga,kiatu,ijayo,init","kiatu","v","2","html-keyboard-response","128","v","kiatu","true","",""
"1800","","","","","2","html-slider-response","129","","","","1",""
"3057","book","kuhesa,picha,mara,mali","mali","n","2","html-keyboard-response","130","n","mali","true","",""
"3576","","","","","2","html-slider-response","131","","","","4",""
"7365","mirror","sulagma,rangi,kanding,furaha","sulagma","f","2","html-keyboard-response","132","f","sulagma","true","",""
"1672","","","","","2","html-slider-response","133","","","","2",""
"4358","office","hazini,leso,yatima,kuna","leso","v","2","html-keyboard-response","134","v","leso","true","",""
"1583","","","","","2","html-slider-response","135","","","","5",""
"17657","body","nyundu,jibini,kununa,tindashan","tindashan","n","2","html-keyboard-response","136","j","kununa","false","",""
"1490","","","","","2","html-slider-response","137","","","","1",""
"13737","perfume","katuyoan,bino,sungura,ndogo","katuyoan","f","2","html-keyboard-response","138","f","katuyoan","true","",""
"1499","","","","","2","html-slider-response","139","","","","1",""
"5089","olive","bata,siagi,welder,jiwe","jiwe","n","2","html-keyboard-response","140","n","jiwe","true","",""
"1852","","","","","2","html-slider-response","141","","","","5",""
"15761","magazine","gundi,mchawi,kiti,bahandi","kiti","j","2","html-keyboard-response","142","v","mchawi","false","",""
"2171","","","","","2","html-slider-response","143","","","","4",""
"14288","bread","dari,kaili,dizeli,bugas","dari","f","2","html-keyboard-response","144","f","dari","true","",""
"1695","","","","","2","html-slider-response","145","","","","5",""
"4876","cave","ganti,maisha,kesho,nyundo","kesho","j","2","html-keyboard-response","146","j","kesho","true","",""
"1391","","","","","2","html-slider-response","147","","","","4",""
"5329","ladder","mashua,mwanga,kamba,pangalan","pangalan","n","2","html-keyboard-response","148","n","pangalan","true","",""
"1994","","","","","2","html-slider-response","149","","","","1",""
"12684","human","bado,kikapu,punguza,tinapay","tinapay","n","2","html-keyboard-response","150","f","bado","false","",""
"1450","","","","","2","html-slider-response","151","","","","4",""
"5065","clock","kartasi,mbwa,abang,osha","mbwa","v","2","html-keyboard-response","152","v","mbwa","true","",""
"3206","","","","","2","html-slider-response","153","","","","3",""
"14148","shelf","bungtod,kadaot,awit,pamahaw","pamahaw","n","2","html-keyboard-response","154","j","awit","false","",""
"1784","","","","","2","html-slider-response","155","","","","2",""
"15593","salmon","mzungu,seri,baharia,sensilyo","sensilyo","n","2","html-keyboard-response","156","n","sensilyo","true","",""
"1497","","","","","2","html-slider-response","157","","","","1",""
"3977","coffin","barua,kioo,tubag,hulma","kioo","v","2","html-keyboard-response","158","v","kioo","true","",""
"2975","","","","","2","html-slider-response","159","","","","5",""
"3776","notebook","msitu,kila,kemia,mdudu","kemia","j","2","html-keyboard-response","160","j","kemia","true","",""
"2458","","","","","2","html-slider-response","161","","","","5",""
"7766","shoulder","kelele,ndaniya,guruwe,mkuu","mkuu","n","2","html-keyboard-response","162","n","mkuu","true","",""
"1505","","","","","2","html-slider-response","163","","","","5",""
"5620","park","tambok,bunifu,pwani,ihalas","bunifu","v","2","html-keyboard-response","164","v","bunifu","true","",""
"2063","","","","","2","html-slider-response","165","","","","2",""
"14821","number","mundamo,shule,kengele,choori","mundamo","f","2","html-keyboard-response","166","f","mundamo","true","",""
"2122","","","","","2","html-slider-response","167","","","","5",""
"7456","apple","ukame,estante,edad,kisu","kisu","n","2","html-keyboard-response","168","n","kisu","true","",""
"1343","","","","","2","html-slider-response","169","","","","4",""
"7621","letter","kifua,filimbi,chuma,uhuru","kifua","f","2","html-keyboard-response","170","j","chuma","false","",""
"2081","","","","","2","html-slider-response","171","","","","1",""
"8855","eel","msumari,ishara,kunywa,kabuang","msumari","f","2","html-keyboard-response","172","f","msumari","true","",""
"1308","","","","","2","html-slider-response","173","","","","1",""
"8213","cop","bustani,jikoni,mechezo,bakus","mechezo","j","2","html-keyboard-response","174","j","mechezo","true","",""
"1962","","","","","2","html-slider-response","175","","","","1",""
"19797","wolf","kaburi,ndizi,lugha,mchuzi","lugha","j","2","html-keyboard-response","176","n","mchuzi","false","",""
"1311","","","","","2","html-slider-response","177","","","","1",""
"9336","squirrel","mahugaw,ukweli,kichwa,hofu","hofu","n","2","html-keyboard-response","178","n","hofu","true","",""
"2119","","","","","2","html-slider-response","179","","","","1",""
"9983","nose","sehemu,gubat,kopa,kidole","sehemu","f","2","html-keyboard-response","180","f","sehemu","true","",""
"1584","","","","","2","html-slider-response","181","","","","2",""
"24547","sock","ndoora,mamba,kimysa,mtirka","mamba","v","2","html-keyboard-response","182","n","mtirka","false","",""
"1440","","","","","2","html-slider-response","183","","","","4",""
"3304","bank","kudhibi,tualya,silingan,ofisi","silingan","j","2","html-keyboard-response","184","j","silingan","true","",""
"1399","","","","","2","html-slider-response","185","","","","2",""
"4731","donkey","bloke,elfu,lalake,rombus","elfu","v","2","html-keyboard-response","186","v","elfu","true","",""
"2603","","","","","2","html-slider-response","187","","","","5",""
"10173","poster","nchi,fedha,madungog,kasuko","madungog","j","2","html-keyboard-response","188","j","madungog","true","",""
"2287","","","","","2","html-slider-response","189","","","","1",""
"4564","puppet","napulo,mazishi,lamok,godoro","mazishi","v","2","html-keyboard-response","190","v","mazishi","true","",""
"1438","","","","","2","html-slider-response","191","","","","5",""
"10285","hill","kushoto,matumbo,kukimba,sweta","matumbo","v","2","html-keyboard-response","192","n","sweta","false","",""
"1285","","","","","2","html-slider-response","193","","","","1",""
"8184","tooth","kijiko,uadui,pahiyum,kabalaka","kabalaka","n","2","html-keyboard-response","194","f","kijiko","false","",""
"1850","","","","","2","html-slider-response","195","","","","1",""
"15200","woman","bandari,pagtabon,bituin,kovuli","pagtabon","v","2","html-keyboard-response","196","v","pagtabon","true","",""
"3006","","","","","2","html-slider-response","197","","","","1",""
"9124","wheel","punda,tawo,baadaye,bafuni","bafuni","n","2","html-keyboard-response","198","n","bafuni","true","",""
"1574","","","","","2","html-slider-response","199","","","","5",""
"9730","mother","kahawa,mbuzi,babaye,jokofu","babaye","j","2","html-keyboard-response","200","j","babaye","true","",""
"1397","","","","","2","html-slider-response","201","","","","2",""
"10013","bed","kalipay,mapintas,haraka,starehe","mapintas","v","2","html-keyboard-response","202","v","mapintas","true","",""
"2704","","","","","2","html-slider-response","203","","","","1",""
"16928","key","miaka,chombo,goma,ahos","chombo","v","2","html-keyboard-response","204","v","chombo","true","",""
"1297","","","","","2","html-slider-response","205","","","","4",""
"10686","page","wakala,wimbo,ishiri,skina","wimbo","v","2","html-keyboard-response","206","f","wakala","false","",""
"1243","","","","","2","html-slider-response","207","","","","2",""
"4467","pants","pintal,chuki,haki,hari","haki","j","2","html-keyboard-response","208","j","haki","true","",""
"1572","","","","","2","html-slider-response","209","","","","5",""
"3257","sun","bendi,luha,uongo,basi","basi","n","2","html-keyboard-response","210","n","basi","true","",""
"2370","","","","","2","html-slider-response","211","","","","5",""
"9519","finger","simu,sufuria,lima,moyo","moyo","n","2","html-keyboard-response","212","j","lima","false","",""
"1925","","","","","2","html-slider-response","213","","","","5",""
"10739","shoe","nyeusi,hatua,kama,uyoga","uyoga","n","2","html-keyboard-response","214","n","uyoga","true","",""
"1317","","","","","2","html-slider-response","215","","","","2",""
"7756","giraffe","daraja,jumatu,mahitabo,hangyo","mahitabo","j","2","html-keyboard-response","216","n","hangyo","false","",""
"2205","","","","","2","html-slider-response","217","","","","4",""
"9960","dog","bahari,lubi,washia,kalamu","bahari","f","2","html-keyboard-response","218","f","bahari","true","",""
"1543","","","","","2","html-slider-response","219","","","","4",""
"5583","box","kuacha,rafiki,adui,kitande","adui","j","2","html-keyboard-response","220","j","adui","true","",""
"2521","","","","","2","html-slider-response","221","","","","1",""
"13726","scissors","duga,mtawa,suga,tanuri","tanuri","n","2","html-keyboard-response","222","n","tanuri","true","",""
"1971","","","","","2","html-slider-response","223","","","","1",""
"5403","cat","paghukom,neyemba,baki,akili","paghukom","f","2","html-keyboard-response","224","n","akili","false","",""
"1135","","","","","2","html-slider-response","225","","","","2",""
"16320","basket","kumbuka,utepe,hasira,kumba","kumba","n","2","html-keyboard-response","226","n","kumba","true","",""
"3147","","","","","2","html-slider-response","227","","","","1",""
"20171","snake","jansa,karon,pagtukod,mvringo","pagtukod","j","2","html-keyboard-response","228","v","karon","false","",""
"1522","","","","","2","html-slider-response","229","","","","1",""
"6347","gift","baba,pagtawag,nyange,baso","pagtawag","v","2","html-keyboard-response","230","v","pagtawag","true","",""
"1441","","","","","2","html-slider-response","231","","","","1",""
"11687","train","itik,dakika,mungu,sayari","sayari","n","2","html-keyboard-response","232","j","mungu","false","",""
"1135","","","","","2","html-slider-response","233","","","","2",""
"5641","pudding","aibu,abug,mpishi,iring","aibu","f","2","html-keyboard-response","234","f","aibu","true","",""
"2251","","","","","2","html-slider-response","235","","","","1",""
"4531","tomato","chupi,mvua,chupa,takatak","mvua","v","2","html-keyboard-response","236","v","mvua","true","",""
"1027","","","","","2","html-slider-response","237","","","","4",""
"3777","stone","ulimwengu,mkasi,wingi,asili","wingi","j","2","html-keyboard-response","238","j","wingi","true","",""
"1490","","","","","2","html-slider-response","239","","","","5",""
"9041","hammer","napakyas,mekno,kitovu,layag","napakyas","f","2","html-keyboard-response","240","j","kitovu","false","",""
"1578","","","","","2","html-slider-response","241","","","","2",""
"4505","knee","mvuke,kubale,bili,duka","duka","n","2","html-keyboard-response","242","n","duka","true","",""
"2056","","","","","2","html-slider-response","243","","","","1",""
"9027","ceiling","maua,kugita,kawaida,rayna","maua","f","2","html-keyboard-response","244","f","maua","true","",""
"2194","","","","","2","html-slider-response","245","","","","2",""
"7497","spoon","betri,nzuri,pagsulod,ngazi","pagsulod","j","2","html-keyboard-response","246","j","pagsulod","true","",""
"1893","","","","","2","html-slider-response","247","","","","1",""
"6602","marker","mapafu,salita,maji,atay","maji","j","2","html-keyboard-response","248","j","maji","true","",""
"1204","","","","","2","html-slider-response","249","","","","5",""
"6610","candle","gabi,farasi,kupanda,geza","geza","n","2","html-keyboard-response","250","n","geza","true","",""
"1157","","","","","2","html-slider-response","251","","","","4",""
"7466","tissue","lamigas,ugomvi,kisiwa,katika","ugomvi","v","2","html-keyboard-response","252","v","ugomvi","true","",""
"1717","","","","","2","html-slider-response","253","","","","2",""
"13198","bridge","daima,ngono,sahani,panya","sahani","j","2","html-keyboard-response","254","j","sahani","true","",""
"1185","","","","","2","html-slider-response","255","","","","1",""
"11359","berry","abogado,nogozi,kinywa,kofia","kofia","n","2","html-keyboard-response","256","n","kofia","true","",""
"2102","","","","","2","html-slider-response","257","","","","2",""
"10889","triangle","kihozi,bentaha,liog,kasadpan","kasadpan","n","2","html-keyboard-response","258","n","kasadpan","true","",""
"1195","","","","","2","html-slider-response","259","","","","5",""
"22082","door","tena,soko,nyota,surali","surali","n","2","html-keyboard-response","260","n","surali","true","",""
"1722","","","","","2","html-slider-response","261","","","","1",""
"7212","fish","bala,baho,imani,buli","buli","n","2","html-keyboard-response","262","v","baho","false","",""
"1428","","","","","2","html-slider-response","263","","","","5",""
"12403","curtain","lisud,mchanga,bulwawan,chubani","mchanga","v","2","html-keyboard-response","264","v","mchanga","true","",""
"1304","","","","","2","html-slider-response","265","","","","2",""
"16462","flag","ndege,mkate,kawa,trekta","trekta","n","2","html-keyboard-response","266","n","trekta","true","",""
"1331","","","","","2","html-slider-response","267","","","","2",""
"12236","boat","agalon,hamsi,pombe,kitanda","agalon","f","2","html-keyboard-response","268","f","agalon","true","",""
"2072","","","","","2","html-slider-response","269","","","","1",""
"9453","rose","singizi,mwanake,amani,paghalad","paghalad","n","2","html-keyboard-response","270","j","amani","false","",""
"1811","","","","","2","html-slider-response","271","","","","2",""
"7439","lamp","afya,daub,bilaska,mbolea","afya","f","2","html-keyboard-response","272","f","afya","true","",""
"2682","","","","","2","html-slider-response","273","","","","1",""
"10555","cigar","ndugu,adhabu,kuta,mlango","adhabu","v","2","html-keyboard-response","274","v","adhabu","true","",""
"1373","","","","","2","html-slider-response","275","","","","1",""
"6445","list","wingu,alizeti,kuzama,kaso","wingu","f","2","html-keyboard-response","276","n","kaso","false","",""
"1209","","","","","2","html-slider-response","277","","","","4",""
"8193","sheet","juuya,bililhon,watu,kamantis","bililhon","v","2","html-keyboard-response","278","f","juuya","false","",""
"1140","","","","","2","html-slider-response","279","","","","5",""
"16975","picture","silya,chaki,kubwa,asin","kubwa","j","2","html-keyboard-response","280","j","kubwa","true","",""
"1531","","","","","2","html-slider-response","281","","","","4",""
"12054","towel","tembo,funzi,pagpalit,pito","pagpalit","j","2","html-keyboard-response","282","j","pagpalit","true","",""
"1530","","","","","2","html-slider-response","283","","","","2",""
"14186","window","nanga,kujenga,kweli,umaga","kweli","j","2","html-keyboard-response","284","j","kweli","true","",""
"1823","","","","","2","html-slider-response","285","","","","1",""
"21199","box","kuacha,rafiki,kitande,adui","adui","n","3","html-keyboard-response","293","n","adui","true","","4"
"1909","","","","","3","html-slider-response","294","","","","1",""
"4280","","","","","3","html-keyboard-response","295","","","","",""
"6216","pants","haki,pintal,chuki,hari","haki","f","3","html-keyboard-response","296","v","pintal","false","","4"
"1703","","","","","3","html-slider-response","297","","","","1",""
"4092","","","","","3","html-keyboard-response","298","","","","",""
"7180","cup","dagat,shimoni,jeraha,matumai","matumai","n","3","html-keyboard-response","299","j","jeraha","false","","4"
"1838","","","","","3","html-slider-response","300","","","","1",""
"4893","","","","","3","html-keyboard-response","301","","","","",""
"4183","triangle","kihozi,bentaha,liog,kasadpan","kasadpan","n","3","html-keyboard-response","302","n","kasadpan","true","","4"
"2012","","","","","3","html-slider-response","303","","","","5",""
"3082","","","","","3","html-keyboard-response","304","","","","",""
"41221","curtain","lisud,bulwawan,mchanga,chubani","mchanga","j","3","html-keyboard-response","305","j","mchanga","true","","4"
"1349","","","","","3","html-slider-response","306","","","","2",""
"2202","","","","","3","html-keyboard-response","307","","","","",""
"17004","clock","mbwa,kartasi,abang,osha","mbwa","f","3","html-keyboard-response","308","f","mbwa","true","","4"
"1566","","","","","3","html-slider-response","309","","","","1",""
"1475","","","","","3","html-keyboard-response","310","","","","",""
"10384","mirror","sulagma,rangi,kanding,furaha","sulagma","f","3","html-keyboard-response","311","f","sulagma","true","","4"
"1462","","","","","3","html-slider-response","312","","","","4",""
"1024","","","","","3","html-keyboard-response","313","","","","",""
"3159","coffin","kioo,barua,tubag,hulma","kioo","f","3","html-keyboard-response","314","f","kioo","true","","1"
"2132","","","","","3","html-slider-response","315","","","","5",""
"1774","","","","","3","html-keyboard-response","316","","","","",""
"6686","magazine","gundi,kiti,mchawi,bahandi","kiti","v","3","html-keyboard-response","317","j","mchawi","false","","4"
"1244","","","","","3","html-slider-response","318","","","","1",""
"2111","","","","","3","html-keyboard-response","319","","","","",""
"1829","column","ufagio,pundok,dila,pala","ufagio","f","3","html-keyboard-response","320","f","ufagio","true","","1"
"1356","","","","","3","html-slider-response","321","","","","5",""
"1242","","","","","3","html-keyboard-response","322","","","","",""
"9815","number","shule,kengele,mundamo,choori","mundamo","j","3","html-keyboard-response","323","j","mundamo","true","","4"
"1317","","","","","3","html-slider-response","324","","","","2",""
"1244","","","","","3","html-keyboard-response","325","","","","",""
"10915","rose","paghalad,singizi,mwanake,amani","paghalad","f","3","html-keyboard-response","326","f","paghalad","true","","4"
"1996","","","","","3","html-slider-response","327","","","","4",""
"1286","","","","","3","html-keyboard-response","328","","","","",""
"14058","eel","ishara,msumari,kunywa,kabuang","msumari","v","3","html-keyboard-response","329","v","msumari","true","","4"
"1409","","","","","3","html-slider-response","330","","","","1",""
"1041","","","","","3","html-keyboard-response","331","","","","",""
"11798","gift","baba,nyange,baso,pagtawag","pagtawag","n","3","html-keyboard-response","332","n","pagtawag","true","","4"
"1075","","","","","3","html-slider-response","333","","","","2",""
"978","","","","","3","html-keyboard-response","334","","","","",""
"2403","apple","ukame,kisu,estante,edad","kisu","v","3","html-keyboard-response","335","v","kisu","true","","1"
"1269","","","","","3","html-slider-response","336","","","","5",""
"1023","","","","","3","html-keyboard-response","337","","","","",""
"2210","wheel","punda,tawo,bafuni,baadaye","bafuni","j","3","html-keyboard-response","338","j","bafuni","true","","1"
"1777","","","","","3","html-slider-response","339","","","","5",""
"945","","","","","3","html-keyboard-response","340","","","","",""
"30678","knee","mvuke,kubale,duka,bili","duka","j","3","html-keyboard-response","341","n","bili","false","","4"
"1011","","","","","3","html-slider-response","342","","","","4",""
"1480","","","","","3","html-keyboard-response","343","","","","",""
"3234","basket","kumbuka,utepe,kumba,hasira","kumba","j","3","html-keyboard-response","344","j","kumba","true","","1"
"1152","","","","","3","html-slider-response","345","","","","5",""
"871","","","","","3","html-keyboard-response","346","","","","",""
"19003","park","tambok,bunifu,pwani,ihalas","bunifu","v","3","html-keyboard-response","347","f","tambok","false","","4"
"1159","","","","","3","html-slider-response","348","","","","2",""
"1088","","","","","3","html-keyboard-response","349","","","","",""
"3731","finger","simu,sufuria,moyo,lima","moyo","j","3","html-keyboard-response","350","j","moyo","true","","4"
"1150","","","","","3","html-slider-response","351","","","","5",""
"759","","","","","3","html-keyboard-response","352","","","","",""
"19637","boat","hamsi,pombe,agalon,kitanda","agalon","j","3","html-keyboard-response","353","v","pombe","false","","4"
"1496","","","","","3","html-slider-response","354","","","","1",""
"913","","","","","3","html-keyboard-response","355","","","","",""
"28092","hill","matumbo,kushoto,kukimba,sweta","matumbo","f","3","html-keyboard-response","356","n","sweta","false","","4"
"1107","","","","","3","html-slider-response","357","","","","2",""
"1226","","","","","3","html-keyboard-response","358","","","","",""
"25640","train","itik,sayari,dakika,mungu","sayari","v","3","html-keyboard-response","359","v","sayari","true","","4"
"1231","","","","","3","html-slider-response","360","","","","5",""
"1035","","","","","3","html-keyboard-response","361","","","","",""
"34373","wolf","kaburi,ndizi,mchuzi,lugha","lugha","n","3","html-keyboard-response","362","n","lugha","true","","4"
"2129","","","","","3","html-slider-response","363","","","","4",""
"846","","","","","3","html-keyboard-response","364","","","","",""
"4181","snake","pagtukod,jansa,karon,mvringo","pagtukod","f","3","html-keyboard-response","365","f","pagtukod","true","","4"
"1469","","","","","3","html-slider-response","366","","","","1",""
"686","","","","","3","html-keyboard-response","367","","","","",""
"10553","tooth","kijiko,kabalaka,uadui,pahiyum","kabalaka","v","3","html-keyboard-response","368","n","pahiyum","false","","4"
"1009","","","","","3","html-slider-response","369","","","","1",""
"1442","","","","","3","html-keyboard-response","370","","","","",""
"11845","notebook","msitu,kemia,kila,mdudu","kemia","v","3","html-keyboard-response","371","v","kemia","true","","4"
"1069","","","","","3","html-slider-response","372","","","","2",""
"1297","","","","","3","html-keyboard-response","373","","","","",""
"26062","flag","ndege,mkate,trekta,kawa","trekta","j","3","html-keyboard-response","374","f","ndege","false","","4"
"1122","","","","","3","html-slider-response","375","","","","1",""
"871","","","","","3","html-keyboard-response","376","","","","",""
"9126","squirrel","mahugaw,ukweli,hofu,kichwa","hofu","j","3","html-keyboard-response","377","j","hofu","true","","4"
"2222","","","","","3","html-slider-response","378","","","","4",""
"1232","","","","","3","html-keyboard-response","379","","","","",""
"25278","door","tena,soko,surali,nyota","surali","j","3","html-keyboard-response","380","j","surali","true","","4"
"1164","","","","","3","html-slider-response","381","","","","2",""
"1012","","","","","3","html-keyboard-response","382","","","","",""
"6334","salmon","mzungu,seri,baharia,sensilyo","sensilyo","n","3","html-keyboard-response","383","f","mzungu","false","","4"
"1129","","","","","3","html-slider-response","384","","","","5",""
"1170","","","","","3","html-keyboard-response","385","","","","",""
"14468","shoulder","kelele,ndaniya,guruwe,mkuu","mkuu","n","3","html-keyboard-response","386","j","guruwe","false","","4"
"1046","","","","","3","html-slider-response","387","","","","1",""
"928","","","","","3","html-keyboard-response","388","","","","",""
"35724","lamp","daub,bilaska,afya,mbolea","afya","j","3","html-keyboard-response","389","j","afya","true","","4"
"1726","","","","","3","html-slider-response","390","","","","2",""
"951","","","","","3","html-keyboard-response","391","","","","",""
"2120","shelf","bungtod,kadaot,pamahaw,awit","pamahaw","j","3","html-keyboard-response","392","j","pamahaw","true","","1"
"1410","","","","","3","html-slider-response","393","","","","5",""
"1222","","","","","3","html-keyboard-response","394","","","","",""
"4918","human","tinapay,bado,kikapu,punguza","tinapay","f","3","html-keyboard-response","395","f","tinapay","true","","4"
"1193","","","","","3","html-slider-response","396","","","","5",""
"621","","","","","3","html-keyboard-response","397","","","","",""
"3724","towel","pagpalit,tembo,funzi,pito","pagpalit","f","3","html-keyboard-response","398","f","pagpalit","true","","4"
"1559","","","","","3","html-slider-response","399","","","","5",""
"544","","","","","3","html-keyboard-response","400","","","","",""
"6899","cat","neyemba,paghukom,baki,akili","paghukom","v","3","html-keyboard-response","401","n","akili","false","","4"
"1179","","","","","3","html-slider-response","402","","","","2",""
"1038","","","","","3","html-keyboard-response","403","","","","",""
"4243","spider","bunyag,kamwe,mkboa,atop","kamwe","v","3","html-keyboard-response","404","v","kamwe","true","","4"
"1270","","","","","3","html-slider-response","405","","","","5",""
"668","","","","","3","html-keyboard-response","406","","","","",""
"8260","window","nanga,kujenga,kweli,umaga","kweli","j","3","html-keyboard-response","407","v","kujenga","false","","4"
"1519","","","","","3","html-slider-response","408","","","","2",""
"1468","","","","","3","html-keyboard-response","409","","","","",""
"1824","woman","bandari,pagtabon,bituin,kovuli","pagtabon","v","3","html-keyboard-response","410","v","pagtabon","true","","1"
"1656","","","","","3","html-slider-response","411","","","","5",""
"905","","","","","3","html-keyboard-response","412","","","","",""
"6585","giraffe","daraja,jumatu,mahitabo,hangyo","mahitabo","j","3","html-keyboard-response","413","j","mahitabo","true","","4"
"1276","","","","","3","html-slider-response","414","","","","5",""
"407","","","","","3","html-keyboard-response","415","","","","",""
"5516","elephant","petye,kito,pagduol,suka","kito","v","3","html-keyboard-response","416","j","pagduol","false","","4"
"2189","","","","","3","html-slider-response","417","","","","1",""
"863","","","","","3","html-keyboard-response","418","","","","",""
"24619","cave","kesho,ganti,maisha,nyundo","kesho","f","3","html-keyboard-response","419","f","kesho","true","","4"
"1218","","","","","3","html-slider-response","420","","","","2",""
"690","","","","","3","html-keyboard-response","421","","","","",""
"2977","bread","kaili,dari,dizeli,bugas","dari","v","3","html-keyboard-response","422","n","bugas","false","","4"
"2228","","","","","3","html-slider-response","423","","","","4",""
"747","","","","","3","html-keyboard-response","424","","","","",""
"14966","stone","ulimwengu,mkasi,asili,wingi","wingi","n","3","html-keyboard-response","425","n","wingi","true","","4"
"1257","","","","","3","html-slider-response","426","","","","4",""
"776","","","","","3","html-keyboard-response","427","","","","",""
"2930","donkey","bloke,lalake,rombus,elfu","elfu","n","3","html-keyboard-response","428","n","elfu","true","","4"
"1487","","","","","3","html-slider-response","429","","","","5",""
"755","","","","","3","html-keyboard-response","430","","","","",""
"4198","bridge","daima,ngono,sahani,panya","sahani","j","3","html-keyboard-response","431","f","daima","false","","4"
"2274","","","","","3","html-slider-response","432","","","","1",""
"732","","","","","3","html-keyboard-response","433","","","","",""
"20276","bonfire","goti,mwezi,mfuko,kusanya","goti","f","3","html-keyboard-response","434","v","mwezi","false","","4"
"1749","","","","","3","html-slider-response","435","","","","1",""
"865","","","","","3","html-keyboard-response","436","","","","",""
"25216","book","kuhesa,picha,mali,mara","mali","j","3","html-keyboard-response","437","n","mara","false","","4"
"1489","","","","","3","html-slider-response","438","","","","1",""
"914","","","","","3","html-keyboard-response","439","","","","",""
"15222","fish","buli,bala,baho,imani","buli","f","3","html-keyboard-response","440","f","buli","true","","4"
"1119","","","","","3","html-slider-response","441","","","","4",""
"639","","","","","3","html-keyboard-response","442","","","","",""
"14862","spoon","betri,nzuri,ngazi,pagsulod","pagsulod","n","3","html-keyboard-response","443","n","pagsulod","true","","4"
"2371","","","","","3","html-slider-response","444","","","","2",""
"572","","","","","3","html-keyboard-response","445","","","","",""
"10696","scissors","duga,mtawa,tanuri,suga","tanuri","j","3","html-keyboard-response","446","j","tanuri","true","","4"
"1060","","","","","3","html-slider-response","447","","","","5",""
"538","","","","","3","html-keyboard-response","448","","","","",""
"10214","page","wimbo,wakala,ishiri,skina","wimbo","f","3","html-keyboard-response","449","n","skina","false","","4"
"2314","","","","","3","html-slider-response","450","","","","1",""
"764","","","","","3","html-keyboard-response","451","","","","",""
"1936","nose","gubat,kopa,kidole,sehemu","sehemu","n","3","html-keyboard-response","452","n","sehemu","true","","1"
"1166","","","","","3","html-slider-response","453","","","","5",""
"576","","","","","3","html-keyboard-response","454","","","","",""
"7707","ceiling","kugita,maua,kawaida,rayna","maua","v","3","html-keyboard-response","455","v","maua","true","","4"
"1497","","","","","3","html-slider-response","456","","","","5",""
"801","","","","","3","html-keyboard-response","457","","","","",""
"30811","bucket","baga,ijayo,init,kiatu","kiatu","n","3","html-keyboard-response","458","j","init","false","","4"
"1493","","","","","3","html-slider-response","459","","","","1",""
"758","","","","","3","html-keyboard-response","460","","","","",""
"1577","berry","abogado,nogozi,kinywa,kofia","kofia","n","3","html-keyboard-response","461","n","kofia","true","","1"
"1199","","","","","3","html-slider-response","462","","","","5",""
"670","","","","","3","html-keyboard-response","463","","","","",""
"1446","mother","kahawa,babaye,mbuzi,jokofu","babaye","v","3","html-keyboard-response","464","v","babaye","true","","1"
"1280","","","","","3","html-slider-response","465","","","","5",""
"399","","","","","3","html-keyboard-response","466","","","","",""
"4741","mosquito","isda,martilyo,taras,gutom","martilyo","v","3","html-keyboard-response","467","v","martilyo","true","","4"
"1381","","","","","3","html-slider-response","468","","","","5",""
"620","","","","","3","html-keyboard-response","469","","","","",""
"6584","perfume","bino,katuyoan,sungura,ndogo","katuyoan","v","3","html-keyboard-response","470","v","katuyoan","true","","4"
"1061","","","","","3","html-slider-response","471","","","","2",""
"476","","","","","3","html-keyboard-response","472","","","","",""
"23047","sheet","juuya,watu,bililhon,kamantis","bililhon","j","3","html-keyboard-response","473","j","bililhon","true","","4"
"1263","","","","","3","html-slider-response","474","","","","1",""
"346","","","","","3","html-keyboard-response","475","","","","",""
"1681","puppet","mazishi,napulo,lamok,godoro","mazishi","f","3","html-keyboard-response","476","f","mazishi","true","","1"
"1549","","","","","3","html-slider-response","477","","","","5",""
"554","","","","","3","html-keyboard-response","478","","","","",""
"17272","poster","madungog,nchi,fedha,kasuko","madungog","f","3","html-keyboard-response","479","n","kasuko","false","","4"
"1033","","","","","3","html-slider-response","480","","","","2",""
"819","","","","","3","html-keyboard-response","481","","","","",""
"23550","music","mraba,mageho,baiski,tumbo","baiski","j","3","html-keyboard-response","482","v","mageho","false","","4"
"1400","","","","","3","html-slider-response","483","","","","1",""
"792","","","","","3","html-keyboard-response","484","","","","",""
"3714","key","chombo,miaka,goma,ahos","chombo","f","3","html-keyboard-response","485","f","chombo","true","","4"
"1235","","","","","3","html-slider-response","486","","","","4",""
"483","","","","","3","html-keyboard-response","487","","","","",""
"6551","sock","mamba,ndoora,kimysa,mtirka","mamba","f","3","html-keyboard-response","488","n","mtirka","false","","4"
"1003","","","","","3","html-slider-response","489","","","","1",""
"516","","","","","3","html-keyboard-response","490","","","","",""
"5800","marker","maji,mapafu,salita,atay","maji","f","3","html-keyboard-response","491","v","mapafu","false","","4"
"1017","","","","","3","html-slider-response","492","","","","1",""
"650","","","","","3","html-keyboard-response","493","","","","",""
"33936","office","hazini,yatima,kuna,leso","leso","n","3","html-keyboard-response","494","n","leso","true","","4"
"2158","","","","","3","html-slider-response","495","","","","4",""
"633","","","","","3","html-keyboard-response","496","","","","",""
"5755","shoe","nyeusi,hatua,uyoga,kama","uyoga","j","3","html-keyboard-response","497","f","nyeusi","false","","4"
"1027","","","","","3","html-slider-response","498","","","","1",""
"543","","","","","3","html-keyboard-response","499","","","","",""
"4627","cop","mechezo,bustani,jikoni,bakus","mechezo","f","3","html-keyboard-response","500","f","mechezo","true","","4"
"1040","","","","","3","html-slider-response","501","","","","5",""
"655","","","","","3","html-keyboard-response","502","","","","",""
"12719","bank","kudhibi,silingan,tualya,ofisi","silingan","v","3","html-keyboard-response","503","n","ofisi","false","","4"
"2243","","","","","3","html-slider-response","504","","","","1",""
"1312","","","","","3","html-keyboard-response","505","","","","",""
"1522","letter","filimbi,kifua,chuma,uhuru","kifua","v","3","html-keyboard-response","506","v","kifua","true","","1"
"1198","","","","","3","html-slider-response","507","","","","5",""
"363","","","","","3","html-keyboard-response","508","","","","",""
"1466","dog","bahari,lubi,washia,kalamu","bahari","f","3","html-keyboard-response","509","f","bahari","true","","1"
"1179","","","","","3","html-slider-response","510","","","","5",""
"523","","","","","3","html-keyboard-response","511","","","","",""
"16149","shop","nopya,samaki,kerida,ndezu","samaki","v","3","html-keyboard-response","512","j","kerida","false","","4"
"1075","","","","","3","html-slider-response","513","","","","1",""
"675","","","","","3","html-keyboard-response","514","","","","",""
"9117","flower","tamasha,bega,lobo,usiku","bega","v","3","html-keyboard-response","515","f","tamasha","false","","4"
"1751","","","","","3","html-slider-response","516","","","","1",""
"643","","","","","3","html-keyboard-response","517","","","","",""
"1346","cigar","ndugu,adhabu,kuta,mlango","adhabu","v","3","html-keyboard-response","518","v","adhabu","true","","1"
"1848","","","","","3","html-slider-response","519","","","","5",""
"797","","","","","3","html-keyboard-response","520","","","","",""
"31668","hammer","napakyas,mekno,kitovu,layag","napakyas","f","3","html-keyboard-response","521","f","napakyas","true","","4"
"2312","","","","","3","html-slider-response","522","","","","1",""
"1001","","","","","3","html-keyboard-response","523","","","","",""
"14727","fork","baboy,mgonjwa,paghago,gorisi","mgonjwa","v","3","html-keyboard-response","524","v","mgonjwa","true","","4"
"1528","","","","","3","html-slider-response","525","","","","2",""
"349","","","","","3","html-keyboard-response","526","","","","",""
"1329","sun","bendi,luha,uongo,basi","basi","n","3","html-keyboard-response","527","n","basi","true","","1"
"1496","","","","","3","html-slider-response","528","","","","5",""
"365","","","","","3","html-keyboard-response","529","","","","",""
"9634","ladder","mashua,pangalan,mwanga,kamba","pangalan","v","3","html-keyboard-response","530","v","pangalan","true","","4"
"1133","","","","","3","html-slider-response","531","","","","1",""
"747","","","","","3","html-keyboard-response","532","","","","",""
"1280","banana","kasamok,kazi,hagdan,twai","kazi","v","3","html-keyboard-response","533","v","kazi","true","","1"
"1311","","","","","3","html-slider-response","534","","","","5",""
"600","","","","","3","html-keyboard-response","535","","","","",""
"5637","pudding","abug,mpishi,iring,aibu","aibu","n","3","html-keyboard-response","536","n","aibu","true","","4"
"1021","","","","","3","html-slider-response","537","","","","2",""
"624","","","","","3","html-keyboard-response","538","","","","",""
"19514","body","nyundu,tindashan,jibini,kununa","tindashan","v","3","html-keyboard-response","539","j","jibini","false","","4"
"963","","","","","3","html-slider-response","540","","","","2",""
"831","","","","","3","html-keyboard-response","541","","","","",""
"6922","bed","kalipay,mapintas,haraka,starehe","mapintas","v","3","html-keyboard-response","542","n","starehe","false","","4"
"1515","","","","","3","html-slider-response","543","","","","5",""
"1149","","","","","3","html-keyboard-response","544","","","","",""
"8654","tissue","ugomvi,lamigas,kisiwa,katika","ugomvi","f","3","html-keyboard-response","545","v","lamigas","false","","4"
"993","","","","","3","html-slider-response","546","","","","1",""
"682","","","","","3","html-keyboard-response","547","","","","",""
"3744","candle","geza,gabi,farasi,kupanda","geza","f","3","html-keyboard-response","548","f","geza","true","","4"
"1177","","","","","3","html-slider-response","549","","","","5",""
"452","","","","","3","html-keyboard-response","550","","","","",""
"1420","tomato","chupi,chupa,mvua,takatak","mvua","j","3","html-keyboard-response","551","j","mvua","true","","1"
"2043","","","","","3","html-slider-response","552","","","","5",""
"687","","","","","3","html-keyboard-response","553","","","","",""
"13282","list","alizeti,kuzama,wingu,kaso","wingu","j","3","html-keyboard-response","554","n","kaso","false","","4"
"1487","","","","","3","html-slider-response","555","","","","4",""
"608","","","","","3","html-keyboard-response","556","","","","",""
"4529","olive","bata,siagi,jiwe,welder","jiwe","j","3","html-keyboard-response","557","j","jiwe","true","","4"
"1206","","","","","3","html-slider-response","558","","","","1",""
"1231","","","","","3","html-keyboard-response","559","","","","",""
"1879","picture","silya,chaki,kubwa,asin","kubwa","j","3","html-keyboard-response","560","j","kubwa","true","","1"
"1163","","","","","3","html-slider-response","561","","","","5",""
"379","","","","","3","html-keyboard-response","562","","","","",""
"8278","page","wimbo,wakala,ishiri,skina","wimbo","f","4","html-keyboard-response","888","v","wakala","false","",""
"1095","","","","","4","html-slider-response","889","","","","1",""
"17398","sheet","juuya,watu,kamantis,bililhon","bililhon","n","4","html-keyboard-response","890","n","bililhon","true","",""
"1604","","","","","4","html-slider-response","891","","","","5",""
"11487","ladder","mashua,mwanga,kamba,pangalan","pangalan","n","4","html-keyboard-response","892","v","mwanga","false","",""
"1017","","","","","4","html-slider-response","893","","","","1",""
"7460","door","tena,surali,soko,nyota","surali","v","4","html-keyboard-response","894","v","surali","true","",""
"1201","","","","","4","html-slider-response","895","","","","4",""
"7701","spider","kamwe,bunyag,mkboa,atop","kamwe","f","4","html-keyboard-response","896","f","kamwe","true","",""
"1109","","","","","4","html-slider-response","897","","","","5",""
"7653","picture","silya,chaki,asin,kubwa","kubwa","n","4","html-keyboard-response","898","n","kubwa","true","",""
"1100","","","","","4","html-slider-response","899","","","","2",""
"4812","boat","hamsi,agalon,pombe,kitanda","agalon","v","4","html-keyboard-response","900","v","agalon","true","",""
"1037","","","","","4","html-slider-response","901","","","","1",""
"2867","donkey","elfu,bloke,lalake,rombus","elfu","f","4","html-keyboard-response","902","f","elfu","true","",""
"1192","","","","","4","html-slider-response","903","","","","5",""
"36552","book","kuhesa,picha,mara,mali","mali","n","4","html-keyboard-response","904","j","mara","false","",""
"1483","","","","","4","html-slider-response","905","","","","1",""
"7191","cup","dagat,matumai,shimoni,jeraha","matumai","v","4","html-keyboard-response","906","v","matumai","true","",""
"952","","","","","4","html-slider-response","907","","","","1",""
"24435","sun","bendi,basi,luha,uongo","basi","v","4","html-keyboard-response","908","v","basi","true","",""
"1088","","","","","4","html-slider-response","909","","","","4",""
"27005","pudding","abug,aibu,mpishi,iring","aibu","v","4","html-keyboard-response","910","f","abug","false","",""
"1546","","","","","4","html-slider-response","911","","","","1",""
"3889","human","bado,kikapu,tinapay,punguza","tinapay","j","4","html-keyboard-response","912","j","tinapay","true","",""
"1080","","","","","4","html-slider-response","913","","","","5",""
"37516","squirrel","mahugaw,ukweli,kichwa,hofu","hofu","n","4","html-keyboard-response","914","n","hofu","true","",""
"1321","","","","","4","html-slider-response","915","","","","1",""
"17863","park","bunifu,tambok,pwani,ihalas","bunifu","f","4","html-keyboard-response","916","v","tambok","false","",""
"902","","","","","4","html-slider-response","917","","","","2",""
"26531","poster","nchi,fedha,madungog,kasuko","madungog","j","4","html-keyboard-response","918","j","madungog","true","",""
"1040","","","","","4","html-slider-response","919","","","","2",""
"10107","wolf","kaburi,lugha,ndizi,mchuzi","lugha","v","4","html-keyboard-response","920","v","lugha","true","",""
"2134","","","","","4","html-slider-response","921","","","","5",""
"11933","cat","neyemba,baki,akili,paghukom","paghukom","n","4","html-keyboard-response","922","n","paghukom","true","",""
"1577","","","","","4","html-slider-response","923","","","","2",""
"15199","fish","bala,baho,imani,buli","buli","n","4","html-keyboard-response","924","n","buli","true","",""
"1123","","","","","4","html-slider-response","925","","","","1",""
"12123","tooth","kabalaka,kijiko,uadui,pahiyum","kabalaka","f","4","html-keyboard-response","926","f","kabalaka","true","",""
"1978","","","","","4","html-slider-response","927","","","","1",""
"22971","cave","kesho,ganti,maisha,nyundo","kesho","f","4","html-keyboard-response","928","j","maisha","false","",""
"1546","","","","","4","html-slider-response","929","","","","4",""
"4208","lamp","daub,afya,bilaska,mbolea","afya","v","4","html-keyboard-response","930","f","daub","false","",""
"1062","","","","","4","html-slider-response","931","","","","1",""
"3217","banana","kasamok,kazi,hagdan,twai","kazi","v","4","html-keyboard-response","932","j","hagdan","false","",""
"951","","","","","4","html-slider-response","933","","","","1",""
"22987","bonfire","mwezi,goti,mfuko,kusanya","goti","v","4","html-keyboard-response","934","n","kusanya","false","",""
"929","","","","","4","html-slider-response","935","","","","2",""
"28557","cop","bustani,jikoni,bakus,mechezo","mechezo","n","4","html-keyboard-response","936","n","mechezo","true","",""
"1029","","","","","4","html-slider-response","937","","","","5",""
"35553","marker","maji,mapafu,salita,atay","maji","f","4","html-keyboard-response","938","f","maji","true","",""
"974","","","","","4","html-slider-response","939","","","","2",""
"19359","window","nanga,kujenga,kweli,umaga","kweli","j","4","html-keyboard-response","940","j","kweli","true","",""
"978","","","","","4","html-slider-response","941","","","","4",""
"20968","body","nyundu,jibini,kununa,tindashan","tindashan","n","4","html-keyboard-response","942","n","tindashan","true","",""
"1989","","","","","4","html-slider-response","943","","","","1",""
"8637","apple","ukame,kisu,estante,edad","kisu","v","4","html-keyboard-response","944","n","edad","false","",""
"1115","","","","","4","html-slider-response","945","","","","5",""
"3301","salmon","sensilyo,mzungu,seri,baharia","sensilyo","f","4","html-keyboard-response","946","f","sensilyo","true","",""
"1015","","","","","4","html-slider-response","947","","","","5",""
"31760","bed","kalipay,haraka,mapintas,starehe","mapintas","j","4","html-keyboard-response","948","f","kalipay","false","",""
"1533","","","","","4","html-slider-response","949","","","","1",""
"23595","berry","abogado,kofia,nogozi,kinywa","kofia","v","4","html-keyboard-response","950","j","nogozi","false","",""
"1350","","","","","4","html-slider-response","951","","","","1",""
"5184","mirror","rangi,kanding,sulagma,furaha","sulagma","j","4","html-keyboard-response","952","n","furaha","false","",""
"1034","","","","","4","html-slider-response","953","","","","4",""
"24726","flag","trekta,ndege,mkate,kawa","trekta","f","4","html-keyboard-response","954","f","trekta","true","",""
"1711","","","","","4","html-slider-response","955","","","","2",""
"24486","shoulder","kelele,ndaniya,mkuu,guruwe","mkuu","j","4","html-keyboard-response","956","j","mkuu","true","",""
"1113","","","","","4","html-slider-response","957","","","","1",""
"33922","tissue","lamigas,ugomvi,kisiwa,katika","ugomvi","v","4","html-keyboard-response","958","f","lamigas","false","",""
"1795","","","","","4","html-slider-response","959","","","","2",""
"4649","notebook","msitu,kemia,kila,mdudu","kemia","v","4","html-keyboard-response","960","n","mdudu","false","",""
"987","","","","","4","html-slider-response","961","","","","1",""
"11638","snake","jansa,pagtukod,karon,mvringo","pagtukod","v","4","html-keyboard-response","962","v","pagtukod","true","",""
"1042","","","","","4","html-slider-response","963","","","","5",""
"5290","finger","simu,moyo,sufuria,lima","moyo","v","4","html-keyboard-response","964","v","moyo","true","",""
"1020","","","","","4","html-slider-response","965","","","","5",""
"6707","basket","kumba,kumbuka,utepe,hasira","kumba","f","4","html-keyboard-response","966","v","kumbuka","false","",""
"1000","","","","","4","html-slider-response","967","","","","1",""
"33112","curtain","lisud,mchanga,bulwawan,chubani","mchanga","v","4","html-keyboard-response","968","v","mchanga","true","",""
"1069","","","","","4","html-slider-response","969","","","","1",""
"8217","perfume","bino,sungura,katuyoan,ndogo","katuyoan","j","4","html-keyboard-response","970","j","katuyoan","true","",""
"1088","","","","","4","html-slider-response","971","","","","5",""
"2804","key","chombo,miaka,goma,ahos","chombo","f","4","html-keyboard-response","972","f","chombo","true","",""
"774","","","","","4","html-slider-response","973","","","","5",""
"4634","olive","bata,siagi,welder,jiwe","jiwe","n","4","html-keyboard-response","974","n","jiwe","true","",""
"780","","","","","4","html-slider-response","975","","","","5",""
"6052","rose","singizi,mwanake,paghalad,amani","paghalad","j","4","html-keyboard-response","976","v","mwanake","false","",""
"1226","","","","","4","html-slider-response","977","","","","2",""
"6810","bridge","daima,sahani,ngono,panya","sahani","v","4","html-keyboard-response","978","n","panya","false","",""
"847","","","","","4","html-slider-response","979","","","","4",""
"7740","hill","kushoto,kukimba,matumbo,sweta","matumbo","j","4","html-keyboard-response","980","v","kukimba","false","",""
"1552","","","","","4","html-slider-response","981","","","","1",""
"16884","letter","filimbi,kifua,chuma,uhuru","kifua","v","4","html-keyboard-response","982","n","uhuru","false","",""
"1538","","","","","4","html-slider-response","983","","","","5",""
"30915","sock","ndoora,mamba,kimysa,mtirka","mamba","v","4","html-keyboard-response","984","n","mtirka","false","",""
"1305","","","","","4","html-slider-response","985","","","","1",""
"14471","fork","mgonjwa,baboy,paghago,gorisi","mgonjwa","f","4","html-keyboard-response","986","f","mgonjwa","true","",""
"1271","","","","","4","html-slider-response","987","","","","5",""
"16719","box","kuacha,rafiki,kitande,adui","adui","n","4","html-keyboard-response","988","n","adui","true","",""
"1050","","","","","4","html-slider-response","989","","","","1",""
"9285","gift","baba,pagtawag,nyange,baso","pagtawag","v","4","html-keyboard-response","990","n","baso","false","",""
"853","","","","","4","html-slider-response","991","","","","2",""
"4303","bucket","baga,kiatu,ijayo,init","kiatu","v","4","html-keyboard-response","992","v","kiatu","true","",""
"972","","","","","4","html-slider-response","993","","","","4",""
"10250","shop","nopya,samaki,kerida,ndezu","samaki","v","4","html-keyboard-response","994","v","samaki","true","",""
"1611","","","","","4","html-slider-response","995","","","","5",""
"3081","puppet","napulo,lamok,godoro,mazishi","mazishi","n","4","html-keyboard-response","996","n","mazishi","true","",""
"2865","","","","","4","html-slider-response","997","","","","5",""
"8182","nose","gubat,kopa,kidole,sehemu","sehemu","n","4","html-keyboard-response","998","j","kidole","false","",""
"1095","","","","","4","html-slider-response","999","","","","2",""
"25464","music","mraba,mageho,baiski,tumbo","baiski","j","4","html-keyboard-response","1000","n","tumbo","false","",""
"1038","","","","","4","html-slider-response","1001","","","","2",""
"7129","dog","lubi,washia,bahari,kalamu","bahari","j","4","html-keyboard-response","1002","j","bahari","true","",""
"1007","","","","","4","html-slider-response","1003","","","","5",""
"16268","eel","ishara,kunywa,kabuang,msumari","msumari","n","4","html-keyboard-response","1004","n","msumari","true","",""
"1627","","","","","4","html-slider-response","1005","","","","4",""
"4734","number","mundamo,shule,kengele,choori","mundamo","f","4","html-keyboard-response","1006","f","mundamo","true","",""
"1580","","","","","4","html-slider-response","1007","","","","5",""
"40737","tomato","chupi,chupa,mvua,takatak","mvua","j","4","html-keyboard-response","1008","j","mvua","true","",""
"1971","","","","","4","html-slider-response","1009","","","","1",""
"9939","coffin","kioo,barua,tubag,hulma","kioo","f","4","html-keyboard-response","1010","f","kioo","true","",""
"2184","","","","","4","html-slider-response","1011","","","","5",""
"8345","knee","mvuke,kubale,bili,duka","duka","n","4","html-keyboard-response","1012","j","bili","false","",""
"1504","","","","","4","html-slider-response","1013","","","","5",""
"2212","woman","bandari,bituin,kovuli,pagtabon","pagtabon","n","4","html-keyboard-response","1014","n","pagtabon","true","",""
"1231","","","","","4","html-slider-response","1015","","","","5",""
"11877","stone","ulimwengu,mkasi,asili,wingi","wingi","n","4","html-keyboard-response","1016","v","mkasi","false","",""
"937","","","","","4","html-slider-response","1017","","","","1",""
"5864","bread","kaili,dari,dizeli,bugas","dari","v","4","html-keyboard-response","1018","v","dari","true","",""
"851","","","","","4","html-slider-response","1019","","","","4",""
"5103","triangle","kihozi,kasadpan,bentaha,liog","kasadpan","v","4","html-keyboard-response","1020","v","kasadpan","true","",""
"1080","","","","","4","html-slider-response","1021","","","","5",""
"11680","scissors","duga,tanuri,mtawa,suga","tanuri","v","4","html-keyboard-response","1022","n","suga","false","",""
"793","","","","","4","html-slider-response","1023","","","","2",""
"13661","giraffe","daraja,mahitabo,jumatu,hangyo","mahitabo","v","4","html-keyboard-response","1024","n","hangyo","false","",""
"1233","","","","","4","html-slider-response","1025","","","","1",""
"7532","flower","tamasha,bega,lobo,usiku","bega","v","4","html-keyboard-response","1026","v","bega","true","",""
"991","","","","","4","html-slider-response","1027","","","","5",""
"5234","candle","gabi,farasi,kupanda,geza","geza","n","4","html-keyboard-response","1028","n","geza","true","",""
"958","","","","","4","html-slider-response","1029","","","","5",""
"3455","mother","kahawa,mbuzi,jokofu,babaye","babaye","n","4","html-keyboard-response","1030","n","babaye","true","",""
"933","","","","","4","html-slider-response","1031","","","","5",""
"3846","towel","pagpalit,tembo,funzi,pito","pagpalit","f","4","html-keyboard-response","1032","f","pagpalit","true","",""
"1002","","","","","4","html-slider-response","1033","","","","5",""
"5953","elephant","petye,kito,pagduol,suka","kito","v","4","html-keyboard-response","1034","j","pagduol","false","",""
"968","","","","","4","html-slider-response","1035","","","","5",""
"5521","shelf","bungtod,kadaot,awit,pamahaw","pamahaw","n","4","html-keyboard-response","1036","v","kadaot","false","",""
"925","","","","","4","html-slider-response","1037","","","","1",""
"4764","mosquito","isda,martilyo,taras,gutom","martilyo","v","4","html-keyboard-response","1038","v","martilyo","true","",""
"1577","","","","","4","html-slider-response","1039","","","","4",""
"7127","column","ufagio,pundok,dila,pala","ufagio","f","4","html-keyboard-response","1040","v","pundok","false","",""
"1439","","","","","4","html-slider-response","1041","","","","5",""
"7421","pants","pintal,chuki,hari,haki","haki","n","4","html-keyboard-response","1042","n","haki","true","",""
"807","","","","","4","html-slider-response","1043","","","","2",""
"4450","list","wingu,alizeti,kuzama,kaso","wingu","f","4","html-keyboard-response","1044","n","kaso","false","",""
"823","","","","","4","html-slider-response","1045","","","","5",""
"3817","bank","kudhibi,silingan,tualya,ofisi","silingan","v","4","html-keyboard-response","1046","f","kudhibi","false","",""
"1111","","","","","4","html-slider-response","1047","","","","1",""
"17211","clock","kartasi,abang,mbwa,osha","mbwa","j","4","html-keyboard-response","1048","f","kartasi","false","",""
"1044","","","","","4","html-slider-response","1049","","","","1",""
"10461","ceiling","kugita,maua,kawaida,rayna","maua","v","4","html-keyboard-response","1050","j","kawaida","false","",""
"876","","","","","4","html-slider-response","1051","","","","2",""
"3817","train","itik,sayari,dakika,mungu","sayari","v","4","html-keyboard-response","1052","v","sayari","true","",""
"857","","","","","4","html-slider-response","1053","","","","5",""
"5984","magazine","gundi,kiti,mchawi,bahandi","kiti","v","4","html-keyboard-response","1054","n","bahandi","false","",""
"929","","","","","4","html-slider-response","1055","","","","2",""
"2073","office","hazini,yatima,kuna,leso","leso","n","4","html-keyboard-response","1056","n","leso","true","",""
"2079","","","","","4","html-slider-response","1057","","","","5",""
"6580","wheel","bafuni,punda,tawo,baadaye","bafuni","f","4","html-keyboard-response","1058","v","punda","false","",""
"1038","","","","","4","html-slider-response","1059","","","","1",""
"7301","spoon","betri,nzuri,ngazi,pagsulod","pagsulod","n","4","html-keyboard-response","1060","n","pagsulod","true","",""
"856","","","","","4","html-slider-response","1061","","","","1",""
"6825","hammer","mekno,napakyas,kitovu,layag","napakyas","v","4","html-keyboard-response","1062","v","napakyas","true","",""
"1233","","","","","4","html-slider-response","1063","","","","5",""
"8720","cigar","ndugu,adhabu,kuta,mlango","adhabu","v","4","html-keyboard-response","1064","v","adhabu","true","",""
"1122","","","","","4","html-slider-response","1065","","","","2",""
"5293","shoe","nyeusi,hatua,kama,uyoga","uyoga","n","4","html-keyboard-response","1066","j","kama","false","",""
"1580","","","","","4","html-slider-response","1067","","","","1",""
"8081","list","alizeti,kuzama,wingu,kaso","wingu","j","5","html-keyboard-response","1069","n","kaso","false","",""
"1118","","","","","5","html-slider-response","1070","","","","5",""
"2036","number","shule,kengele,choori,mundamo","mundamo","n","5","html-keyboard-response","1071","n","mundamo","true","",""
"819","","","","","5","html-slider-response","1072","","","","5",""
"4062","apple","ukame,kisu,estante,edad","kisu","v","5","html-keyboard-response","1073","n","edad","false","",""
"1083","","","","","5","html-slider-response","1074","","","","5",""
"6265","knee","mvuke,duka,kubale,bili","duka","v","5","html-keyboard-response","1075","n","bili","false","",""
"1074","","","","","5","html-slider-response","1076","","","","5",""
"3961","tooth","kijiko,kabalaka,uadui,pahiyum","kabalaka","v","5","html-keyboard-response","1077","v","kabalaka","true","",""
"1476","","","","","5","html-slider-response","1078","","","","1",""
"13005","berry","abogado,kofia,nogozi,kinywa","kofia","v","5","html-keyboard-response","1079","v","kofia","true","",""
"878","","","","","5","html-slider-response","1080","","","","4",""
"5685","bridge","daima,sahani,ngono,panya","sahani","v","5","html-keyboard-response","1081","n","panya","false","",""
"806","","","","","5","html-slider-response","1082","","","","2",""
"9081","perfume","bino,katuyoan,sungura,ndogo","katuyoan","v","5","html-keyboard-response","1083","v","katuyoan","true","",""
"916","","","","","5","html-slider-response","1084","","","","5",""
"5881","ladder","pangalan,mashua,mwanga,kamba","pangalan","f","5","html-keyboard-response","1085","n","kamba","false","",""
"841","","","","","5","html-slider-response","1086","","","","5",""
"5141","pants","pintal,chuki,hari,haki","haki","n","5","html-keyboard-response","1087","v","chuki","false","",""
"1653","","","","","5","html-slider-response","1088","","","","1",""
"6201","salmon","mzungu,seri,baharia,sensilyo","sensilyo","n","5","html-keyboard-response","1089","n","sensilyo","true","",""
"795","","","","","5","html-slider-response","1090","","","","5",""
"7219","coffin","kioo,barua,tubag,hulma","kioo","f","5","html-keyboard-response","1091","f","kioo","true","",""
"889","","","","","5","html-slider-response","1092","","","","5",""
"6591","park","tambok,bunifu,pwani,ihalas","bunifu","v","5","html-keyboard-response","1093","f","tambok","false","",""
"763","","","","","5","html-slider-response","1094","","","","1",""
"6375","giraffe","daraja,mahitabo,jumatu,hangyo","mahitabo","v","5","html-keyboard-response","1095","n","hangyo","false","",""
"1485","","","","","5","html-slider-response","1096","","","","5",""
"13120","mirror","rangi,kanding,sulagma,furaha","sulagma","j","5","html-keyboard-response","1097","v","kanding","false","",""
"883","","","","","5","html-slider-response","1098","","","","1",""
"5895","ceiling","kugita,kawaida,rayna,maua","maua","n","5","html-keyboard-response","1099","n","maua","true","",""
"935","","","","","5","html-slider-response","1100","","","","1",""
"3172","marker","mapafu,maji,salita,atay","maji","v","5","html-keyboard-response","1101","v","maji","true","",""
"883","","","","","5","html-slider-response","1102","","","","5",""
"12222","sock","ndoora,kimysa,mtirka,mamba","mamba","n","5","html-keyboard-response","1103","n","mamba","true","",""
"1050","","","","","5","html-slider-response","1104","","","","2",""
"3088","cop","bustani,mechezo,jikoni,bakus","mechezo","v","5","html-keyboard-response","1105","v","mechezo","true","",""
"1223","","","","","5","html-slider-response","1106","","","","5",""
"7083","gift","baba,pagtawag,nyange,baso","pagtawag","v","5","html-keyboard-response","1107","n","baso","false","",""
"1438","","","","","5","html-slider-response","1108","","","","5",""
"20052","notebook","msitu,kemia,kila,mdudu","kemia","v","5","html-keyboard-response","1109","v","kemia","true","",""
"794","","","","","5","html-slider-response","1110","","","","2",""
"7669","bank","silingan,kudhibi,tualya,ofisi","silingan","f","5","html-keyboard-response","1111","n","ofisi","false","",""
"1021","","","","","5","html-slider-response","1112","","","","1",""
"40686","letter","filimbi,kifua,chuma,uhuru","kifua","v","5","html-keyboard-response","1113","v","kifua","true","",""
"1539","","","","","5","html-slider-response","1114","","","","1",""
"4033","candle","gabi,farasi,kupanda,geza","geza","n","5","html-keyboard-response","1115","n","geza","true","",""
"1046","","","","","5","html-slider-response","1116","","","","5",""
"5062","bread","kaili,dizeli,dari,bugas","dari","j","5","html-keyboard-response","1117","v","dizeli","false","",""
"809","","","","","5","html-slider-response","1118","","","","2",""
"21627","snake","jansa,karon,mvringo,pagtukod","pagtukod","n","5","html-keyboard-response","1119","n","pagtukod","true","",""
"1368","","","","","5","html-slider-response","1120","","","","5",""
"11950","rose","singizi,mwanake,amani,paghalad","paghalad","n","5","html-keyboard-response","1121","f","singizi","false","",""
"1296","","","","","5","html-slider-response","1122","","","","1",""
"20045","hill","matumbo,kushoto,kukimba,sweta","matumbo","f","5","html-keyboard-response","1123","j","kukimba","false","",""
"1350","","","","","5","html-slider-response","1124","","","","2",""
"3102","train","itik,dakika,mungu,sayari","sayari","n","5","html-keyboard-response","1125","n","sayari","true","",""
"986","","","","","5","html-slider-response","1126","","","","5",""
"3727","shop","nopya,samaki,kerida,ndezu","samaki","v","5","html-keyboard-response","1127","v","samaki","true","",""
"1025","","","","","5","html-slider-response","1128","","","","5",""
"6678","nose","sehemu,gubat,kopa,kidole","sehemu","f","5","html-keyboard-response","1129","n","kidole","false","",""
"1567","","","","","5","html-slider-response","1130","","","","1",""
"8274","boat","agalon,hamsi,pombe,kitanda","agalon","f","5","html-keyboard-response","1131","f","agalon","true","",""
"947","","","","","5","html-slider-response","1132","","","","4",""
"21294","body","tindashan,nyundu,jibini,kununa","tindashan","f","5","html-keyboard-response","1133","f","tindashan","true","",""
"1978","","","","","5","html-slider-response","1134","","","","1",""
"6736","bed","kalipay,mapintas,haraka,starehe","mapintas","v","5","html-keyboard-response","1135","v","mapintas","true","",""
"1346","","","","","5","html-slider-response","1136","","","","1",""
"3429","squirrel","mahugaw,hofu,ukweli,kichwa","hofu","v","5","html-keyboard-response","1137","v","hofu","true","",""
"1354","","","","","5","html-slider-response","1138","","","","5",""
"25007","window","nanga,kujenga,umaga,kweli","kweli","n","5","html-keyboard-response","1139","v","kujenga","false","",""
"1223","","","","","5","html-slider-response","1140","","","","2",""
"6427","bonfire","mwezi,mfuko,goti,kusanya","goti","j","5","html-keyboard-response","1141","n","kusanya","false","",""
"866","","","","","5","html-slider-response","1142","","","","1",""
"5717","fish","bala,baho,imani,buli","buli","n","5","html-keyboard-response","1143","n","buli","true","",""
"1023","","","","","5","html-slider-response","1144","","","","5",""
"4094","cat","neyemba,baki,paghukom,akili","paghukom","j","5","html-keyboard-response","1145","j","paghukom","true","",""
"1703","","","","","5","html-slider-response","1146","","","","5",""
"11735","spider","bunyag,mkboa,atop,kamwe","kamwe","n","5","html-keyboard-response","1147","n","kamwe","true","",""
"1596","","","","","5","html-slider-response","1148","","","","5",""
"15666","eel","ishara,kunywa,msumari,kabuang","msumari","j","5","html-keyboard-response","1149","j","msumari","true","",""
"1456","","","","","5","html-slider-response","1150","","","","4",""
"2462","woman","pagtabon,bandari,bituin,kovuli","pagtabon","f","5","html-keyboard-response","1151","f","pagtabon","true","",""
"950","","","","","5","html-slider-response","1152","","","","5",""
"9247","magazine","kiti,gundi,mchawi,bahandi","kiti","f","5","html-keyboard-response","1153","f","kiti","true","",""
"1452","","","","","5","html-slider-response","1154","","","","4",""
"14625","pudding","aibu,abug,mpishi,iring","aibu","f","5","html-keyboard-response","1155","f","aibu","true","",""
"1025","","","","","5","html-slider-response","1156","","","","1",""
"13936","lamp","daub,bilaska,afya,mbolea","afya","j","5","html-keyboard-response","1157","j","afya","true","",""
"1604","","","","","5","html-slider-response","1158","","","","1",""
"13796","cave","ganti,maisha,kesho,nyundo","kesho","j","5","html-keyboard-response","1159","j","kesho","true","",""
"920","","","","","5","html-slider-response","1160","","","","4",""
"19134","shoulder","kelele,mkuu,ndaniya,guruwe","mkuu","v","5","html-keyboard-response","1161","v","mkuu","true","",""
"854","","","","","5","html-slider-response","1162","","","","2",""
"30803","stone","ulimwengu,wingi,mkasi,asili","wingi","v","5","html-keyboard-response","1163","v","wingi","true","",""
"1089","","","","","5","html-slider-response","1164","","","","4",""
"19165","column","pundok,dila,pala,ufagio","ufagio","n","5","html-keyboard-response","1165","n","ufagio","true","",""
"1143","","","","","5","html-slider-response","1166","","","","1",""
"10590","page","wakala,wimbo,ishiri,skina","wimbo","v","5","html-keyboard-response","1167","v","wimbo","true","",""
"997","","","","","5","html-slider-response","1168","","","","1",""
"12057","shoe","uyoga,nyeusi,hatua,kama","uyoga","f","5","html-keyboard-response","1169","v","nyeusi","false","",""
"1005","","","","","5","html-slider-response","1170","","","","2",""
"12154","clock","kartasi,abang,mbwa,osha","mbwa","j","5","html-keyboard-response","1171","j","mbwa","true","",""
"1993","","","","","5","html-slider-response","1172","","","","5",""
"7069","towel","tembo,pagpalit,funzi,pito","pagpalit","v","5","html-keyboard-response","1173","v","pagpalit","true","",""
"1666","","","","","5","html-slider-response","1174","","","","5",""
"26459","tomato","chupi,chupa,mvua,takatak","mvua","j","5","html-keyboard-response","1175","n","takatak","false","",""
"1110","","","","","5","html-slider-response","1176","","","","2",""
"5922","bucket","baga,ijayo,kiatu,init","kiatu","j","5","html-keyboard-response","1177","j","kiatu","true","",""
"1594","","","","","5","html-slider-response","1178","","","","5",""
"5177","finger","simu,sufuria,lima,moyo","moyo","n","5","html-keyboard-response","1179","n","moyo","true","",""
"1366","","","","","5","html-slider-response","1180","","","","5",""
"2557","mother","kahawa,mbuzi,babaye,jokofu","babaye","j","5","html-keyboard-response","1181","j","babaye","true","",""
"1066","","","","","5","html-slider-response","1182","","","","5",""
"4406","human","tinapay,bado,kikapu,punguza","tinapay","f","5","html-keyboard-response","1183","f","tinapay","true","",""
"1237","","","","","5","html-slider-response","1184","","","","5",""
"5285","sun","bendi,basi,luha,uongo","basi","v","5","html-keyboard-response","1185","v","basi","true","",""
"1121","","","","","5","html-slider-response","1186","","","","5",""
"4905","fork","baboy,paghago,mgonjwa,gorisi","mgonjwa","j","5","html-keyboard-response","1187","v","paghago","false","",""
"945","","","","","5","html-slider-response","1188","","","","2",""
"2842","donkey","bloke,elfu,lalake,rombus","elfu","v","5","html-keyboard-response","1189","v","elfu","true","",""
"1240","","","","","5","html-slider-response","1190","","","","5",""
"31565","wolf","lugha,kaburi,ndizi,mchuzi","lugha","f","5","html-keyboard-response","1191","f","lugha","true","",""
"1045","","","","","5","html-slider-response","1192","","","","4",""
"10913","cigar","ndugu,kuta,mlango,adhabu","adhabu","n","5","html-keyboard-response","1193","n","adhabu","true","",""
"1445","","","","","5","html-slider-response","1194","","","","2",""
"6439","olive","bata,siagi,jiwe,welder","jiwe","j","5","html-keyboard-response","1195","j","jiwe","true","",""
"974","","","","","5","html-slider-response","1196","","","","5",""
"2401","key","chombo,miaka,goma,ahos","chombo","f","5","html-keyboard-response","1197","f","chombo","true","",""
"1531","","","","","5","html-slider-response","1198","","","","5",""
"6258","door","tena,surali,soko,nyota","surali","v","5","html-keyboard-response","1199","v","surali","true","",""
"1887","","","","","5","html-slider-response","1200","","","","1",""
"5499","wheel","punda,tawo,baadaye,bafuni","bafuni","n","5","html-keyboard-response","1201","f","punda","false","",""
"1103","","","","","5","html-slider-response","1202","","","","4",""
"3918","basket","kumba,kumbuka,utepe,hasira","kumba","f","5","html-keyboard-response","1203","v","kumbuka","false","",""
"1252","","","","","5","html-slider-response","1204","","","","1",""
"5577","elephant","petye,pagduol,suka,kito","kito","n","5","html-keyboard-response","1205","v","pagduol","false","",""
"1190","","","","","5","html-slider-response","1206","","","","5",""
"2616","office","hazini,yatima,leso,kuna","leso","j","5","html-keyboard-response","1207","j","leso","true","",""
"1066","","","","","5","html-slider-response","1208","","","","5",""
"5360","music","mraba,baiski,mageho,tumbo","baiski","v","5","html-keyboard-response","1209","n","tumbo","false","",""
"1120","","","","","5","html-slider-response","1210","","","","1",""
"19643","tissue","lamigas,ugomvi,kisiwa,katika","ugomvi","v","5","html-keyboard-response","1211","f","lamigas","false","",""
"1751","","","","","5","html-slider-response","1212","","","","1",""
"5111","curtain","lisud,mchanga,bulwawan,chubani","mchanga","v","5","html-keyboard-response","1213","v","mchanga","true","",""
"1491","","","","","5","html-slider-response","1214","","","","5",""
"27330","flag","ndege,mkate,kawa,trekta","trekta","n","5","html-keyboard-response","1215","j","kawa","false","",""
"1665","","","","","5","html-slider-response","1216","","","","2",""
"11510","dog","lubi,washia,kalamu,bahari","bahari","n","5","html-keyboard-response","1217","n","bahari","true","",""
"1212","","","","","5","html-slider-response","1218","","","","5",""
"15664","cup","matumai,dagat,shimoni,jeraha","matumai","f","5","html-keyboard-response","1219","f","matumai","true","",""
"1120","","","","","5","html-slider-response","1220","","","","1",""
"4112","sheet","juuya,watu,kamantis,bililhon","bililhon","n","5","html-keyboard-response","1221","j","kamantis","false","",""
"962","","","","","5","html-slider-response","1222","","","","2",""
"4748","spoon","betri,nzuri,pagsulod,ngazi","pagsulod","j","5","html-keyboard-response","1223","j","pagsulod","true","",""
"1032","","","","","5","html-slider-response","1224","","","","5",""
"3616","flower","tamasha,lobo,usiku,bega","bega","n","5","html-keyboard-response","1225","v","lobo","false","",""
"1332","","","","","5","html-slider-response","1226","","","","5",""
"4979","picture","silya,kubwa,chaki,asin","kubwa","v","5","html-keyboard-response","1227","v","kubwa","true","",""
"1508","","","","","5","html-slider-response","1228","","","","5",""
"2131","puppet","napulo,lamok,mazishi,godoro","mazishi","j","5","html-keyboard-response","1229","j","mazishi","true","",""
"1434","","","","","5","html-slider-response","1230","","","","5",""
"6629","banana","kasamok,kazi,hagdan,twai","kazi","v","5","html-keyboard-response","1231","f","kasamok","false","",""
"1409","","","","","5","html-slider-response","1232","","","","2",""
"6272","book","mali,kuhesa,picha,mara","mali","f","5","html-keyboard-response","1233","n","mara","false","",""
"1143","","","","","5","html-slider-response","1234","","","","5",""
"10525","triangle","kihozi,bentaha,liog,kasadpan","kasadpan","n","5","html-keyboard-response","1235","n","kasadpan","true","",""
"1081","","","","","5","html-slider-response","1236","","","","5",""
"14397","poster","nchi,madungog,fedha,kasuko","madungog","v","5","html-keyboard-response","1237","n","kasuko","false","",""
"1314","","","","","5","html-slider-response","1238","","","","2",""
"7018","box","kuacha,rafiki,adui,kitande","adui","j","5","html-keyboard-response","1239","j","adui","true","",""
"1309","","","","","5","html-slider-response","1240","","","","5",""
"2752","mosquito","isda,taras,martilyo,gutom","martilyo","j","5","html-keyboard-response","1241","j","martilyo","true","",""
"1259","","","","","5","html-slider-response","1242","","","","5",""
"4382","shelf","bungtod,pamahaw,kadaot,awit","pamahaw","v","5","html-keyboard-response","1243","v","pamahaw","true","",""
"1166","","","","","5","html-slider-response","1244","","","","5",""
"11517","scissors","duga,tanuri,mtawa,suga","tanuri","v","5","html-keyboard-response","1245","v","tanuri","true","",""
"2315","","","","","5","html-slider-response","1246","","","","1",""
"6469","hammer","napakyas,mekno,kitovu,layag","napakyas","f","5","html-keyboard-response","1247","f","napakyas","true","",""
"1130","","","","","5","html-slider-response","1248","","","","4",""
