"rt","en_word","options","swa_word","correct_answer","phase","trial_type","trial_index","input_answer","input_word","accuracy","certainty","amt_choices"
"26968","bonfire","mwezi,goti,mfuko,kusanya","goti","v","2","html-keyboard-response","106","j","mfuko","false","",""
"3435.0999999999767","","","","","2","html-slider-response","107","","","","1",""
"32301","flower","tamasha,lobo,usiku,bega","bega","n","2","html-keyboard-response","108","v","lobo","false","",""
"2141.600000000093","","","","","2","html-slider-response","109","","","","1",""
"114748","column","ufagio,pundok,dila,pala","ufagio","f","2","html-keyboard-response","110","n","pala","false","",""
"1840.3000000000466","","","","","2","html-slider-response","111","","","","1",""
"48708","music","mraba,mageho,baiski,tumbo","baiski","j","2","html-keyboard-response","112","j","baiski","true","",""
"4210.09999999986","","","","","2","html-slider-response","113","","","","3",""
"7810","spider","bunyag,mkboa,atop,kamwe","kamwe","n","2","html-keyboard-response","114","n","kamwe","true","",""
"2649.0999999998603","","","","","2","html-slider-response","115","","","","5",""
"26996","fork","mgonjwa,baboy,paghago,gorisi","mgonjwa","f","2","html-keyboard-response","116","n","gorisi","false","",""
"2143.600000000093","","","","","2","html-slider-response","117","","","","2",""
"15968","mosquito","isda,taras,gutom,martilyo","martilyo","n","2","html-keyboard-response","118","n","martilyo","true","",""
"2124","","","","","2","html-slider-response","119","","","","4",""
"46346","banana","kasamok,kazi,hagdan,twai","kazi","v","2","html-keyboard-response","120","f","kasamok","false","",""
"2587.0999999998603","","","","","2","html-slider-response","121","","","","2",""
"4437","cup","dagat,shimoni,matumai,jeraha","matumai","j","2","html-keyboard-response","122","f","dagat","false","",""
"1492.5","","","","","2","html-slider-response","123","","","","2",""
"5449","shop","nopya,kerida,samaki,ndezu","samaki","j","2","html-keyboard-response","124","v","kerida","false","",""
"2347.3000000000466","","","","","2","html-slider-response","125","","","","1",""
"5235","elephant","kito,petye,pagduol,suka","kito","f","2","html-keyboard-response","126","v","petye","false","",""
"2312.5","","","","","2","html-slider-response","127","","","","2",""
"4145","bucket","baga,ijayo,kiatu,init","kiatu","j","2","html-keyboard-response","128","f","baga","false","",""
"2161","","","","","2","html-slider-response","129","","","","2",""
"9934","book","kuhesa,mali,picha,mara","mali","v","2","html-keyboard-response","130","j","picha","false","",""
"4574.600000000093","","","","","2","html-slider-response","131","","","","2",""
"4978","mirror","sulagma,rangi,kanding,furaha","sulagma","f","2","html-keyboard-response","132","f","sulagma","true","",""
"2212.100000000093","","","","","2","html-slider-response","133","","","","2",""
"2172","office","hazini,leso,yatima,kuna","leso","v","2","html-keyboard-response","134","v","leso","true","",""
"1369.6999999999534","","","","","2","html-slider-response","135","","","","5",""
"3072","body","tindashan,nyundu,jibini,kununa","tindashan","f","2","html-keyboard-response","136","v","nyundu","false","",""
"1924.6999999999534","","","","","2","html-slider-response","137","","","","2",""
"5913","perfume","bino,sungura,katuyoan,ndogo","katuyoan","j","2","html-keyboard-response","138","j","katuyoan","true","",""
"2739.4000000001397","","","","","2","html-slider-response","139","","","","3",""
"4729","olive","bata,jiwe,siagi,welder","jiwe","v","2","html-keyboard-response","140","v","jiwe","true","",""
"1883.4000000001397","","","","","2","html-slider-response","141","","","","5",""
"5306","magazine","gundi,mchawi,kiti,bahandi","kiti","j","2","html-keyboard-response","142","j","kiti","true","",""
"3650.5","","","","","2","html-slider-response","143","","","","4",""
"4677","bread","dari,kaili,dizeli,bugas","dari","f","2","html-keyboard-response","144","f","dari","true","",""
"3268.9000000001397","","","","","2","html-slider-response","145","","","","2",""
"3659","cave","ganti,maisha,kesho,nyundo","kesho","j","2","html-keyboard-response","146","f","ganti","false","",""
"1610","","","","","2","html-slider-response","147","","","","1",""
"2908","ladder","mashua,mwanga,pangalan,kamba","pangalan","j","2","html-keyboard-response","148","n","kamba","false","",""
"1729","","","","","2","html-slider-response","149","","","","1",""
"12628","human","bado,kikapu,tinapay,punguza","tinapay","j","2","html-keyboard-response","150","n","punguza","false","",""
"1600.6999999999534","","","","","2","html-slider-response","151","","","","2",""
"4453","clock","kartasi,abang,mbwa,osha","mbwa","j","2","html-keyboard-response","152","v","abang","false","",""
"2024.5999999998603","","","","","2","html-slider-response","153","","","","1",""
"2631","shelf","bungtod,kadaot,pamahaw,awit","pamahaw","j","2","html-keyboard-response","154","j","pamahaw","true","",""
"1933.7000000001863","","","","","2","html-slider-response","155","","","","1",""
"3727","salmon","sensilyo,mzungu,seri,baharia","sensilyo","f","2","html-keyboard-response","156","j","seri","false","",""
"1436.8999999999069","","","","","2","html-slider-response","157","","","","2",""
"4185","coffin","kioo,barua,tubag,hulma","kioo","f","2","html-keyboard-response","158","v","barua","false","",""
"2444.5999999998603","","","","","2","html-slider-response","159","","","","1",""
"13280","notebook","msitu,kemia,kila,mdudu","kemia","v","2","html-keyboard-response","160","f","msitu","false","",""
"3444.3000000000466","","","","","2","html-slider-response","161","","","","1",""
"7269","shoulder","mkuu,kelele,ndaniya,guruwe","mkuu","f","2","html-keyboard-response","162","n","guruwe","false","",""
"1639.2999999998137","","","","","2","html-slider-response","163","","","","1",""
"2967","park","tambok,pwani,bunifu,ihalas","bunifu","j","2","html-keyboard-response","164","n","ihalas","false","",""
"2158.5","","","","","2","html-slider-response","165","","","","1",""
"2083","number","mundamo,shule,kengele,choori","mundamo","f","2","html-keyboard-response","166","f","mundamo","true","",""
"1705.3000000000466","","","","","2","html-slider-response","167","","","","5",""
"2516","apple","ukame,estante,edad,kisu","kisu","n","2","html-keyboard-response","168","n","kisu","true","",""
"1871.8999999999069","","","","","2","html-slider-response","169","","","","5",""
"5613","letter","filimbi,chuma,kifua,uhuru","kifua","j","2","html-keyboard-response","170","v","chuma","false","",""
"1552.6999999999534","","","","","2","html-slider-response","171","","","","1",""
"11680","eel","ishara,msumari,kunywa,kabuang","msumari","v","2","html-keyboard-response","172","v","msumari","true","",""
"2766.4000000001397","","","","","2","html-slider-response","173","","","","2",""
"5293","cop","bustani,jikoni,bakus,mechezo","mechezo","n","2","html-keyboard-response","174","n","mechezo","true","",""
"1775.6999999999534","","","","","2","html-slider-response","175","","","","1",""
"2921","wolf","lugha,kaburi,ndizi,mchuzi","lugha","f","2","html-keyboard-response","176","f","lugha","true","",""
"1418.5999999998603","","","","","2","html-slider-response","177","","","","5",""
"3106","squirrel","mahugaw,ukweli,kichwa,hofu","hofu","n","2","html-keyboard-response","178","j","kichwa","false","",""
"1538.6000000000931","","","","","2","html-slider-response","179","","","","1",""
"4747","nose","sehemu,gubat,kopa,kidole","sehemu","f","2","html-keyboard-response","180","v","gubat","false","",""
"1514.5","","","","","2","html-slider-response","181","","","","1",""
"43794","sock","ndoora,kimysa,mamba,mtirka","mamba","j","2","html-keyboard-response","182","n","mtirka","false","",""
"3682.100000000093","","","","","2","html-slider-response","183","","","","1",""
"8215","bank","kudhibi,tualya,ofisi,silingan","silingan","n","2","html-keyboard-response","184","n","silingan","true","",""
"1662.6000000000931","","","","","2","html-slider-response","185","","","","5",""
"4228","donkey","bloke,lalake,elfu,rombus","elfu","j","2","html-keyboard-response","186","j","elfu","true","",""
"3386.1999999999534","","","","","2","html-slider-response","187","","","","3",""
"4819","poster","nchi,madungog,fedha,kasuko","madungog","v","2","html-keyboard-response","188","v","madungog","true","",""
"1409.9000000001397","","","","","2","html-slider-response","189","","","","2",""
"3629","puppet","napulo,mazishi,lamok,godoro","mazishi","v","2","html-keyboard-response","190","f","napulo","false","",""
"2088.8000000000466","","","","","2","html-slider-response","191","","","","1",""
"2623","hill","kushoto,kukimba,matumbo,sweta","matumbo","j","2","html-keyboard-response","192","j","matumbo","true","",""
"1317.5","","","","","2","html-slider-response","193","","","","4",""
"4791","tooth","kijiko,kabalaka,uadui,pahiyum","kabalaka","v","2","html-keyboard-response","194","v","kabalaka","true","",""
"1839.5","","","","","2","html-slider-response","195","","","","1",""
"11490","woman","bandari,bituin,kovuli,pagtabon","pagtabon","n","2","html-keyboard-response","196","n","pagtabon","true","",""
"2892","","","","","2","html-slider-response","197","","","","4",""
"3131","wheel","punda,bafuni,tawo,baadaye","bafuni","v","2","html-keyboard-response","198","j","tawo","false","",""
"2699.1999999999534","","","","","2","html-slider-response","199","","","","1",""
"2249","mother","kahawa,mbuzi,jokofu,babaye","babaye","n","2","html-keyboard-response","200","n","babaye","true","",""
"2899.4000000001397","","","","","2","html-slider-response","201","","","","5",""
"2166","bed","mapintas,kalipay,haraka,starehe","mapintas","f","2","html-keyboard-response","202","n","starehe","false","",""
"1885.1999999999534","","","","","2","html-slider-response","203","","","","1",""
"5253","key","miaka,goma,chombo,ahos","chombo","j","2","html-keyboard-response","204","n","ahos","false","",""
"1918.3000000000466","","","","","2","html-slider-response","205","","","","1",""
"23068","page","wakala,wimbo,ishiri,skina","wimbo","v","2","html-keyboard-response","206","v","wimbo","true","",""
"1664.6000000000931","","","","","2","html-slider-response","207","","","","4",""
"5180","pants","haki,pintal,chuki,hari","haki","f","2","html-keyboard-response","208","f","haki","true","",""
"3592.3000000000466","","","","","2","html-slider-response","209","","","","3",""
"1934","sun","bendi,luha,uongo,basi","basi","n","2","html-keyboard-response","210","n","basi","true","",""
"1613.8999999999069","","","","","2","html-slider-response","211","","","","5",""
"2656","finger","simu,moyo,sufuria,lima","moyo","v","2","html-keyboard-response","212","v","moyo","true","",""
"1340","","","","","2","html-slider-response","213","","","","2",""
"5203","shoe","nyeusi,uyoga,hatua,kama","uyoga","v","2","html-keyboard-response","214","n","kama","false","",""
"1809","","","","","2","html-slider-response","215","","","","2",""
"4237","giraffe","daraja,mahitabo,jumatu,hangyo","mahitabo","v","2","html-keyboard-response","216","n","hangyo","false","",""
"1719.0999999998603","","","","","2","html-slider-response","217","","","","1",""
"5287","dog","lubi,bahari,washia,kalamu","bahari","v","2","html-keyboard-response","218","v","bahari","true","",""
"1876.3000000000466","","","","","2","html-slider-response","219","","","","3",""
"38075","box","kuacha,adui,rafiki,kitande","adui","v","2","html-keyboard-response","220","v","adui","true","",""
"7304.699999999953","","","","","2","html-slider-response","221","","","","3",""
"4177","scissors","tanuri,duga,mtawa,suga","tanuri","f","2","html-keyboard-response","222","f","tanuri","true","",""
"2537.5","","","","","2","html-slider-response","223","","","","2",""
"5832","cat","neyemba,paghukom,baki,akili","paghukom","v","2","html-keyboard-response","224","n","akili","false","",""
"2011.8999999999069","","","","","2","html-slider-response","225","","","","1",""
"3739","basket","kumbuka,utepe,kumba,hasira","kumba","j","2","html-keyboard-response","226","j","kumba","true","",""
"2505","","","","","2","html-slider-response","227","","","","1",""
"6980","snake","jansa,karon,mvringo,pagtukod","pagtukod","n","2","html-keyboard-response","228","f","jansa","false","",""
"2327.6999999999534","","","","","2","html-slider-response","229","","","","1",""
"5198","gift","baba,pagtawag,nyange,baso","pagtawag","v","2","html-keyboard-response","230","n","baso","false","",""
"2326.6999999999534","","","","","2","html-slider-response","231","","","","1",""
"3793","train","sayari,itik,dakika,mungu","sayari","f","2","html-keyboard-response","232","f","sayari","true","",""
"2115.399999999907","","","","","2","html-slider-response","233","","","","1",""
"2803","pudding","abug,mpishi,iring,aibu","aibu","n","2","html-keyboard-response","234","n","aibu","true","",""
"1849.5","","","","","2","html-slider-response","235","","","","1",""
"2574","tomato","chupi,chupa,takatak,mvua","mvua","n","2","html-keyboard-response","236","v","chupa","false","",""
"2676","","","","","2","html-slider-response","237","","","","2",""
"2683","stone","wingi,ulimwengu,mkasi,asili","wingi","f","2","html-keyboard-response","238","j","mkasi","false","",""
"2184.3000000000466","","","","","2","html-slider-response","239","","","","1",""
"2285","hammer","napakyas,mekno,kitovu,layag","napakyas","f","2","html-keyboard-response","240","j","kitovu","false","",""
"1687.3000000000466","","","","","2","html-slider-response","241","","","","2",""
"2141","knee","mvuke,kubale,bili,duka","duka","n","2","html-keyboard-response","242","n","duka","true","",""
"3070.0999999998603","","","","","2","html-slider-response","243","","","","1",""
"1643","ceiling","kugita,maua,kawaida,rayna","maua","v","2","html-keyboard-response","244","n","rayna","false","",""
"2344.9000000001397","","","","","2","html-slider-response","245","","","","1",""
"2447","spoon","betri,nzuri,ngazi,pagsulod","pagsulod","n","2","html-keyboard-response","246","v","nzuri","false","",""
"2189.2999999998137","","","","","2","html-slider-response","247","","","","2",""
"1748","marker","mapafu,salita,maji,atay","maji","j","2","html-keyboard-response","248","f","mapafu","false","",""
"1761.6000000000931","","","","","2","html-slider-response","249","","","","2",""
"2968","candle","geza,gabi,farasi,kupanda","geza","f","2","html-keyboard-response","250","j","farasi","false","",""
"2180.399999999907","","","","","2","html-slider-response","251","","","","1",""
"2446","tissue","lamigas,kisiwa,ugomvi,katika","ugomvi","j","2","html-keyboard-response","252","v","kisiwa","false","",""
"2109","","","","","2","html-slider-response","253","","","","1",""
"1729","bridge","daima,ngono,panya,sahani","sahani","n","2","html-keyboard-response","254","f","daima","false","",""
"2075","","","","","2","html-slider-response","255","","","","1",""
"2016","berry","kofia,abogado,nogozi,kinywa","kofia","f","2","html-keyboard-response","256","n","kinywa","false","",""
"2972.4000000001397","","","","","2","html-slider-response","257","","","","1",""
"4868","triangle","kihozi,bentaha,liog,kasadpan","kasadpan","n","2","html-keyboard-response","258","n","kasadpan","true","",""
"3463.899999999907","","","","","2","html-slider-response","259","","","","3",""
"2225","door","tena,soko,nyota,surali","surali","n","2","html-keyboard-response","260","v","soko","false","",""
"2155.5","","","","","2","html-slider-response","261","","","","2",""
"2970","fish","bala,baho,imani,buli","buli","n","2","html-keyboard-response","262","j","imani","false","",""
"2066","","","","","2","html-slider-response","263","","","","1",""
"2214","curtain","lisud,bulwawan,chubani,mchanga","mchanga","n","2","html-keyboard-response","264","n","mchanga","true","",""
"1909.3999999999069","","","","","2","html-slider-response","265","","","","1",""
"3506","flag","trekta,ndege,mkate,kawa","trekta","f","2","html-keyboard-response","266","n","kawa","false","",""
"1818.3000000000466","","","","","2","html-slider-response","267","","","","1",""
"2093","boat","hamsi,agalon,pombe,kitanda","agalon","v","2","html-keyboard-response","268","j","pombe","false","",""
"1751.1000000000931","","","","","2","html-slider-response","269","","","","1",""
"2712","rose","paghalad,singizi,mwanake,amani","paghalad","f","2","html-keyboard-response","270","n","amani","false","",""
"1675.7999999998137","","","","","2","html-slider-response","271","","","","2",""
"1956","lamp","afya,daub,bilaska,mbolea","afya","f","2","html-keyboard-response","272","v","daub","false","",""
"2640.4000000001397","","","","","2","html-slider-response","273","","","","1",""
"1835","cigar","ndugu,kuta,mlango,adhabu","adhabu","n","2","html-keyboard-response","274","n","adhabu","true","",""
"2185.100000000093","","","","","2","html-slider-response","275","","","","1",""
"2517","list","alizeti,kuzama,wingu,kaso","wingu","j","2","html-keyboard-response","276","j","wingu","true","",""
"1878.6999999999534","","","","","2","html-slider-response","277","","","","1",""
"2675","sheet","juuya,watu,kamantis,bililhon","bililhon","n","2","html-keyboard-response","278","n","bililhon","true","",""
"2112.6999999999534","","","","","2","html-slider-response","279","","","","1",""
"3119","picture","silya,kubwa,chaki,asin","kubwa","v","2","html-keyboard-response","280","j","chaki","false","",""
"2405.3000000000466","","","","","2","html-slider-response","281","","","","1",""
"3547","towel","tembo,funzi,pito,pagpalit","pagpalit","n","2","html-keyboard-response","282","f","tembo","false","",""
"2585.6999999999534","","","","","2","html-slider-response","283","","","","1",""
"3270","window","nanga,kujenga,umaga,kweli","kweli","n","2","html-keyboard-response","284","n","kweli","true","",""
"2453.600000000093","","","","","2","html-slider-response","285","","","","1",""
"11435","box","adui,kuacha,rafiki,kitande","adui","f","3","html-keyboard-response","293","f","adui","true","","4"
"3322.7999999998137","","","","","3","html-slider-response","294","","","","3",""
"4446","","","","","3","html-keyboard-response","295","","","","",""
"9545","pants","pintal,chuki,hari,haki","haki","n","3","html-keyboard-response","296","j","hari","false","","4"
"2257.5","","","","","3","html-slider-response","297","","","","2",""
"4004","","","","","3","html-keyboard-response","298","","","","",""
"11285","cup","dagat,shimoni,jeraha,matumai","matumai","n","3","html-keyboard-response","299","v","shimoni","false","","4"
"3072.899999999907","","","","","3","html-slider-response","300","","","","1",""
"3267","","","","","3","html-keyboard-response","301","","","","",""
"2503","triangle","kihozi,bentaha,kasadpan,liog","kasadpan","j","3","html-keyboard-response","302","j","kasadpan","true","","4"
"2327.5","","","","","3","html-slider-response","303","","","","3",""
"1499","","","","","3","html-keyboard-response","304","","","","",""
"2386","curtain","lisud,bulwawan,chubani,mchanga","mchanga","n","3","html-keyboard-response","305","j","chubani","false","","4"
"1821.6000000000931","","","","","3","html-slider-response","306","","","","1",""
"37155","","","","","3","html-keyboard-response","307","","","","",""
"2760","clock","kartasi,abang,osha,mbwa","mbwa","n","3","html-keyboard-response","308","v","abang","false","","4"
"1888.0999999998603","","","","","3","html-slider-response","309","","","","2",""
"8316","","","","","3","html-keyboard-response","310","","","","",""
"2959","mirror","rangi,kanding,furaha,sulagma","sulagma","n","3","html-keyboard-response","311","n","sulagma","true","","4"
"2350.7999999998137","","","","","3","html-slider-response","312","","","","1",""
"7897","","","","","3","html-keyboard-response","313","","","","",""
"2563","coffin","kioo,barua,tubag,hulma","kioo","f","3","html-keyboard-response","314","f","kioo","true","","1"
"2462.5","","","","","3","html-slider-response","315","","","","4",""
"6493","","","","","3","html-keyboard-response","316","","","","",""
"3099","magazine","gundi,kiti,mchawi,bahandi","kiti","v","3","html-keyboard-response","317","j","mchawi","false","","4"
"1994.1999999999534","","","","","3","html-slider-response","318","","","","1",""
"7581","","","","","3","html-keyboard-response","319","","","","",""
"1959","column","pundok,ufagio,dila,pala","ufagio","v","3","html-keyboard-response","320","v","ufagio","true","","1"
"2093.1999999999534","","","","","3","html-slider-response","321","","","","5",""
"5727","","","","","3","html-keyboard-response","322","","","","",""
"1903","number","shule,kengele,mundamo,choori","mundamo","j","3","html-keyboard-response","323","j","mundamo","true","","4"
"1892.1999999999534","","","","","3","html-slider-response","324","","","","5",""
"1370","","","","","3","html-keyboard-response","325","","","","",""
"2796","rose","singizi,mwanake,amani,paghalad","paghalad","n","3","html-keyboard-response","326","j","amani","false","","4"
"2454.100000000093","","","","","3","html-slider-response","327","","","","2",""
"6436","","","","","3","html-keyboard-response","328","","","","",""
"3055","eel","ishara,kunywa,kabuang,msumari","msumari","n","3","html-keyboard-response","329","n","msumari","true","","4"
"1860.5","","","","","3","html-slider-response","330","","","","2",""
"5551","","","","","3","html-keyboard-response","331","","","","",""
"2712","gift","baba,nyange,pagtawag,baso","pagtawag","j","3","html-keyboard-response","332","f","baba","false","","4"
"1613.1999999999534","","","","","3","html-slider-response","333","","","","1",""
"7807","","","","","3","html-keyboard-response","334","","","","",""
"1855","apple","ukame,kisu,estante,edad","kisu","v","3","html-keyboard-response","335","v","kisu","true","","1"
"1358","","","","","3","html-slider-response","336","","","","5",""
"1147","","","","","3","html-keyboard-response","337","","","","",""
"1717","wheel","punda,bafuni,tawo,baadaye","bafuni","v","3","html-keyboard-response","338","v","bafuni","true","","1"
"2147","","","","","3","html-slider-response","339","","","","5",""
"5586","","","","","3","html-keyboard-response","340","","","","",""
"3465","knee","mvuke,kubale,duka,bili","duka","j","3","html-keyboard-response","341","v","kubale","false","","4"
"1472.8000000000466","","","","","3","html-slider-response","342","","","","2",""
"7596","","","","","3","html-keyboard-response","343","","","","",""
"1571","basket","kumbuka,utepe,hasira,kumba","kumba","n","3","html-keyboard-response","344","n","kumba","true","","1"
"1931.0999999998603","","","","","3","html-slider-response","345","","","","5",""
"5982","","","","","3","html-keyboard-response","346","","","","",""
"2498","park","tambok,bunifu,pwani,ihalas","bunifu","v","3","html-keyboard-response","347","v","bunifu","true","","4"
"1315.8000000000466","","","","","3","html-slider-response","348","","","","2",""
"6785","","","","","3","html-keyboard-response","349","","","","",""
"2135","finger","simu,moyo,sufuria,lima","moyo","v","3","html-keyboard-response","350","v","moyo","true","","4"
"1770.8000000000466","","","","","3","html-slider-response","351","","","","1",""
"6110","","","","","3","html-keyboard-response","352","","","","",""
"1868","boat","hamsi,agalon,pombe,kitanda","agalon","v","3","html-keyboard-response","353","f","hamsi","false","","4"
"1721.5","","","","","3","html-slider-response","354","","","","1",""
"6142","","","","","3","html-keyboard-response","355","","","","",""
"2009","hill","kushoto,kukimba,matumbo,sweta","matumbo","j","3","html-keyboard-response","356","j","matumbo","true","","4"
"1812.6999999999534","","","","","3","html-slider-response","357","","","","5",""
"1128","","","","","3","html-keyboard-response","358","","","","",""
"1800","train","itik,dakika,sayari,mungu","sayari","j","3","html-keyboard-response","359","j","sayari","true","","4"
"1404.3999999999069","","","","","3","html-slider-response","360","","","","1",""
"5262","","","","","3","html-keyboard-response","361","","","","",""
"1929","wolf","kaburi,ndizi,lugha,mchuzi","lugha","j","3","html-keyboard-response","362","j","lugha","true","","4"
"1170.7999999998137","","","","","3","html-slider-response","363","","","","5",""
"1054","","","","","3","html-keyboard-response","364","","","","",""
"2473","snake","pagtukod,jansa,karon,mvringo","pagtukod","f","3","html-keyboard-response","365","n","mvringo","false","","4"
"1412.2000000001863","","","","","3","html-slider-response","366","","","","1",""
"6542","","","","","3","html-keyboard-response","367","","","","",""
"2576","tooth","kijiko,uadui,pahiyum,kabalaka","kabalaka","n","3","html-keyboard-response","368","v","uadui","false","","4"
"3110.1999999999534","","","","","3","html-slider-response","369","","","","1",""
"6243","","","","","3","html-keyboard-response","370","","","","",""
"2713","notebook","msitu,kila,kemia,mdudu","kemia","j","3","html-keyboard-response","371","n","mdudu","false","","4"
"2009.5","","","","","3","html-slider-response","372","","","","1",""
"6399","","","","","3","html-keyboard-response","373","","","","",""
"2540","flag","trekta,ndege,mkate,kawa","trekta","f","3","html-keyboard-response","374","f","trekta","true","","4"
"2305.0999999998603","","","","","3","html-slider-response","375","","","","2",""
"6640","","","","","3","html-keyboard-response","376","","","","",""
"4177","squirrel","mahugaw,ukweli,kichwa,hofu","hofu","n","3","html-keyboard-response","377","f","mahugaw","false","","4"
"2162.7000000001863","","","","","3","html-slider-response","378","","","","3",""
"5828","","","","","3","html-keyboard-response","379","","","","",""
"1770","door","tena,soko,nyota,surali","surali","n","3","html-keyboard-response","380","f","tena","false","","4"
"2022.8999999999069","","","","","3","html-slider-response","381","","","","2",""
"4250","","","","","3","html-keyboard-response","382","","","","",""
"2394","salmon","mzungu,seri,sensilyo,baharia","sensilyo","j","3","html-keyboard-response","383","j","sensilyo","true","","4"
"1814.8000000000466","","","","","3","html-slider-response","384","","","","1",""
"5517","","","","","3","html-keyboard-response","385","","","","",""
"1478","shoulder","mkuu,kelele,ndaniya,guruwe","mkuu","f","3","html-keyboard-response","386","f","mkuu","true","","4"
"2113.7999999998137","","","","","3","html-slider-response","387","","","","1",""
"4747","","","","","3","html-keyboard-response","388","","","","",""
"3236","lamp","daub,afya,bilaska,mbolea","afya","v","3","html-keyboard-response","389","f","daub","false","","4"
"1477.6000000000931","","","","","3","html-slider-response","390","","","","1",""
"5389","","","","","3","html-keyboard-response","391","","","","",""
"1598","shelf","pamahaw,bungtod,kadaot,awit","pamahaw","f","3","html-keyboard-response","392","f","pamahaw","true","","1"
"2959.5999999998603","","","","","3","html-slider-response","393","","","","5",""
"3789","","","","","3","html-keyboard-response","394","","","","",""
"3144","human","bado,kikapu,tinapay,punguza","tinapay","j","3","html-keyboard-response","395","n","punguza","false","","4"
"1768.0999999998603","","","","","3","html-slider-response","396","","","","2",""
"6028","","","","","3","html-keyboard-response","397","","","","",""
"2144","towel","tembo,funzi,pito,pagpalit","pagpalit","n","3","html-keyboard-response","398","j","pito","false","","4"
"2734.5","","","","","3","html-slider-response","399","","","","2",""
"4626","","","","","3","html-keyboard-response","400","","","","",""
"3033","cat","neyemba,paghukom,baki,akili","paghukom","v","3","html-keyboard-response","401","n","akili","false","","4"
"1713","","","","","3","html-slider-response","402","","","","1",""
"4578","","","","","3","html-keyboard-response","403","","","","",""
"2319","spider","bunyag,kamwe,mkboa,atop","kamwe","v","3","html-keyboard-response","404","v","kamwe","true","","4"
"1955.5","","","","","3","html-slider-response","405","","","","5",""
"1306","","","","","3","html-keyboard-response","406","","","","",""
"3156","window","nanga,kweli,kujenga,umaga","kweli","v","3","html-keyboard-response","407","v","kweli","true","","4"
"1517","","","","","3","html-slider-response","408","","","","2",""
"6391","","","","","3","html-keyboard-response","409","","","","",""
"1923","woman","bandari,bituin,kovuli,pagtabon","pagtabon","n","3","html-keyboard-response","410","n","pagtabon","true","","1"
"2044","","","","","3","html-slider-response","411","","","","5",""
"1195","","","","","3","html-keyboard-response","412","","","","",""
"2714","giraffe","daraja,mahitabo,jumatu,hangyo","mahitabo","v","3","html-keyboard-response","413","f","daraja","false","","4"
"1484.5999999998603","","","","","3","html-slider-response","414","","","","1",""
"6195","","","","","3","html-keyboard-response","415","","","","",""
"2554","elephant","petye,pagduol,kito,suka","kito","j","3","html-keyboard-response","416","v","pagduol","false","","4"
"1399.6999999999534","","","","","3","html-slider-response","417","","","","2",""
"7401","","","","","3","html-keyboard-response","418","","","","",""
"3774","cave","ganti,maisha,nyundo,kesho","kesho","n","3","html-keyboard-response","419","f","ganti","false","","4"
"1569.6999999999534","","","","","3","html-slider-response","420","","","","2",""
"5550","","","","","3","html-keyboard-response","421","","","","",""
"2058","bread","kaili,dari,dizeli,bugas","dari","v","3","html-keyboard-response","422","v","dari","true","","4"
"1322.8999999999069","","","","","3","html-slider-response","423","","","","2",""
"7063","","","","","3","html-keyboard-response","424","","","","",""
"1682","stone","ulimwengu,mkasi,wingi,asili","wingi","j","3","html-keyboard-response","425","n","asili","false","","4"
"2369.9000000003725","","","","","3","html-slider-response","426","","","","1",""
"5093","","","","","3","html-keyboard-response","427","","","","",""
"1836","donkey","elfu,bloke,lalake,rombus","elfu","f","3","html-keyboard-response","428","f","elfu","true","","4"
"2122.1999999997206","","","","","3","html-slider-response","429","","","","5",""
"1639","","","","","3","html-keyboard-response","430","","","","",""
"2071","bridge","daima,ngono,sahani,panya","sahani","j","3","html-keyboard-response","431","v","ngono","false","","4"
"1453.3999999999069","","","","","3","html-slider-response","432","","","","2",""
"5849","","","","","3","html-keyboard-response","433","","","","",""
"3343","bonfire","mwezi,mfuko,kusanya,goti","goti","n","3","html-keyboard-response","434","v","mfuko","false","","4"
"1987.5","","","","","3","html-slider-response","435","","","","1",""
"6156","","","","","3","html-keyboard-response","436","","","","",""
"2244","book","mali,kuhesa,picha,mara","mali","f","3","html-keyboard-response","437","j","picha","false","","4"
"1835.6999999997206","","","","","3","html-slider-response","438","","","","1",""
"8139","","","","","3","html-keyboard-response","439","","","","",""
"3066","fish","bala,baho,buli,imani","buli","j","3","html-keyboard-response","440","n","imani","false","","4"
"1220.3999999999069","","","","","3","html-slider-response","441","","","","2",""
"16467","","","","","3","html-keyboard-response","442","","","","",""
"3392","spoon","betri,nzuri,pagsulod,ngazi","pagsulod","j","3","html-keyboard-response","443","n","ngazi","false","","4"
"1537.1000000000931","","","","","3","html-slider-response","444","","","","1",""
"7024","","","","","3","html-keyboard-response","445","","","","",""
"4506","scissors","duga,tanuri,mtawa,suga","tanuri","v","3","html-keyboard-response","446","j","mtawa","false","","4"
"2470","","","","","3","html-slider-response","447","","","","3",""
"7448","","","","","3","html-keyboard-response","448","","","","",""
"2365","page","wakala,ishiri,wimbo,skina","wimbo","j","3","html-keyboard-response","449","j","wimbo","true","","4"
"1355.3000000002794","","","","","3","html-slider-response","450","","","","2",""
"7961","","","","","3","html-keyboard-response","451","","","","",""
"1857","nose","gubat,sehemu,kopa,kidole","sehemu","v","3","html-keyboard-response","452","v","sehemu","true","","1"
"2937","","","","","3","html-slider-response","453","","","","5",""
"4527","","","","","3","html-keyboard-response","454","","","","",""
"1698","ceiling","kugita,kawaida,rayna,maua","maua","n","3","html-keyboard-response","455","n","maua","true","","4"
"1363.1999999997206","","","","","3","html-slider-response","456","","","","1",""
"5596","","","","","3","html-keyboard-response","457","","","","",""
"2139","bucket","baga,ijayo,kiatu,init","kiatu","j","3","html-keyboard-response","458","j","kiatu","true","","4"
"3029.2999999998137","","","","","3","html-slider-response","459","","","","2",""
"6208","","","","","3","html-keyboard-response","460","","","","",""
"2202","berry","abogado,nogozi,kinywa,kofia","kofia","n","3","html-keyboard-response","461","n","kofia","true","","1"
"3636.600000000093","","","","","3","html-slider-response","462","","","","5",""
"3061","","","","","3","html-keyboard-response","463","","","","",""
"2043","mother","kahawa,mbuzi,babaye,jokofu","babaye","j","3","html-keyboard-response","464","j","babaye","true","","1"
"2552.399999999907","","","","","3","html-slider-response","465","","","","5",""
"3529","","","","","3","html-keyboard-response","466","","","","",""
"2398","mosquito","isda,taras,gutom,martilyo","martilyo","n","3","html-keyboard-response","467","n","martilyo","true","","4"
"2501.600000000093","","","","","3","html-slider-response","468","","","","5",""
"1127","","","","","3","html-keyboard-response","469","","","","",""
"5040","perfume","bino,sungura,katuyoan,ndogo","katuyoan","j","3","html-keyboard-response","470","j","katuyoan","true","","4"
"2349.100000000093","","","","","3","html-slider-response","471","","","","3",""
"5978","","","","","3","html-keyboard-response","472","","","","",""
"3763","sheet","juuya,bililhon,watu,kamantis","bililhon","v","3","html-keyboard-response","473","v","bililhon","true","","4"
"1237.0999999996275","","","","","3","html-slider-response","474","","","","2",""
"5866","","","","","3","html-keyboard-response","475","","","","",""
"1637","puppet","mazishi,napulo,lamok,godoro","mazishi","f","3","html-keyboard-response","476","f","mazishi","true","","1"
"1546.7000000001863","","","","","3","html-slider-response","477","","","","5",""
"5102","","","","","3","html-keyboard-response","478","","","","",""
"4025","poster","nchi,fedha,kasuko,madungog","madungog","n","3","html-keyboard-response","479","v","fedha","false","","4"
"1372","","","","","3","html-slider-response","480","","","","2",""
"6469","","","","","3","html-keyboard-response","481","","","","",""
"3855","music","baiski,mraba,mageho,tumbo","baiski","f","3","html-keyboard-response","482","f","baiski","true","","4"
"3101","","","","","3","html-slider-response","483","","","","3",""
"5171","","","","","3","html-keyboard-response","484","","","","",""
"2207","key","miaka,chombo,goma,ahos","chombo","v","3","html-keyboard-response","485","j","goma","false","","4"
"1313.2000000001863","","","","","3","html-slider-response","486","","","","2",""
"4588","","","","","3","html-keyboard-response","487","","","","",""
"3095","sock","ndoora,mamba,kimysa,mtirka","mamba","v","3","html-keyboard-response","488","n","mtirka","false","","4"
"2109.7999999998137","","","","","3","html-slider-response","489","","","","3",""
"4772","","","","","3","html-keyboard-response","490","","","","",""
"1820","marker","mapafu,maji,salita,atay","maji","v","3","html-keyboard-response","491","j","salita","false","","4"
"1290.2999999998137","","","","","3","html-slider-response","492","","","","1",""
"5081","","","","","3","html-keyboard-response","493","","","","",""
"1775","office","hazini,yatima,kuna,leso","leso","n","3","html-keyboard-response","494","n","leso","true","","4"
"1539.3999999999069","","","","","3","html-slider-response","495","","","","5",""
"1998","","","","","3","html-keyboard-response","496","","","","",""
"3134","shoe","nyeusi,hatua,kama,uyoga","uyoga","n","3","html-keyboard-response","497","j","kama","false","","4"
"1374.6000000000931","","","","","3","html-slider-response","498","","","","1",""
"5146","","","","","3","html-keyboard-response","499","","","","",""
"2983","cop","bustani,mechezo,jikoni,bakus","mechezo","v","3","html-keyboard-response","500","v","mechezo","true","","4"
"1850.2999999998137","","","","","3","html-slider-response","501","","","","2",""
"7077","","","","","3","html-keyboard-response","502","","","","",""
"4214","bank","silingan,kudhibi,tualya,ofisi","silingan","f","3","html-keyboard-response","503","n","ofisi","false","","4"
"1469.9000000003725","","","","","3","html-slider-response","504","","","","1",""
"6832","","","","","3","html-keyboard-response","505","","","","",""
"2136","letter","kifua,filimbi,chuma,uhuru","kifua","f","3","html-keyboard-response","506","f","kifua","true","","1"
"2987.899999999907","","","","","3","html-slider-response","507","","","","5",""
"4046","","","","","3","html-keyboard-response","508","","","","",""
"3773","dog","lubi,bahari,washia,kalamu","bahari","v","3","html-keyboard-response","509","v","bahari","true","","1"
"2320.5","","","","","3","html-slider-response","510","","","","5",""
"1308","","","","","3","html-keyboard-response","511","","","","",""
"1973","shop","nopya,samaki,kerida,ndezu","samaki","v","3","html-keyboard-response","512","f","nopya","false","","4"
"1632.7000000001863","","","","","3","html-slider-response","513","","","","1",""
"4693","","","","","3","html-keyboard-response","514","","","","",""
"3542","flower","tamasha,lobo,usiku,bega","bega","n","3","html-keyboard-response","515","j","usiku","false","","4"
"1736.1000000000931","","","","","3","html-slider-response","516","","","","1",""
"4613","","","","","3","html-keyboard-response","517","","","","",""
"1855","cigar","ndugu,kuta,mlango,adhabu","adhabu","n","3","html-keyboard-response","518","n","adhabu","true","","1"
"2390.2999999998137","","","","","3","html-slider-response","519","","","","5",""
"3549","","","","","3","html-keyboard-response","520","","","","",""
"3629","hammer","mekno,napakyas,kitovu,layag","napakyas","v","3","html-keyboard-response","521","f","mekno","false","","4"
"1655.8999999999069","","","","","3","html-slider-response","522","","","","2",""
"6402","","","","","3","html-keyboard-response","523","","","","",""
"3103","fork","mgonjwa,baboy,paghago,gorisi","mgonjwa","f","3","html-keyboard-response","524","n","gorisi","false","","4"
"2625.7999999998137","","","","","3","html-slider-response","525","","","","2",""
"7423","","","","","3","html-keyboard-response","526","","","","",""
"1733","sun","bendi,basi,luha,uongo","basi","v","3","html-keyboard-response","527","v","basi","true","","1"
"2399.899999999907","","","","","3","html-slider-response","528","","","","5",""
"1352","","","","","3","html-keyboard-response","529","","","","",""
"2623","ladder","pangalan,mashua,mwanga,kamba","pangalan","f","3","html-keyboard-response","530","j","mwanga","false","","4"
"1514.6999999997206","","","","","3","html-slider-response","531","","","","1",""
"7483","","","","","3","html-keyboard-response","532","","","","",""
"1601","banana","kazi,kasamok,hagdan,twai","kazi","f","3","html-keyboard-response","533","f","kazi","true","","1"
"1637.8999999999069","","","","","3","html-slider-response","534","","","","5",""
"4053","","","","","3","html-keyboard-response","535","","","","",""
"2648","pudding","abug,mpishi,aibu,iring","aibu","j","3","html-keyboard-response","536","v","mpishi","false","","4"
"1989.5999999996275","","","","","3","html-slider-response","537","","","","2",""
"6729","","","","","3","html-keyboard-response","538","","","","",""
"3684","body","nyundu,tindashan,jibini,kununa","tindashan","v","3","html-keyboard-response","539","j","jibini","false","","4"
"2380.600000000093","","","","","3","html-slider-response","540","","","","2",""
"7169","","","","","3","html-keyboard-response","541","","","","",""
"3443","bed","kalipay,mapintas,haraka,starehe","mapintas","v","3","html-keyboard-response","542","v","mapintas","true","","4"
"1886.2000000001863","","","","","3","html-slider-response","543","","","","2",""
"6045","","","","","3","html-keyboard-response","544","","","","",""
"2174","tissue","ugomvi,lamigas,kisiwa,katika","ugomvi","f","3","html-keyboard-response","545","v","lamigas","false","","4"
"1798","","","","","3","html-slider-response","546","","","","1",""
"6398","","","","","3","html-keyboard-response","547","","","","",""
"4446","candle","gabi,farasi,geza,kupanda","geza","j","3","html-keyboard-response","548","j","geza","true","","4"
"1307.7000000001863","","","","","3","html-slider-response","549","","","","2",""
"6347","","","","","3","html-keyboard-response","550","","","","",""
"1752","tomato","chupi,mvua,chupa,takatak","mvua","v","3","html-keyboard-response","551","v","mvua","true","","1"
"2039.9000000003725","","","","","3","html-slider-response","552","","","","5",""
"7233","","","","","3","html-keyboard-response","553","","","","",""
"4867","list","alizeti,wingu,kuzama,kaso","wingu","v","3","html-keyboard-response","554","n","kaso","false","","4"
"2230.5","","","","","3","html-slider-response","555","","","","2",""
"11839","","","","","3","html-keyboard-response","556","","","","",""
"2153","olive","bata,siagi,jiwe,welder","jiwe","j","3","html-keyboard-response","557","j","jiwe","true","","4"
"1898","","","","","3","html-slider-response","558","","","","5",""
"1074","","","","","3","html-keyboard-response","559","","","","",""
"1690","picture","silya,chaki,kubwa,asin","kubwa","j","3","html-keyboard-response","560","j","kubwa","true","","1"
"2535.7999999998137","","","","","3","html-slider-response","561","","","","5",""
"2796","","","","","3","html-keyboard-response","562","","","","",""
"33210","page","wakala,wimbo,ishiri,skina","wimbo","v","4","html-keyboard-response","888","v","wimbo","true","",""
"2886.8000000002794","","","","","4","html-slider-response","889","","","","3",""
"12276","sheet","juuya,watu,bililhon,kamantis","bililhon","j","4","html-keyboard-response","890","j","bililhon","true","",""
"3823.100000000093","","","","","4","html-slider-response","891","","","","3",""
"4990","ladder","pangalan,mashua,mwanga,kamba","pangalan","f","4","html-keyboard-response","892","f","pangalan","true","",""
"2485.7000000001863","","","","","4","html-slider-response","893","","","","5",""
"6656","door","surali,tena,soko,nyota","surali","f","4","html-keyboard-response","894","f","surali","true","",""
"3276.600000000093","","","","","4","html-slider-response","895","","","","3",""
"1880","spider","bunyag,mkboa,kamwe,atop","kamwe","j","4","html-keyboard-response","896","j","kamwe","true","",""
"2139.0999999996275","","","","","4","html-slider-response","897","","","","5",""
"25888","picture","silya,kubwa,chaki,asin","kubwa","v","4","html-keyboard-response","898","v","kubwa","true","",""
"1475.2999999998137","","","","","4","html-slider-response","899","","","","2",""
"3196","boat","hamsi,agalon,pombe,kitanda","agalon","v","4","html-keyboard-response","900","v","agalon","true","",""
"1854.7000000001863","","","","","4","html-slider-response","901","","","","5",""
"1368","donkey","bloke,elfu,lalake,rombus","elfu","v","4","html-keyboard-response","902","v","elfu","true","",""
"1404.5","","","","","4","html-slider-response","903","","","","5",""
"3312","book","kuhesa,picha,mara,mali","mali","n","4","html-keyboard-response","904","n","mali","true","",""
"1484.2000000001863","","","","","4","html-slider-response","905","","","","4",""
"4772","cup","dagat,matumai,shimoni,jeraha","matumai","v","4","html-keyboard-response","906","v","matumai","true","",""
"1879","","","","","4","html-slider-response","907","","","","1",""
"3782","sun","bendi,luha,uongo,basi","basi","n","4","html-keyboard-response","908","n","basi","true","",""
"1782.2000000001863","","","","","4","html-slider-response","909","","","","5",""
"4814","pudding","aibu,abug,mpishi,iring","aibu","f","4","html-keyboard-response","910","f","aibu","true","",""
"1829.8999999999069","","","","","4","html-slider-response","911","","","","1",""
"3663","human","tinapay,bado,kikapu,punguza","tinapay","f","4","html-keyboard-response","912","f","tinapay","true","",""
"1693.3000000002794","","","","","4","html-slider-response","913","","","","4",""
"4986","squirrel","mahugaw,ukweli,hofu,kichwa","hofu","j","4","html-keyboard-response","914","f","mahugaw","false","",""
"1904.2999999998137","","","","","4","html-slider-response","915","","","","5",""
"3910","park","bunifu,tambok,pwani,ihalas","bunifu","f","4","html-keyboard-response","916","v","tambok","false","",""
"2493.399999999907","","","","","4","html-slider-response","917","","","","2",""
"2003","poster","nchi,fedha,madungog,kasuko","madungog","j","4","html-keyboard-response","918","j","madungog","true","",""
"2080.7999999998137","","","","","4","html-slider-response","919","","","","5",""
"1588","wolf","lugha,kaburi,ndizi,mchuzi","lugha","f","4","html-keyboard-response","920","f","lugha","true","",""
"2040.4000000003725","","","","","4","html-slider-response","921","","","","5",""
"3987","cat","neyemba,paghukom,baki,akili","paghukom","v","4","html-keyboard-response","922","v","paghukom","true","",""
"2112.2000000001863","","","","","4","html-slider-response","923","","","","5",""
"5489","fish","bala,buli,baho,imani","buli","v","4","html-keyboard-response","924","j","baho","false","",""
"5498.100000000093","","","","","4","html-slider-response","925","","","","3",""
"4702","tooth","kijiko,kabalaka,uadui,pahiyum","kabalaka","v","4","html-keyboard-response","926","v","kabalaka","true","",""
"2486.100000000093","","","","","4","html-slider-response","927","","","","5",""
"5330","cave","ganti,kesho,maisha,nyundo","kesho","v","4","html-keyboard-response","928","f","ganti","false","",""
"3465.2999999998137","","","","","4","html-slider-response","929","","","","3",""
"1801","lamp","daub,bilaska,mbolea,afya","afya","n","4","html-keyboard-response","930","n","afya","true","",""
"2355.2000000001863","","","","","4","html-slider-response","931","","","","4",""
"2079","banana","kasamok,hagdan,twai,kazi","kazi","n","4","html-keyboard-response","932","n","kazi","true","",""
"1988.3999999999069","","","","","4","html-slider-response","933","","","","5",""
"4325","bonfire","goti,mwezi,mfuko,kusanya","goti","f","4","html-keyboard-response","934","f","goti","true","",""
"3526.899999999907","","","","","4","html-slider-response","935","","","","3",""
"1526","cop","bustani,jikoni,mechezo,bakus","mechezo","j","4","html-keyboard-response","936","j","mechezo","true","",""
"2301.8000000002794","","","","","4","html-slider-response","937","","","","5",""
"6235","marker","maji,mapafu,salita,atay","maji","f","4","html-keyboard-response","938","v","mapafu","false","",""
"1871.3999999999069","","","","","4","html-slider-response","939","","","","2",""
"3302","window","kweli,nanga,kujenga,umaga","kweli","f","4","html-keyboard-response","940","j","kujenga","false","",""
"2038.3999999999069","","","","","4","html-slider-response","941","","","","2",""
"3779","body","tindashan,nyundu,jibini,kununa","tindashan","f","4","html-keyboard-response","942","f","tindashan","true","",""
"3512.600000000093","","","","","4","html-slider-response","943","","","","5",""
"1754","apple","ukame,estante,kisu,edad","kisu","j","4","html-keyboard-response","944","j","kisu","true","",""
"2697.600000000093","","","","","4","html-slider-response","945","","","","5",""
"2845","salmon","mzungu,seri,sensilyo,baharia","sensilyo","j","4","html-keyboard-response","946","j","sensilyo","true","",""
"2149.7999999998137","","","","","4","html-slider-response","947","","","","4",""
"2647","bed","mapintas,kalipay,haraka,starehe","mapintas","f","4","html-keyboard-response","948","f","mapintas","true","",""
"2101.600000000093","","","","","4","html-slider-response","949","","","","5",""
"3078","berry","abogado,nogozi,kinywa,kofia","kofia","n","4","html-keyboard-response","950","n","kofia","true","",""
"1669.5","","","","","4","html-slider-response","951","","","","4",""
"2902","mirror","sulagma,rangi,kanding,furaha","sulagma","f","4","html-keyboard-response","952","f","sulagma","true","",""
"2326.0999999996275","","","","","4","html-slider-response","953","","","","2",""
"2898","flag","ndege,trekta,mkate,kawa","trekta","v","4","html-keyboard-response","954","n","kawa","false","",""
"2289.899999999907","","","","","4","html-slider-response","955","","","","1",""
"3549","shoulder","kelele,ndaniya,mkuu,guruwe","mkuu","j","4","html-keyboard-response","956","j","mkuu","true","",""
"2311.2999999998137","","","","","4","html-slider-response","957","","","","4",""
"2154","tissue","lamigas,kisiwa,katika,ugomvi","ugomvi","n","4","html-keyboard-response","958","f","lamigas","false","",""
"1866.2000000001863","","","","","4","html-slider-response","959","","","","1",""
"5991","notebook","kemia,msitu,kila,mdudu","kemia","f","4","html-keyboard-response","960","j","kila","false","",""
"2723.600000000093","","","","","4","html-slider-response","961","","","","3",""
"3094","snake","pagtukod,jansa,karon,mvringo","pagtukod","f","4","html-keyboard-response","962","f","pagtukod","true","",""
"1869.8999999999069","","","","","4","html-slider-response","963","","","","4",""
"2800","finger","moyo,simu,sufuria,lima","moyo","f","4","html-keyboard-response","964","f","moyo","true","",""
"2795.100000000093","","","","","4","html-slider-response","965","","","","3",""
"2777","basket","kumbuka,utepe,kumba,hasira","kumba","j","4","html-keyboard-response","966","f","kumbuka","false","",""
"2162.899999999907","","","","","4","html-slider-response","967","","","","2",""
"4414","curtain","lisud,bulwawan,chubani,mchanga","mchanga","n","4","html-keyboard-response","968","n","mchanga","true","",""
"1934","","","","","4","html-slider-response","969","","","","2",""
"2224","perfume","bino,katuyoan,sungura,ndogo","katuyoan","v","4","html-keyboard-response","970","v","katuyoan","true","",""
"1755.2000000001863","","","","","4","html-slider-response","971","","","","4",""
"1645","key","miaka,goma,ahos,chombo","chombo","n","4","html-keyboard-response","972","n","chombo","true","",""
"1845","","","","","4","html-slider-response","973","","","","5",""
"1783","olive","bata,jiwe,siagi,welder","jiwe","v","4","html-keyboard-response","974","v","jiwe","true","",""
"7486.699999999721","","","","","4","html-slider-response","975","","","","5",""
"5359","rose","singizi,mwanake,amani,paghalad","paghalad","n","4","html-keyboard-response","976","n","paghalad","true","",""
"2837.399999999907","","","","","4","html-slider-response","977","","","","3",""
"2507","bridge","daima,sahani,ngono,panya","sahani","v","4","html-keyboard-response","978","n","panya","false","",""
"2249.2999999998137","","","","","4","html-slider-response","979","","","","1",""
"2738","hill","kushoto,matumbo,kukimba,sweta","matumbo","v","4","html-keyboard-response","980","v","matumbo","true","",""
"2050.5","","","","","4","html-slider-response","981","","","","5",""
"4481","letter","filimbi,chuma,kifua,uhuru","kifua","j","4","html-keyboard-response","982","j","kifua","true","",""
"2308.3000000002794","","","","","4","html-slider-response","983","","","","2",""
"5433","sock","ndoora,kimysa,mamba,mtirka","mamba","j","4","html-keyboard-response","984","n","mtirka","false","",""
"2299","","","","","4","html-slider-response","985","","","","2",""
"5662","fork","baboy,mgonjwa,paghago,gorisi","mgonjwa","v","4","html-keyboard-response","986","v","mgonjwa","true","",""
"3285.399999999907","","","","","4","html-slider-response","987","","","","2",""
"2611","box","kuacha,rafiki,kitande,adui","adui","n","4","html-keyboard-response","988","n","adui","true","",""
"2624.5","","","","","4","html-slider-response","989","","","","3",""
"5131","gift","baba,pagtawag,nyange,baso","pagtawag","v","4","html-keyboard-response","990","v","pagtawag","true","",""
"2511.899999999907","","","","","4","html-slider-response","991","","","","4",""
"3620","bucket","baga,kiatu,ijayo,init","kiatu","v","4","html-keyboard-response","992","f","baga","false","",""
"2062.899999999907","","","","","4","html-slider-response","993","","","","2",""
"5545","shop","nopya,kerida,samaki,ndezu","samaki","j","4","html-keyboard-response","994","j","samaki","true","",""
"2713.899999999907","","","","","4","html-slider-response","995","","","","1",""
"3414","puppet","napulo,lamok,godoro,mazishi","mazishi","n","4","html-keyboard-response","996","n","mazishi","true","",""
"2356.6999999997206","","","","","4","html-slider-response","997","","","","3",""
"3213","nose","gubat,kopa,sehemu,kidole","sehemu","j","4","html-keyboard-response","998","v","kopa","false","",""
"2159.0999999996275","","","","","4","html-slider-response","999","","","","2",""
"1721","music","mraba,baiski,mageho,tumbo","baiski","v","4","html-keyboard-response","1000","v","baiski","true","",""
"2244.5","","","","","4","html-slider-response","1001","","","","5",""
"3037","dog","bahari,lubi,washia,kalamu","bahari","f","4","html-keyboard-response","1002","f","bahari","true","",""
"2111","","","","","4","html-slider-response","1003","","","","5",""
"3316","eel","ishara,kunywa,msumari,kabuang","msumari","j","4","html-keyboard-response","1004","j","msumari","true","",""
"2296","","","","","4","html-slider-response","1005","","","","2",""
"1758","number","mundamo,shule,kengele,choori","mundamo","f","4","html-keyboard-response","1006","f","mundamo","true","",""
"1958","","","","","4","html-slider-response","1007","","","","5",""
"5253","tomato","mvua,chupi,chupa,takatak","mvua","f","4","html-keyboard-response","1008","j","chupa","false","",""
"1999.8000000002794","","","","","4","html-slider-response","1009","","","","2",""
"4120","coffin","barua,tubag,hulma,kioo","kioo","n","4","html-keyboard-response","1010","v","tubag","false","",""
"7454.399999999907","","","","","4","html-slider-response","1011","","","","3",""
"3113","knee","duka,mvuke,kubale,bili","duka","f","4","html-keyboard-response","1012","j","kubale","false","",""
"1916.7000000001863","","","","","4","html-slider-response","1013","","","","1",""
"7106","woman","bandari,bituin,kovuli,pagtabon","pagtabon","n","4","html-keyboard-response","1014","n","pagtabon","true","",""
"2002.4000000003725","","","","","4","html-slider-response","1015","","","","4",""
"3717","stone","ulimwengu,wingi,mkasi,asili","wingi","v","4","html-keyboard-response","1016","v","wingi","true","",""
"2358.6999999997206","","","","","4","html-slider-response","1017","","","","3",""
"2006","bread","kaili,dizeli,bugas,dari","dari","n","4","html-keyboard-response","1018","n","dari","true","",""
"2109.899999999907","","","","","4","html-slider-response","1019","","","","4",""
"2017","triangle","kihozi,kasadpan,bentaha,liog","kasadpan","v","4","html-keyboard-response","1020","v","kasadpan","true","",""
"2917.5999999996275","","","","","4","html-slider-response","1021","","","","5",""
"4411","scissors","duga,mtawa,tanuri,suga","tanuri","j","4","html-keyboard-response","1022","v","mtawa","false","",""
"2024.6999999997206","","","","","4","html-slider-response","1023","","","","2",""
"4430","giraffe","daraja,jumatu,mahitabo,hangyo","mahitabo","j","4","html-keyboard-response","1024","j","mahitabo","true","",""
"1847.3999999999069","","","","","4","html-slider-response","1025","","","","2",""
"8520","flower","tamasha,bega,lobo,usiku","bega","v","4","html-keyboard-response","1026","v","bega","true","",""
"2571.1999999997206","","","","","4","html-slider-response","1027","","","","2",""
"38633","candle","geza,gabi,farasi,kupanda","geza","f","4","html-keyboard-response","1028","f","geza","true","",""
"3754.899999999907","","","","","4","html-slider-response","1029","","","","4",""
"1893","mother","kahawa,mbuzi,babaye,jokofu","babaye","j","4","html-keyboard-response","1030","j","babaye","true","",""
"1904.5","","","","","4","html-slider-response","1031","","","","5",""
"3340","towel","tembo,funzi,pagpalit,pito","pagpalit","j","4","html-keyboard-response","1032","j","pagpalit","true","",""
"1319.7000000001863","","","","","4","html-slider-response","1033","","","","2",""
"9317","elephant","petye,pagduol,suka,kito","kito","n","4","html-keyboard-response","1034","j","suka","false","",""
"4614.600000000093","","","","","4","html-slider-response","1035","","","","3",""
"2471","shelf","bungtod,kadaot,awit,pamahaw","pamahaw","n","4","html-keyboard-response","1036","n","pamahaw","true","",""
"2380.5","","","","","4","html-slider-response","1037","","","","3",""
"1958","mosquito","isda,taras,gutom,martilyo","martilyo","n","4","html-keyboard-response","1038","n","martilyo","true","",""
"1574.8999999999069","","","","","4","html-slider-response","1039","","","","5",""
"4397","column","pundok,ufagio,dila,pala","ufagio","v","4","html-keyboard-response","1040","n","pala","false","",""
"1679.3999999999069","","","","","4","html-slider-response","1041","","","","3",""
"4055","pants","pintal,haki,chuki,hari","haki","v","4","html-keyboard-response","1042","n","hari","false","",""
"2276.6999999997206","","","","","4","html-slider-response","1043","","","","3",""
"3975","list","alizeti,kuzama,wingu,kaso","wingu","j","4","html-keyboard-response","1044","n","kaso","false","",""
"1181.1000000000931","","","","","4","html-slider-response","1045","","","","2",""
"32587","bank","kudhibi,tualya,ofisi,silingan","silingan","n","4","html-keyboard-response","1046","n","silingan","true","",""
"3145.600000000093","","","","","4","html-slider-response","1047","","","","4",""
"8535","clock","kartasi,mbwa,abang,osha","mbwa","v","4","html-keyboard-response","1048","v","mbwa","true","",""
"3292","","","","","4","html-slider-response","1049","","","","4",""
"2546","ceiling","kugita,kawaida,rayna,maua","maua","n","4","html-keyboard-response","1050","v","kawaida","false","",""
"1921.6000000000931","","","","","4","html-slider-response","1051","","","","2",""
"16530","train","itik,sayari,dakika,mungu","sayari","v","4","html-keyboard-response","1052","v","sayari","true","",""
"1969.8999999999069","","","","","4","html-slider-response","1053","","","","4",""
"3238","magazine","gundi,mchawi,kiti,bahandi","kiti","j","4","html-keyboard-response","1054","j","kiti","true","",""
"2309.399999999907","","","","","4","html-slider-response","1055","","","","4",""
"1558","office","leso,hazini,yatima,kuna","leso","f","4","html-keyboard-response","1056","f","leso","true","",""
"2373.399999999907","","","","","4","html-slider-response","1057","","","","5",""
"4022","wheel","punda,bafuni,tawo,baadaye","bafuni","v","4","html-keyboard-response","1058","v","bafuni","true","",""
"2059.2000000001863","","","","","4","html-slider-response","1059","","","","3",""
"3757","spoon","pagsulod,betri,nzuri,ngazi","pagsulod","f","4","html-keyboard-response","1060","n","ngazi","false","",""
"2117.600000000093","","","","","4","html-slider-response","1061","","","","1",""
"2826","hammer","mekno,kitovu,layag,napakyas","napakyas","n","4","html-keyboard-response","1062","n","napakyas","true","",""
"1921.5","","","","","4","html-slider-response","1063","","","","2",""
"2327","cigar","adhabu,ndugu,kuta,mlango","adhabu","f","4","html-keyboard-response","1064","f","adhabu","true","",""
"2428.5","","","","","4","html-slider-response","1065","","","","3",""
"10109","shoe","nyeusi,uyoga,hatua,kama","uyoga","v","4","html-keyboard-response","1066","f","nyeusi","false","",""
"1911.7000000001863","","","","","4","html-slider-response","1067","","","","2",""
"87781","list","alizeti,kuzama,kaso,wingu","wingu","n","5","html-keyboard-response","1069","n","wingu","true","",""
"2388.399999999907","","","","","5","html-slider-response","1070","","","","4",""
"4603","number","shule,kengele,mundamo,choori","mundamo","j","5","html-keyboard-response","1071","j","mundamo","true","",""
"1633.5","","","","","5","html-slider-response","1072","","","","5",""
"1519","apple","ukame,estante,edad,kisu","kisu","n","5","html-keyboard-response","1073","n","kisu","true","",""
"2037.5","","","","","5","html-slider-response","1074","","","","5",""
"4528","knee","mvuke,kubale,duka,bili","duka","j","5","html-keyboard-response","1075","f","mvuke","false","",""
"1907.6999999997206","","","","","5","html-slider-response","1076","","","","2",""
"1840","tooth","kijiko,uadui,kabalaka,pahiyum","kabalaka","j","5","html-keyboard-response","1077","j","kabalaka","true","",""
"1659.7999999998137","","","","","5","html-slider-response","1078","","","","5",""
"1685","berry","abogado,nogozi,kinywa,kofia","kofia","n","5","html-keyboard-response","1079","n","kofia","true","",""
"1470","","","","","5","html-slider-response","1080","","","","5",""
"3613","bridge","daima,sahani,ngono,panya","sahani","v","5","html-keyboard-response","1081","v","sahani","true","",""
"1606.7999999998137","","","","","5","html-slider-response","1082","","","","2",""
"1975","perfume","bino,katuyoan,sungura,ndogo","katuyoan","v","5","html-keyboard-response","1083","v","katuyoan","true","",""
"1174.6000000000931","","","","","5","html-slider-response","1084","","","","4",""
"1642","ladder","mashua,mwanga,pangalan,kamba","pangalan","j","5","html-keyboard-response","1085","j","pangalan","true","",""
"1658.3999999999069","","","","","5","html-slider-response","1086","","","","5",""
"2760","pants","pintal,haki,chuki,hari","haki","v","5","html-keyboard-response","1087","n","hari","false","",""
"3355.9000000003725","","","","","5","html-slider-response","1088","","","","3",""
"1608","salmon","mzungu,sensilyo,seri,baharia","sensilyo","v","5","html-keyboard-response","1089","v","sensilyo","true","",""
"1244.8999999999069","","","","","5","html-slider-response","1090","","","","5",""
"2297","coffin","kioo,barua,tubag,hulma","kioo","f","5","html-keyboard-response","1091","f","kioo","true","",""
"10314.899999999907","","","","","5","html-slider-response","1092","","","","4",""
"7967","park","tambok,pwani,ihalas,bunifu","bunifu","n","5","html-keyboard-response","1093","f","tambok","false","",""
"3637.2000000001863","","","","","5","html-slider-response","1094","","","","3",""
"17379","giraffe","daraja,mahitabo,jumatu,hangyo","mahitabo","v","5","html-keyboard-response","1095","n","hangyo","false","",""
"2951.7999999998137","","","","","5","html-slider-response","1096","","","","2",""
"12534","mirror","rangi,kanding,sulagma,furaha","sulagma","j","5","html-keyboard-response","1097","j","sulagma","true","",""
"4541","","","","","5","html-slider-response","1098","","","","2",""
"12830","ceiling","kugita,kawaida,rayna,maua","maua","n","5","html-keyboard-response","1099","v","kawaida","false","",""
"1477","","","","","5","html-slider-response","1100","","","","2",""
"56957","marker","maji,mapafu,salita,atay","maji","f","5","html-keyboard-response","1101","j","salita","false","",""
"5317.700000000186","","","","","5","html-slider-response","1102","","","","3",""
"8200","sock","ndoora,kimysa,mtirka,mamba","mamba","n","5","html-keyboard-response","1103","n","mamba","true","",""
"4754.5","","","","","5","html-slider-response","1104","","","","3",""
"1749","cop","mechezo,bustani,jikoni,bakus","mechezo","f","5","html-keyboard-response","1105","f","mechezo","true","",""
"3214.5","","","","","5","html-slider-response","1106","","","","5",""
"1991","gift","baba,nyange,baso,pagtawag","pagtawag","n","5","html-keyboard-response","1107","n","pagtawag","true","",""
"1261.2999999998137","","","","","5","html-slider-response","1108","","","","5",""
"3444","notebook","msitu,kemia,kila,mdudu","kemia","v","5","html-keyboard-response","1109","v","kemia","true","",""
"3960.6999999997206","","","","","5","html-slider-response","1110","","","","3",""
"1460","bank","kudhibi,tualya,ofisi,silingan","silingan","n","5","html-keyboard-response","1111","n","silingan","true","",""
"1366.2999999998137","","","","","5","html-slider-response","1112","","","","5",""
"4195","letter","filimbi,chuma,kifua,uhuru","kifua","j","5","html-keyboard-response","1113","j","kifua","true","",""
"2256.7999999998137","","","","","5","html-slider-response","1114","","","","3",""
"1730","candle","gabi,farasi,geza,kupanda","geza","j","5","html-keyboard-response","1115","j","geza","true","",""
"1697","","","","","5","html-slider-response","1116","","","","5",""
"2054","bread","kaili,dari,dizeli,bugas","dari","v","5","html-keyboard-response","1117","v","dari","true","",""
"1229.1000000005588","","","","","5","html-slider-response","1118","","","","4",""
"2950","snake","pagtukod,jansa,karon,mvringo","pagtukod","f","5","html-keyboard-response","1119","f","pagtukod","true","",""
"1316.5999999996275","","","","","5","html-slider-response","1120","","","","5",""
"17693","rose","paghalad,singizi,mwanake,amani","paghalad","f","5","html-keyboard-response","1121","f","paghalad","true","",""
"3599.7000000001863","","","","","5","html-slider-response","1122","","","","4",""
"1598","hill","kushoto,kukimba,sweta,matumbo","matumbo","n","5","html-keyboard-response","1123","n","matumbo","true","",""
"1197","","","","","5","html-slider-response","1124","","","","5",""
"5240","train","itik,dakika,sayari,mungu","sayari","j","5","html-keyboard-response","1125","j","sayari","true","",""
"1627.5","","","","","5","html-slider-response","1126","","","","4",""
"10435","shop","nopya,kerida,samaki,ndezu","samaki","j","5","html-keyboard-response","1127","j","samaki","true","",""
"2688.600000000559","","","","","5","html-slider-response","1128","","","","3",""
"9666","nose","gubat,sehemu,kopa,kidole","sehemu","v","5","html-keyboard-response","1129","j","kopa","false","",""
"1970.2999999998137","","","","","5","html-slider-response","1130","","","","1",""
"2380","boat","hamsi,pombe,kitanda,agalon","agalon","n","5","html-keyboard-response","1131","n","agalon","true","",""
"1615.8999999994412","","","","","5","html-slider-response","1132","","","","5",""
"4199","body","tindashan,nyundu,jibini,kununa","tindashan","f","5","html-keyboard-response","1133","f","tindashan","true","",""
"2004.5","","","","","5","html-slider-response","1134","","","","5",""
"3451","bed","kalipay,haraka,mapintas,starehe","mapintas","j","5","html-keyboard-response","1135","j","mapintas","true","",""
"1410.2000000001863","","","","","5","html-slider-response","1136","","","","5",""
"37349","squirrel","mahugaw,ukweli,kichwa,hofu","hofu","n","5","html-keyboard-response","1137","n","hofu","true","",""
"1046.6000000005588","","","","","5","html-slider-response","1138","","","","4",""
"15749","window","nanga,kweli,kujenga,umaga","kweli","v","5","html-keyboard-response","1139","v","kweli","true","",""
"2069.600000000559","","","","","5","html-slider-response","1140","","","","3",""
"4328","bonfire","goti,mwezi,mfuko,kusanya","goti","f","5","html-keyboard-response","1141","v","mwezi","false","",""
"1259.9000000003725","","","","","5","html-slider-response","1142","","","","2",""
"4825","fish","bala,baho,imani,buli","buli","n","5","html-keyboard-response","1143","v","baho","false","",""
"1874.5999999996275","","","","","5","html-slider-response","1144","","","","3",""
"2340","cat","neyemba,baki,paghukom,akili","paghukom","j","5","html-keyboard-response","1145","j","paghukom","true","",""
"1367.7999999998137","","","","","5","html-slider-response","1146","","","","4",""
"2022","spider","bunyag,kamwe,mkboa,atop","kamwe","v","5","html-keyboard-response","1147","v","kamwe","true","",""
"1742.199999999255","","","","","5","html-slider-response","1148","","","","5",""
"5003","eel","ishara,kunywa,kabuang,msumari","msumari","n","5","html-keyboard-response","1149","n","msumari","true","",""
"1280.2000000001863","","","","","5","html-slider-response","1150","","","","2",""
"48177","woman","bandari,bituin,kovuli,pagtabon","pagtabon","n","5","html-keyboard-response","1151","n","pagtabon","true","",""
"2682.600000000559","","","","","5","html-slider-response","1152","","","","4",""
"2607","magazine","kiti,gundi,mchawi,bahandi","kiti","f","5","html-keyboard-response","1153","f","kiti","true","",""
"1852.6000000005588","","","","","5","html-slider-response","1154","","","","4",""
"2259","pudding","aibu,abug,mpishi,iring","aibu","f","5","html-keyboard-response","1155","f","aibu","true","",""
"4897.399999999441","","","","","5","html-slider-response","1156","","","","3",""
"3014","lamp","daub,bilaska,mbolea,afya","afya","n","5","html-keyboard-response","1157","n","afya","true","",""
"1821","","","","","5","html-slider-response","1158","","","","5",""
"3648","cave","kesho,ganti,maisha,nyundo","kesho","f","5","html-keyboard-response","1159","v","ganti","false","",""
"2722.2000000001863","","","","","5","html-slider-response","1160","","","","3",""
"2508","shoulder","kelele,ndaniya,guruwe,mkuu","mkuu","n","5","html-keyboard-response","1161","n","mkuu","true","",""
"2895.7000000001863","","","","","5","html-slider-response","1162","","","","4",""
"1585","stone","ulimwengu,mkasi,asili,wingi","wingi","n","5","html-keyboard-response","1163","n","wingi","true","",""
"1881.4000000003725","","","","","5","html-slider-response","1164","","","","5",""
"4235","column","ufagio,pundok,dila,pala","ufagio","f","5","html-keyboard-response","1165","f","ufagio","true","",""
"2912.2000000001863","","","","","5","html-slider-response","1166","","","","3",""
"2566","page","wimbo,wakala,ishiri,skina","wimbo","f","5","html-keyboard-response","1167","f","wimbo","true","",""
"2173.899999999441","","","","","5","html-slider-response","1168","","","","3",""
"5343","shoe","nyeusi,hatua,kama,uyoga","uyoga","n","5","html-keyboard-response","1169","n","uyoga","true","",""
"2237.399999999441","","","","","5","html-slider-response","1170","","","","2",""
"3042","clock","kartasi,abang,mbwa,osha","mbwa","j","5","html-keyboard-response","1171","j","mbwa","true","",""
"2122.5999999996275","","","","","5","html-slider-response","1172","","","","3",""
"4608","towel","tembo,funzi,pagpalit,pito","pagpalit","j","5","html-keyboard-response","1173","j","pagpalit","true","",""
"2467.5999999996275","","","","","5","html-slider-response","1174","","","","2",""
"3872","tomato","mvua,chupi,chupa,takatak","mvua","f","5","html-keyboard-response","1175","f","mvua","true","",""
"2601.7000000001863","","","","","5","html-slider-response","1176","","","","3",""
"3087","bucket","baga,ijayo,init,kiatu","kiatu","n","5","html-keyboard-response","1177","n","kiatu","true","",""
"1644.9000000003725","","","","","5","html-slider-response","1178","","","","2",""
"1791","finger","simu,moyo,sufuria,lima","moyo","v","5","html-keyboard-response","1179","v","moyo","true","",""
"2413.5999999996275","","","","","5","html-slider-response","1180","","","","4",""
"2155","mother","kahawa,babaye,mbuzi,jokofu","babaye","v","5","html-keyboard-response","1181","v","babaye","true","",""
"2184.7000000001863","","","","","5","html-slider-response","1182","","","","4",""
"5910","human","tinapay,bado,kikapu,punguza","tinapay","f","5","html-keyboard-response","1183","f","tinapay","true","",""
"2934.2999999998137","","","","","5","html-slider-response","1184","","","","3",""
"1829","sun","bendi,basi,luha,uongo","basi","v","5","html-keyboard-response","1185","v","basi","true","",""
"2372.699999999255","","","","","5","html-slider-response","1186","","","","5",""
"7774","fork","baboy,mgonjwa,paghago,gorisi","mgonjwa","v","5","html-keyboard-response","1187","j","paghago","false","",""
"2565.7999999998137","","","","","5","html-slider-response","1188","","","","2",""
"1561","donkey","bloke,lalake,rombus,elfu","elfu","n","5","html-keyboard-response","1189","n","elfu","true","",""
"2458.9000000003725","","","","","5","html-slider-response","1190","","","","5",""
"1685","wolf","lugha,kaburi,ndizi,mchuzi","lugha","f","5","html-keyboard-response","1191","f","lugha","true","",""
"2543.600000000559","","","","","5","html-slider-response","1192","","","","5",""
"1754","cigar","adhabu,ndugu,kuta,mlango","adhabu","f","5","html-keyboard-response","1193","f","adhabu","true","",""
"2522.9000000003725","","","","","5","html-slider-response","1194","","","","5",""
"1860","olive","bata,jiwe,siagi,welder","jiwe","v","5","html-keyboard-response","1195","v","jiwe","true","",""
"1800.7999999998137","","","","","5","html-slider-response","1196","","","","5",""
"1683","key","miaka,goma,ahos,chombo","chombo","n","5","html-keyboard-response","1197","n","chombo","true","",""
"1905.699999999255","","","","","5","html-slider-response","1198","","","","5",""
"2832","door","tena,soko,surali,nyota","surali","j","5","html-keyboard-response","1199","j","surali","true","",""
"1995.699999999255","","","","","5","html-slider-response","1200","","","","2",""
"3694","wheel","punda,tawo,bafuni,baadaye","bafuni","j","5","html-keyboard-response","1201","j","bafuni","true","",""
"2045","","","","","5","html-slider-response","1202","","","","2",""
"2931","basket","kumbuka,utepe,hasira,kumba","kumba","n","5","html-keyboard-response","1203","n","kumba","true","",""
"1728.7000000001863","","","","","5","html-slider-response","1204","","","","2",""
"4319","elephant","petye,pagduol,suka,kito","kito","n","5","html-keyboard-response","1205","n","kito","true","",""
"2020","","","","","5","html-slider-response","1206","","","","4",""
"1505","office","hazini,yatima,kuna,leso","leso","n","5","html-keyboard-response","1207","n","leso","true","",""
"2290.2000000001863","","","","","5","html-slider-response","1208","","","","5",""
"1980","music","baiski,mraba,mageho,tumbo","baiski","f","5","html-keyboard-response","1209","f","baiski","true","",""
"2078.7000000001863","","","","","5","html-slider-response","1210","","","","5",""
"3457","tissue","lamigas,kisiwa,ugomvi,katika","ugomvi","j","5","html-keyboard-response","1211","j","ugomvi","true","",""
"3018.800000000745","","","","","5","html-slider-response","1212","","","","3",""
"2935","curtain","lisud,bulwawan,chubani,mchanga","mchanga","n","5","html-keyboard-response","1213","n","mchanga","true","",""
"1900.9000000003725","","","","","5","html-slider-response","1214","","","","2",""
"1702","flag","ndege,trekta,mkate,kawa","trekta","v","5","html-keyboard-response","1215","v","trekta","true","",""
"2014.3999999994412","","","","","5","html-slider-response","1216","","","","5",""
"1944","dog","lubi,washia,bahari,kalamu","bahari","j","5","html-keyboard-response","1217","j","bahari","true","",""
"2483.7000000001863","","","","","5","html-slider-response","1218","","","","5",""
"3546","cup","dagat,shimoni,jeraha,matumai","matumai","n","5","html-keyboard-response","1219","n","matumai","true","",""
"1834.5999999996275","","","","","5","html-slider-response","1220","","","","2",""
"1605","sheet","juuya,bililhon,watu,kamantis","bililhon","v","5","html-keyboard-response","1221","v","bililhon","true","",""
"2167.0999999996275","","","","","5","html-slider-response","1222","","","","5",""
"3317","spoon","betri,nzuri,ngazi,pagsulod","pagsulod","n","5","html-keyboard-response","1223","n","pagsulod","true","",""
"2318.2000000001863","","","","","5","html-slider-response","1224","","","","5",""
"4081","flower","tamasha,bega,lobo,usiku","bega","v","5","html-keyboard-response","1225","v","bega","true","",""
"2153.899999999441","","","","","5","html-slider-response","1226","","","","3",""
"2097","picture","silya,chaki,asin,kubwa","kubwa","n","5","html-keyboard-response","1227","n","kubwa","true","",""
"1721.2999999998137","","","","","5","html-slider-response","1228","","","","2",""
"1902","puppet","napulo,lamok,mazishi,godoro","mazishi","j","5","html-keyboard-response","1229","j","mazishi","true","",""
"2446.2000000001863","","","","","5","html-slider-response","1230","","","","5",""
"1525","banana","kasamok,hagdan,twai,kazi","kazi","n","5","html-keyboard-response","1231","n","kazi","true","",""
"2061.7000000001863","","","","","5","html-slider-response","1232","","","","5",""
"2621","book","kuhesa,picha,mali,mara","mali","j","5","html-keyboard-response","1233","j","mali","true","",""
"1734.5999999996275","","","","","5","html-slider-response","1234","","","","4",""
"18052","triangle","kihozi,bentaha,kasadpan,liog","kasadpan","j","5","html-keyboard-response","1235","j","kasadpan","true","",""
"2846.5999999996275","","","","","5","html-slider-response","1236","","","","5",""
"8593","poster","nchi,fedha,madungog,kasuko","madungog","j","5","html-keyboard-response","1237","j","madungog","true","",""
"1634.7000000001863","","","","","5","html-slider-response","1238","","","","2",""
"1510","box","adui,kuacha,rafiki,kitande","adui","f","5","html-keyboard-response","1239","f","adui","true","",""
"2885.2000000001863","","","","","5","html-slider-response","1240","","","","5",""
"1746","mosquito","martilyo,isda,taras,gutom","martilyo","f","5","html-keyboard-response","1241","f","martilyo","true","",""
"1810.2000000001863","","","","","5","html-slider-response","1242","","","","5",""
"2135","shelf","bungtod,pamahaw,kadaot,awit","pamahaw","v","5","html-keyboard-response","1243","v","pamahaw","true","",""
"1757.2999999998137","","","","","5","html-slider-response","1244","","","","4",""
"5701","scissors","duga,mtawa,suga,tanuri","tanuri","n","5","html-keyboard-response","1245","n","tanuri","true","",""
"1767.5999999996275","","","","","5","html-slider-response","1246","","","","3",""
"2446","hammer","mekno,napakyas,kitovu,layag","napakyas","v","5","html-keyboard-response","1247","v","napakyas","true","",""
"2117.5999999996275","","","","","5","html-slider-response","1248","","","","2",""
