"rt","en_word","options","swa_word","correct_answer","phase","trial_type","trial_index","input_answer","input_word","accuracy","certainty","amt_choices"
"4708","bonfire","mwezi,mfuko,goti,kusanya","goti","j","2","html-keyboard-response","106","j","goti","true","",""
"7798","","","","","2","html-slider-response","107","","","","2",""
"69720","flower","tamasha,bega,lobo,usiku","bega","v","2","html-keyboard-response","108","v","bega","true","",""
"7453.199999928474","","","","","2","html-slider-response","109","","","","2",""
"5814","column","pundok,dila,ufagio,pala","ufagio","j","2","html-keyboard-response","110","n","pala","false","",""
"7237.5","","","","","2","html-slider-response","111","","","","2",""
"69683","music","mraba,mageho,tumbo,baiski","baiski","n","2","html-keyboard-response","112","v","mageho","false","",""
"3597","","","","","2","html-slider-response","113","","","","2",""
"5060","spider","kamwe,bunyag,mkboa,atop","kamwe","f","2","html-keyboard-response","114","n","atop","false","",""
"3564.2999999523163","","","","","2","html-slider-response","115","","","","2",""
"34425","fork","baboy,paghago,gorisi,mgonjwa","mgonjwa","n","2","html-keyboard-response","116","f","baboy","false","",""
"4486.799999952316","","","","","2","html-slider-response","117","","","","2",""
"3162","mosquito","martilyo,isda,taras,gutom","martilyo","f","2","html-keyboard-response","118","f","martilyo","true","",""
"3120.3000000715256","","","","","2","html-slider-response","119","","","","2",""
"57457","banana","kazi,kasamok,hagdan,twai","kazi","f","2","html-keyboard-response","120","n","twai","false","",""
"4044.600000023842","","","","","2","html-slider-response","121","","","","2",""
"52486","cup","dagat,shimoni,jeraha,matumai","matumai","n","2","html-keyboard-response","122","j","jeraha","false","",""
"3091.7000000476837","","","","","2","html-slider-response","123","","","","2",""
"57803","shop","nopya,samaki,kerida,ndezu","samaki","v","2","html-keyboard-response","124","n","ndezu","false","",""
"3725.100000023842","","","","","2","html-slider-response","125","","","","2",""
"4878","elephant","petye,pagduol,suka,kito","kito","n","2","html-keyboard-response","126","f","petye","false","",""
"2711.3000000715256","","","","","2","html-slider-response","127","","","","2",""
"40792","bucket","baga,kiatu,ijayo,init","kiatu","v","2","html-keyboard-response","128","v","kiatu","true","",""
"5083.5","","","","","2","html-slider-response","129","","","","4",""
"9432","book","kuhesa,picha,mali,mara","mali","j","2","html-keyboard-response","130","j","mali","true","",""
"3221.4000000953674","","","","","2","html-slider-response","131","","","","4",""
"8443","mirror","rangi,kanding,sulagma,furaha","sulagma","j","2","html-keyboard-response","132","j","sulagma","true","",""
"2993.399999976158","","","","","2","html-slider-response","133","","","","2",""
"10484","office","leso,hazini,yatima,kuna","leso","f","2","html-keyboard-response","134","f","leso","true","",""
"3261.899999976158","","","","","2","html-slider-response","135","","","","2",""
"10132","body","tindashan,nyundu,jibini,kununa","tindashan","f","2","html-keyboard-response","136","j","jibini","false","",""
"3033.399999976158","","","","","2","html-slider-response","137","","","","2",""
"6238","perfume","bino,sungura,ndogo,katuyoan","katuyoan","n","2","html-keyboard-response","138","n","katuyoan","true","",""
"3035.5","","","","","2","html-slider-response","139","","","","2",""
"7519","olive","jiwe,bata,siagi,welder","jiwe","f","2","html-keyboard-response","140","f","jiwe","true","",""
"3111","","","","","2","html-slider-response","141","","","","4",""
"6690","magazine","gundi,mchawi,bahandi,kiti","kiti","n","2","html-keyboard-response","142","n","kiti","true","",""
"3064.1999999284744","","","","","2","html-slider-response","143","","","","4",""
"9437","bread","kaili,dizeli,dari,bugas","dari","j","2","html-keyboard-response","144","f","kaili","false","",""
"5883.700000047684","","","","","2","html-slider-response","145","","","","2",""
"7310","cave","ganti,kesho,maisha,nyundo","kesho","v","2","html-keyboard-response","146","v","kesho","true","",""
"3643.399999976158","","","","","2","html-slider-response","147","","","","2",""
"3665","ladder","mashua,pangalan,mwanga,kamba","pangalan","v","2","html-keyboard-response","148","v","pangalan","true","",""
"6500.299999952316","","","","","2","html-slider-response","149","","","","2",""
"8585","human","bado,kikapu,punguza,tinapay","tinapay","n","2","html-keyboard-response","150","n","tinapay","true","",""
"5243.100000023842","","","","","2","html-slider-response","151","","","","4",""
"10571","clock","kartasi,mbwa,abang,osha","mbwa","v","2","html-keyboard-response","152","v","mbwa","true","",""
"3304","","","","","2","html-slider-response","153","","","","2",""
"3271","shelf","pamahaw,bungtod,kadaot,awit","pamahaw","f","2","html-keyboard-response","154","n","awit","false","",""
"4112","","","","","2","html-slider-response","155","","","","2",""
"35959","salmon","mzungu,seri,sensilyo,baharia","sensilyo","j","2","html-keyboard-response","156","j","sensilyo","true","",""
"2538.5999999046326","","","","","2","html-slider-response","157","","","","2",""
"4339","coffin","barua,tubag,hulma,kioo","kioo","n","2","html-keyboard-response","158","n","kioo","true","",""
"5080.300000071526","","","","","2","html-slider-response","159","","","","2",""
"24058","notebook","kemia,msitu,kila,mdudu","kemia","f","2","html-keyboard-response","160","f","kemia","true","",""
"2798.5999999046326","","","","","2","html-slider-response","161","","","","4",""
"21905","shoulder","mkuu,kelele,ndaniya,guruwe","mkuu","f","2","html-keyboard-response","162","v","kelele","false","",""
"3525.8000000715256","","","","","2","html-slider-response","163","","","","2",""
"14768","park","tambok,bunifu,pwani,ihalas","bunifu","v","2","html-keyboard-response","164","n","ihalas","false","",""
"3610.399999976158","","","","","2","html-slider-response","165","","","","2",""
"6089","number","shule,mundamo,kengele,choori","mundamo","v","2","html-keyboard-response","166","f","shule","false","",""
"3682.600000023842","","","","","2","html-slider-response","167","","","","2",""
"3853","apple","ukame,estante,edad,kisu","kisu","n","2","html-keyboard-response","168","n","kisu","true","",""
"4691.299999952316","","","","","2","html-slider-response","169","","","","4",""
"9724","letter","filimbi,chuma,uhuru,kifua","kifua","n","2","html-keyboard-response","170","n","kifua","true","",""
"3384.2000000476837","","","","","2","html-slider-response","171","","","","4",""
"5197","eel","msumari,ishara,kunywa,kabuang","msumari","f","2","html-keyboard-response","172","n","kabuang","false","",""
"3515.100000023842","","","","","2","html-slider-response","173","","","","2",""
"5203","cop","bustani,jikoni,bakus,mechezo","mechezo","n","2","html-keyboard-response","174","n","mechezo","true","",""
"3801.2000000476837","","","","","2","html-slider-response","175","","","","2",""
"7826","wolf","kaburi,ndizi,lugha,mchuzi","lugha","j","2","html-keyboard-response","176","v","ndizi","false","",""
"4171.600000023842","","","","","2","html-slider-response","177","","","","2",""
"5053","squirrel","mahugaw,ukweli,hofu,kichwa","hofu","j","2","html-keyboard-response","178","j","hofu","true","",""
"6490.600000023842","","","","","2","html-slider-response","179","","","","2",""
"6654","nose","gubat,kopa,sehemu,kidole","sehemu","j","2","html-keyboard-response","180","j","sehemu","true","",""
"2668.1999999284744","","","","","2","html-slider-response","181","","","","4",""
"17766","sock","ndoora,kimysa,mtirka,mamba","mamba","n","2","html-keyboard-response","182","f","ndoora","false","",""
"2873.600000023842","","","","","2","html-slider-response","183","","","","2",""
"3959","bank","silingan,kudhibi,tualya,ofisi","silingan","f","2","html-keyboard-response","184","f","silingan","true","",""
"3944.6999999284744","","","","","2","html-slider-response","185","","","","4",""
"6038","donkey","bloke,elfu,lalake,rombus","elfu","v","2","html-keyboard-response","186","v","elfu","true","",""
"4465.700000047684","","","","","2","html-slider-response","187","","","","2",""
"3639","poster","nchi,fedha,kasuko,madungog","madungog","n","2","html-keyboard-response","188","v","fedha","false","",""
"3911.100000023842","","","","","2","html-slider-response","189","","","","2",""
"7756","puppet","napulo,lamok,mazishi,godoro","mazishi","j","2","html-keyboard-response","190","n","godoro","false","",""
"4772.899999976158","","","","","2","html-slider-response","191","","","","2",""
"4382","hill","kushoto,matumbo,kukimba,sweta","matumbo","v","2","html-keyboard-response","192","v","matumbo","true","",""
"3225.5","","","","","2","html-slider-response","193","","","","4",""
"5643","tooth","kijiko,uadui,kabalaka,pahiyum","kabalaka","j","2","html-keyboard-response","194","v","uadui","false","",""
"2538.5","","","","","2","html-slider-response","195","","","","2",""
"4452","woman","bandari,bituin,pagtabon,kovuli","pagtabon","j","2","html-keyboard-response","196","j","pagtabon","true","",""
"3886.5","","","","","2","html-slider-response","197","","","","2",""
"5155","wheel","bafuni,punda,tawo,baadaye","bafuni","f","2","html-keyboard-response","198","v","punda","false","",""
"2504","","","","","2","html-slider-response","199","","","","2",""
"4071","mother","kahawa,mbuzi,babaye,jokofu","babaye","j","2","html-keyboard-response","200","j","babaye","true","",""
"4483.399999976158","","","","","2","html-slider-response","201","","","","2",""
"3673","bed","kalipay,haraka,mapintas,starehe","mapintas","j","2","html-keyboard-response","202","n","starehe","false","",""
"3057.899999976158","","","","","2","html-slider-response","203","","","","2",""
"5691","key","miaka,chombo,goma,ahos","chombo","v","2","html-keyboard-response","204","n","ahos","false","",""
"2891.399999976158","","","","","2","html-slider-response","205","","","","2",""
"6852","page","wimbo,wakala,ishiri,skina","wimbo","f","2","html-keyboard-response","206","j","ishiri","false","",""
"2291.7999999523163","","","","","2","html-slider-response","207","","","","2",""
"6471","pants","haki,pintal,chuki,hari","haki","f","2","html-keyboard-response","208","n","hari","false","",""
"2379.100000023842","","","","","2","html-slider-response","209","","","","2",""
"7068","sun","bendi,luha,uongo,basi","basi","n","2","html-keyboard-response","210","v","luha","false","",""
"3589.1999999284744","","","","","2","html-slider-response","211","","","","4",""
"5199","finger","simu,sufuria,moyo,lima","moyo","j","2","html-keyboard-response","212","n","lima","false","",""
"3580.899999976158","","","","","2","html-slider-response","213","","","","4",""
"5441","shoe","nyeusi,uyoga,hatua,kama","uyoga","v","2","html-keyboard-response","214","j","hatua","false","",""
"3203.7000000476837","","","","","2","html-slider-response","215","","","","2",""
"5891","giraffe","daraja,jumatu,mahitabo,hangyo","mahitabo","j","2","html-keyboard-response","216","n","hangyo","false","",""
"4679.300000071526","","","","","2","html-slider-response","217","","","","2",""
"2850","dog","lubi,bahari,washia,kalamu","bahari","v","2","html-keyboard-response","218","v","bahari","true","",""
"5281.100000023842","","","","","2","html-slider-response","219","","","","5",""
"10030","box","kuacha,adui,rafiki,kitande","adui","v","2","html-keyboard-response","220","n","kitande","false","",""
"2388.0999999046326","","","","","2","html-slider-response","221","","","","2",""
"5300","scissors","duga,mtawa,tanuri,suga","tanuri","j","2","html-keyboard-response","222","n","suga","false","",""
"4010.600000023842","","","","","2","html-slider-response","223","","","","2",""
"4202","cat","neyemba,paghukom,baki,akili","paghukom","v","2","html-keyboard-response","224","n","akili","false","",""
"2533.5","","","","","2","html-slider-response","225","","","","2",""
"4461","basket","kumbuka,utepe,hasira,kumba","kumba","n","2","html-keyboard-response","226","v","utepe","false","",""
"2656.5","","","","","2","html-slider-response","227","","","","4",""
"3675","snake","jansa,pagtukod,karon,mvringo","pagtukod","v","2","html-keyboard-response","228","v","pagtukod","true","",""
"2291","","","","","2","html-slider-response","229","","","","2",""
"3253","gift","pagtawag,baba,nyange,baso","pagtawag","f","2","html-keyboard-response","230","n","baso","false","",""
"2352.2999999523163","","","","","2","html-slider-response","231","","","","2",""
"4004","train","itik,sayari,dakika,mungu","sayari","v","2","html-keyboard-response","232","n","mungu","false","",""
"2354.8000000715256","","","","","2","html-slider-response","233","","","","2",""
"4863","pudding","abug,aibu,mpishi,iring","aibu","v","2","html-keyboard-response","234","v","aibu","true","",""
"2305.899999976158","","","","","2","html-slider-response","235","","","","2",""
"3857","tomato","mvua,chupi,chupa,takatak","mvua","f","2","html-keyboard-response","236","f","mvua","true","",""
"2395.0999999046326","","","","","2","html-slider-response","237","","","","2",""
"2976","stone","ulimwengu,mkasi,wingi,asili","wingi","j","2","html-keyboard-response","238","f","ulimwengu","false","",""
"2292.9000000953674","","","","","2","html-slider-response","239","","","","2",""
"2374","hammer","mekno,kitovu,layag,napakyas","napakyas","n","2","html-keyboard-response","240","v","kitovu","false","",""
"2480.7000000476837","","","","","2","html-slider-response","241","","","","2",""
"2271","knee","mvuke,kubale,bili,duka","duka","n","2","html-keyboard-response","242","n","duka","true","",""
"2260.3000000715256","","","","","2","html-slider-response","243","","","","2",""
"3060","ceiling","kugita,kawaida,maua,rayna","maua","j","2","html-keyboard-response","244","n","rayna","false","",""
"2561.7999999523163","","","","","2","html-slider-response","245","","","","2",""
"2418","spoon","betri,nzuri,ngazi,pagsulod","pagsulod","n","2","html-keyboard-response","246","v","nzuri","false","",""
"3805.899999976158","","","","","2","html-slider-response","247","","","","2",""
"2684","marker","maji,mapafu,salita,atay","maji","f","2","html-keyboard-response","248","j","salita","false","",""
"4915.100000023842","","","","","2","html-slider-response","249","","","","2",""
"14463","candle","gabi,farasi,geza,kupanda","geza","j","2","html-keyboard-response","250","j","geza","true","",""
"2765.2999999523163","","","","","2","html-slider-response","251","","","","2",""
"3607","tissue","lamigas,kisiwa,katika,ugomvi","ugomvi","n","2","html-keyboard-response","252","j","katika","false","",""
"2160.7999999523163","","","","","2","html-slider-response","253","","","","2",""
"12304","bridge","daima,ngono,panya,sahani","sahani","n","2","html-keyboard-response","254","v","ngono","false","",""
"3773.7999999523163","","","","","2","html-slider-response","255","","","","2",""
"4535","berry","abogado,nogozi,kofia,kinywa","kofia","j","2","html-keyboard-response","256","v","nogozi","false","",""
"2296","","","","","2","html-slider-response","257","","","","2",""
"9600","triangle","kihozi,bentaha,kasadpan,liog","kasadpan","j","2","html-keyboard-response","258","f","kihozi","false","",""
"2346.2000000476837","","","","","2","html-slider-response","259","","","","2",""
"14008","door","tena,soko,nyota,surali","surali","n","2","html-keyboard-response","260","n","surali","true","",""
"3249.2000000476837","","","","","2","html-slider-response","261","","","","2",""
"8434","fish","bala,buli,baho,imani","buli","v","2","html-keyboard-response","262","v","buli","true","",""
"3374.3000000715256","","","","","2","html-slider-response","263","","","","4",""
"4810","curtain","lisud,mchanga,bulwawan,chubani","mchanga","v","2","html-keyboard-response","264","j","bulwawan","false","",""
"3252.399999976158","","","","","2","html-slider-response","265","","","","4",""
"5484","flag","ndege,mkate,kawa,trekta","trekta","n","2","html-keyboard-response","266","n","trekta","true","",""
"4132.699999928474","","","","","2","html-slider-response","267","","","","2",""
"5971","boat","hamsi,pombe,agalon,kitanda","agalon","j","2","html-keyboard-response","268","j","agalon","true","",""
"2998","","","","","2","html-slider-response","269","","","","2",""
"4569","rose","singizi,mwanake,paghalad,amani","paghalad","j","2","html-keyboard-response","270","j","paghalad","true","",""
"2273.7000000476837","","","","","2","html-slider-response","271","","","","2",""
"5952","lamp","daub,bilaska,mbolea,afya","afya","n","2","html-keyboard-response","272","n","afya","true","",""
"2640.5","","","","","2","html-slider-response","273","","","","2",""
"3897","cigar","adhabu,ndugu,kuta,mlango","adhabu","f","2","html-keyboard-response","274","f","adhabu","true","",""
"3261.100000023842","","","","","2","html-slider-response","275","","","","4",""
"4524","list","alizeti,kuzama,wingu,kaso","wingu","j","2","html-keyboard-response","276","j","wingu","true","",""
"2269.5","","","","","2","html-slider-response","277","","","","2",""
"3053","sheet","juuya,watu,kamantis,bililhon","bililhon","n","2","html-keyboard-response","278","f","juuya","false","",""
"2127.5","","","","","2","html-slider-response","279","","","","2",""
"3890","picture","silya,kubwa,chaki,asin","kubwa","v","2","html-keyboard-response","280","n","asin","false","",""
"2205.5","","","","","2","html-slider-response","281","","","","2",""
"5282","towel","tembo,funzi,pito,pagpalit","pagpalit","n","2","html-keyboard-response","282","f","tembo","false","",""
"2219.1999999284744","","","","","2","html-slider-response","283","","","","2",""
"4827","window","nanga,kweli,kujenga,umaga","kweli","v","2","html-keyboard-response","284","n","umaga","false","",""
"2419.100000023842","","","","","2","html-slider-response","285","","","","2",""
"53597","box","kuacha,rafiki,adui,kitande","adui","j","3","html-keyboard-response","293","j","adui","true","","4"
"4239.800000071526","","","","","3","html-slider-response","294","","","","4",""
"6718","","","","","3","html-keyboard-response","295","","","","",""
"77326","pants","haki,pintal,chuki,hari","haki","f","3","html-keyboard-response","296","n","hari","false","","4"
"3616.100000023842","","","","","3","html-slider-response","297","","","","4",""
"12639","","","","","3","html-keyboard-response","298","","","","",""
"15577","cup","matumai,dagat,shimoni,jeraha","matumai","f","3","html-keyboard-response","299","n","jeraha","false","","4"
"3160.600000023842","","","","","3","html-slider-response","300","","","","2",""
"6091","","","","","3","html-keyboard-response","301","","","","",""
"4836","triangle","kihozi,bentaha,liog,kasadpan","kasadpan","n","3","html-keyboard-response","302","f","kihozi","false","","4"
"2885.7999999523163","","","","","3","html-slider-response","303","","","","2",""
"5138","","","","","3","html-keyboard-response","304","","","","",""
"21257","curtain","lisud,bulwawan,mchanga,chubani","mchanga","j","3","html-keyboard-response","305","n","chubani","false","","4"
"4569.399999976158","","","","","3","html-slider-response","306","","","","2",""
"8670","","","","","3","html-keyboard-response","307","","","","",""
"11373","clock","mbwa,kartasi,abang,osha","mbwa","f","3","html-keyboard-response","308","f","mbwa","true","","4"
"3686.5","","","","","3","html-slider-response","309","","","","2",""
"1366","","","","","3","html-keyboard-response","310","","","","",""
"16243","mirror","rangi,sulagma,kanding,furaha","sulagma","v","3","html-keyboard-response","311","v","sulagma","true","","4"
"4016","","","","","3","html-slider-response","312","","","","2",""
"1718","","","","","3","html-keyboard-response","313","","","","",""
"22674","coffin","barua,tubag,kioo,hulma","kioo","j","3","html-keyboard-response","314","j","kioo","true","","1"
"3654.399999976158","","","","","3","html-slider-response","315","","","","5",""
"1103","","","","","3","html-keyboard-response","316","","","","",""
"18150","magazine","gundi,mchawi,bahandi,kiti","kiti","n","3","html-keyboard-response","317","n","kiti","true","","4"
"2711","","","","","3","html-slider-response","318","","","","4",""
"1939","","","","","3","html-keyboard-response","319","","","","",""
"8422","column","pundok,dila,ufagio,pala","ufagio","j","3","html-keyboard-response","320","j","ufagio","true","","1"
"4426.600000023842","","","","","3","html-slider-response","321","","","","5",""
"1880","","","","","3","html-keyboard-response","322","","","","",""
"22311","number","shule,kengele,mundamo,choori","mundamo","j","3","html-keyboard-response","323","n","choori","false","","4"
"2699.100000023842","","","","","3","html-slider-response","324","","","","2",""
"1456","","","","","3","html-keyboard-response","325","","","","",""
"40786","rose","singizi,paghalad,mwanake,amani","paghalad","v","3","html-keyboard-response","326","v","paghalad","true","","4"
"6934.600000023842","","","","","3","html-slider-response","327","","","","2",""
"4347","","","","","3","html-keyboard-response","328","","","","",""
"26742","eel","ishara,msumari,kunywa,kabuang","msumari","v","3","html-keyboard-response","329","v","msumari","true","","4"
"3149.100000023842","","","","","3","html-slider-response","330","","","","2",""
"863","","","","","3","html-keyboard-response","331","","","","",""
"3602","gift","pagtawag,baba,nyange,baso","pagtawag","f","3","html-keyboard-response","332","n","baso","false","","4"
"2799.899999976158","","","","","3","html-slider-response","333","","","","4",""
"965","","","","","3","html-keyboard-response","334","","","","",""
"29602","apple","kisu,ukame,estante,edad","kisu","f","3","html-keyboard-response","335","f","kisu","true","","1"
"4529.399999976158","","","","","3","html-slider-response","336","","","","5",""
"938","","","","","3","html-keyboard-response","337","","","","",""
"2232","wheel","punda,bafuni,tawo,baadaye","bafuni","v","3","html-keyboard-response","338","v","bafuni","true","","1"
"2963.3000000715256","","","","","3","html-slider-response","339","","","","5",""
"1020","","","","","3","html-keyboard-response","340","","","","",""
"3271","knee","mvuke,duka,kubale,bili","duka","v","3","html-keyboard-response","341","n","bili","false","","4"
"3062","","","","","3","html-slider-response","342","","","","2",""
"1154","","","","","3","html-keyboard-response","343","","","","",""
"2024","basket","kumbuka,kumba,utepe,hasira","kumba","v","3","html-keyboard-response","344","v","kumba","true","","1"
"3349.3000000715256","","","","","3","html-slider-response","345","","","","5",""
"1282","","","","","3","html-keyboard-response","346","","","","",""
"4049","park","tambok,pwani,ihalas,bunifu","bunifu","n","3","html-keyboard-response","347","j","ihalas","false","","4"
"3868.899999976158","","","","","3","html-slider-response","348","","","","2",""
"1372","","","","","3","html-keyboard-response","349","","","","",""
"3197","finger","simu,sufuria,lima,moyo","moyo","n","3","html-keyboard-response","350","v","sufuria","false","","4"
"2746.100000023842","","","","","3","html-slider-response","351","","","","2",""
"1569","","","","","3","html-keyboard-response","352","","","","",""
"3336","boat","agalon,hamsi,pombe,kitanda","agalon","f","3","html-keyboard-response","353","j","pombe","false","","4"
"2585.4000000953674","","","","","3","html-slider-response","354","","","","2",""
"1239","","","","","3","html-keyboard-response","355","","","","",""
"6792","hill","kushoto,kukimba,matumbo,sweta","matumbo","j","3","html-keyboard-response","356","f","kushoto","false","","4"
"3805.899999976158","","","","","3","html-slider-response","357","","","","2",""
"2000","","","","","3","html-keyboard-response","358","","","","",""
"3485","train","itik,dakika,mungu,sayari","sayari","n","3","html-keyboard-response","359","f","itik","false","","4"
"2495.5","","","","","3","html-slider-response","360","","","","2",""
"1161","","","","","3","html-keyboard-response","361","","","","",""
"26292","wolf","lugha,kaburi,ndizi,mchuzi","lugha","f","3","html-keyboard-response","362","f","lugha","true","","4"
"3492.899999976158","","","","","3","html-slider-response","363","","","","4",""
"1208","","","","","3","html-keyboard-response","364","","","","",""
"20317","snake","jansa,karon,mvringo,pagtukod","pagtukod","n","3","html-keyboard-response","365","v","karon","false","","4"
"2445.5999999046326","","","","","3","html-slider-response","366","","","","4",""
"1062","","","","","3","html-keyboard-response","367","","","","",""
"3505","tooth","kijiko,uadui,kabalaka,pahiyum","kabalaka","j","3","html-keyboard-response","368","f","kijiko","false","","4"
"2461.5","","","","","3","html-slider-response","369","","","","2",""
"720","","","","","3","html-keyboard-response","370","","","","",""
"36486","notebook","msitu,kila,kemia,mdudu","kemia","j","3","html-keyboard-response","371","j","kemia","true","","4"
"2567.3000000715256","","","","","3","html-slider-response","372","","","","4",""
"1001","","","","","3","html-keyboard-response","373","","","","",""
"3510","flag","ndege,mkate,trekta,kawa","trekta","j","3","html-keyboard-response","374","n","kawa","false","","4"
"6138.899999976158","","","","","3","html-slider-response","375","","","","2",""
"1212","","","","","3","html-keyboard-response","376","","","","",""
"3356","squirrel","mahugaw,ukweli,hofu,kichwa","hofu","j","3","html-keyboard-response","377","j","hofu","true","","4"
"2261.399999976158","","","","","3","html-slider-response","378","","","","2",""
"2005","","","","","3","html-keyboard-response","379","","","","",""
"2950","door","tena,surali,soko,nyota","surali","v","3","html-keyboard-response","380","j","soko","false","","4"
"2425","","","","","3","html-slider-response","381","","","","2",""
"1870","","","","","3","html-keyboard-response","382","","","","",""
"11666","salmon","mzungu,seri,sensilyo,baharia","sensilyo","j","3","html-keyboard-response","383","j","sensilyo","true","","4"
"3748.5","","","","","3","html-slider-response","384","","","","4",""
"1185","","","","","3","html-keyboard-response","385","","","","",""
"3123","shoulder","mkuu,kelele,ndaniya,guruwe","mkuu","f","3","html-keyboard-response","386","v","kelele","false","","4"
"3454.8000000715256","","","","","3","html-slider-response","387","","","","2",""
"939","","","","","3","html-keyboard-response","388","","","","",""
"3105","lamp","daub,bilaska,afya,mbolea","afya","j","3","html-keyboard-response","389","f","daub","false","","4"
"2314.7999999523163","","","","","3","html-slider-response","390","","","","2",""
"679","","","","","3","html-keyboard-response","391","","","","",""
"2446","shelf","pamahaw,bungtod,kadaot,awit","pamahaw","f","3","html-keyboard-response","392","f","pamahaw","true","","1"
"4083.2999999523163","","","","","3","html-slider-response","393","","","","5",""
"1119","","","","","3","html-keyboard-response","394","","","","",""
"3649","human","tinapay,bado,kikapu,punguza","tinapay","f","3","html-keyboard-response","395","j","kikapu","false","","4"
"4118.199999928474","","","","","3","html-slider-response","396","","","","2",""
"426","","","","","3","html-keyboard-response","397","","","","",""
"3832","towel","tembo,funzi,pito,pagpalit","pagpalit","n","3","html-keyboard-response","398","j","pito","false","","4"
"2288.5","","","","","3","html-slider-response","399","","","","4",""
"2182","","","","","3","html-keyboard-response","400","","","","",""
"4561","cat","neyemba,paghukom,baki,akili","paghukom","v","3","html-keyboard-response","401","j","baki","false","","4"
"2458.5","","","","","3","html-slider-response","402","","","","4",""
"1432","","","","","3","html-keyboard-response","403","","","","",""
"4496","spider","bunyag,mkboa,atop,kamwe","kamwe","n","3","html-keyboard-response","404","f","bunyag","false","","4"
"2862.399999976158","","","","","3","html-slider-response","405","","","","2",""
"627","","","","","3","html-keyboard-response","406","","","","",""
"5002","window","nanga,kweli,kujenga,umaga","kweli","v","3","html-keyboard-response","407","v","kweli","true","","4"
"3012.2999999523163","","","","","3","html-slider-response","408","","","","2",""
"1557","","","","","3","html-keyboard-response","409","","","","",""
"2178","woman","pagtabon,bandari,bituin,kovuli","pagtabon","f","3","html-keyboard-response","410","f","pagtabon","true","","1"
"2968","","","","","3","html-slider-response","411","","","","5",""
"1031","","","","","3","html-keyboard-response","412","","","","",""
"4982","giraffe","daraja,jumatu,mahitabo,hangyo","mahitabo","j","3","html-keyboard-response","413","f","daraja","false","","4"
"2777.399999976158","","","","","3","html-slider-response","414","","","","2",""
"455","","","","","3","html-keyboard-response","415","","","","",""
"7339","elephant","petye,pagduol,suka,kito","kito","n","3","html-keyboard-response","416","f","petye","false","","4"
"4417.5","","","","","3","html-slider-response","417","","","","2",""
"1593","","","","","3","html-keyboard-response","418","","","","",""
"2971","cave","ganti,maisha,kesho,nyundo","kesho","j","3","html-keyboard-response","419","v","maisha","false","","4"
"2907","","","","","3","html-slider-response","420","","","","2",""
"1236","","","","","3","html-keyboard-response","421","","","","",""
"4897","bread","kaili,dizeli,dari,bugas","dari","j","3","html-keyboard-response","422","n","bugas","false","","4"
"2458.2999999523163","","","","","3","html-slider-response","423","","","","2",""
"1065","","","","","3","html-keyboard-response","424","","","","",""
"5531","stone","ulimwengu,mkasi,wingi,asili","wingi","j","3","html-keyboard-response","425","n","asili","false","","4"
"2359","","","","","3","html-slider-response","426","","","","2",""
"1249","","","","","3","html-keyboard-response","427","","","","",""
"2802","donkey","elfu,bloke,lalake,rombus","elfu","f","3","html-keyboard-response","428","j","lalake","false","","4"
"2358.2999999523163","","","","","3","html-slider-response","429","","","","2",""
"1284","","","","","3","html-keyboard-response","430","","","","",""
"3872","bridge","sahani,daima,ngono,panya","sahani","f","3","html-keyboard-response","431","f","sahani","true","","4"
"2145.600000023842","","","","","3","html-slider-response","432","","","","2",""
"1166","","","","","3","html-keyboard-response","433","","","","",""
"5590","bonfire","goti,mwezi,mfuko,kusanya","goti","f","3","html-keyboard-response","434","v","mwezi","false","","4"
"4384.100000023842","","","","","3","html-slider-response","435","","","","2",""
"958","","","","","3","html-keyboard-response","436","","","","",""
"19307","book","kuhesa,picha,mali,mara","mali","j","3","html-keyboard-response","437","j","mali","true","","4"
"3580.100000023842","","","","","3","html-slider-response","438","","","","5",""
"924","","","","","3","html-keyboard-response","439","","","","",""
"4045","fish","bala,baho,imani,buli","buli","n","3","html-keyboard-response","440","j","imani","false","","4"
"2353.600000023842","","","","","3","html-slider-response","441","","","","2",""
"353","","","","","3","html-keyboard-response","442","","","","",""
"3372","spoon","betri,nzuri,ngazi,pagsulod","pagsulod","n","3","html-keyboard-response","443","n","pagsulod","true","","4"
"2624.5","","","","","3","html-slider-response","444","","","","2",""
"1331","","","","","3","html-keyboard-response","445","","","","",""
"2767","scissors","duga,mtawa,tanuri,suga","tanuri","j","3","html-keyboard-response","446","n","suga","false","","4"
"2882.100000023842","","","","","3","html-slider-response","447","","","","2",""
"726","","","","","3","html-keyboard-response","448","","","","",""
"4362","page","wakala,ishiri,skina,wimbo","wimbo","n","3","html-keyboard-response","449","v","ishiri","false","","4"
"3119.600000023842","","","","","3","html-slider-response","450","","","","2",""
"1072","","","","","3","html-keyboard-response","451","","","","",""
"2114","nose","gubat,kopa,kidole,sehemu","sehemu","n","3","html-keyboard-response","452","n","sehemu","true","","1"
"3666.8000000715256","","","","","3","html-slider-response","453","","","","5",""
"892","","","","","3","html-keyboard-response","454","","","","",""
"3957","ceiling","kugita,kawaida,maua,rayna","maua","j","3","html-keyboard-response","455","f","kugita","false","","4"
"2305.5","","","","","3","html-slider-response","456","","","","2",""
"400","","","","","3","html-keyboard-response","457","","","","",""
"16007","bucket","kiatu,baga,ijayo,init","kiatu","f","3","html-keyboard-response","458","n","init","false","","4"
"2285","","","","","3","html-slider-response","459","","","","2",""
"857","","","","","3","html-keyboard-response","460","","","","",""
"1876","berry","abogado,nogozi,kofia,kinywa","kofia","j","3","html-keyboard-response","461","j","kofia","true","","1"
"3460.2999999523163","","","","","3","html-slider-response","462","","","","5",""
"936","","","","","3","html-keyboard-response","463","","","","",""
"1678","mother","kahawa,mbuzi,jokofu,babaye","babaye","n","3","html-keyboard-response","464","n","babaye","true","","1"
"4995.399999976158","","","","","3","html-slider-response","465","","","","5",""
"2169","","","","","3","html-keyboard-response","466","","","","",""
"3501","mosquito","isda,taras,martilyo,gutom","martilyo","j","3","html-keyboard-response","467","j","martilyo","true","","4"
"3590.399999976158","","","","","3","html-slider-response","468","","","","2",""
"2132","","","","","3","html-keyboard-response","469","","","","",""
"11817","perfume","bino,sungura,katuyoan,ndogo","katuyoan","j","3","html-keyboard-response","470","j","katuyoan","true","","4"
"2902.899999976158","","","","","3","html-slider-response","471","","","","4",""
"1146","","","","","3","html-keyboard-response","472","","","","",""
"2733","sheet","juuya,watu,bililhon,kamantis","bililhon","j","3","html-keyboard-response","473","v","watu","false","","4"
"2420.100000023842","","","","","3","html-slider-response","474","","","","4",""
"555","","","","","3","html-keyboard-response","475","","","","",""
"1906","puppet","mazishi,napulo,lamok,godoro","mazishi","f","3","html-keyboard-response","476","f","mazishi","true","","1"
"2839.5","","","","","3","html-slider-response","477","","","","5",""
"784","","","","","3","html-keyboard-response","478","","","","",""
"3664","poster","madungog,nchi,fedha,kasuko","madungog","f","3","html-keyboard-response","479","v","nchi","false","","4"
"2373.1999999284744","","","","","3","html-slider-response","480","","","","2",""
"591","","","","","3","html-keyboard-response","481","","","","",""
"5457","music","mraba,mageho,baiski,tumbo","baiski","j","3","html-keyboard-response","482","j","baiski","true","","4"
"2239.7999999523163","","","","","3","html-slider-response","483","","","","4",""
"1210","","","","","3","html-keyboard-response","484","","","","",""
"3981","key","chombo,miaka,goma,ahos","chombo","f","3","html-keyboard-response","485","j","goma","false","","4"
"2654","","","","","3","html-slider-response","486","","","","2",""
"845","","","","","3","html-keyboard-response","487","","","","",""
"4115","sock","mamba,ndoora,kimysa,mtirka","mamba","f","3","html-keyboard-response","488","v","ndoora","false","","4"
"3670","","","","","3","html-slider-response","489","","","","2",""
"478","","","","","3","html-keyboard-response","490","","","","",""
"3560","marker","maji,mapafu,salita,atay","maji","f","3","html-keyboard-response","491","n","atay","false","","4"
"2284.7000000476837","","","","","3","html-slider-response","492","","","","2",""
"858","","","","","3","html-keyboard-response","493","","","","",""
"2510","office","hazini,yatima,kuna,leso","leso","n","3","html-keyboard-response","494","n","leso","true","","4"
"2490.100000023842","","","","","3","html-slider-response","495","","","","4",""
"969","","","","","3","html-keyboard-response","496","","","","",""
"6997","shoe","uyoga,nyeusi,hatua,kama","uyoga","f","3","html-keyboard-response","497","f","uyoga","true","","4"
"3290.100000023842","","","","","3","html-slider-response","498","","","","2",""
"852","","","","","3","html-keyboard-response","499","","","","",""
"4451","cop","bustani,jikoni,mechezo,bakus","mechezo","j","3","html-keyboard-response","500","v","jikoni","false","","4"
"3033.600000023842","","","","","3","html-slider-response","501","","","","2",""
"525","","","","","3","html-keyboard-response","502","","","","",""
"4134","bank","kudhibi,tualya,ofisi,silingan","silingan","n","3","html-keyboard-response","503","v","tualya","false","","4"
"2153.100000023842","","","","","3","html-slider-response","504","","","","2",""
"514","","","","","3","html-keyboard-response","505","","","","",""
"2099","letter","kifua,filimbi,chuma,uhuru","kifua","f","3","html-keyboard-response","506","f","kifua","true","","1"
"3216.2999999523163","","","","","3","html-slider-response","507","","","","5",""
"941","","","","","3","html-keyboard-response","508","","","","",""
"2673","dog","lubi,washia,bahari,kalamu","bahari","j","3","html-keyboard-response","509","j","bahari","true","","1"
"2795.6999999284744","","","","","3","html-slider-response","510","","","","5",""
"778","","","","","3","html-keyboard-response","511","","","","",""
"23106","shop","nopya,kerida,ndezu,samaki","samaki","n","3","html-keyboard-response","512","n","samaki","true","","4"
"2526.5","","","","","3","html-slider-response","513","","","","2",""
"1680","","","","","3","html-keyboard-response","514","","","","",""
"17194","flower","tamasha,lobo,bega,usiku","bega","j","3","html-keyboard-response","515","n","usiku","false","","4"
"2224.8000000715256","","","","","3","html-slider-response","516","","","","2",""
"497","","","","","3","html-keyboard-response","517","","","","",""
"1735","cigar","ndugu,adhabu,kuta,mlango","adhabu","v","3","html-keyboard-response","518","v","adhabu","true","","1"
"3021.6999999284744","","","","","3","html-slider-response","519","","","","5",""
"791","","","","","3","html-keyboard-response","520","","","","",""
"3067","hammer","mekno,kitovu,layag,napakyas","napakyas","n","3","html-keyboard-response","521","j","layag","false","","4"
"2723.399999976158","","","","","3","html-slider-response","522","","","","2",""
"1440","","","","","3","html-keyboard-response","523","","","","",""
"2755","fork","mgonjwa,baboy,paghago,gorisi","mgonjwa","f","3","html-keyboard-response","524","n","gorisi","false","","4"
"2986.7000000476837","","","","","3","html-slider-response","525","","","","2",""
"433","","","","","3","html-keyboard-response","526","","","","",""
"1605","sun","bendi,luha,basi,uongo","basi","j","3","html-keyboard-response","527","j","basi","true","","1"
"2909.899999976158","","","","","3","html-slider-response","528","","","","5",""
"737","","","","","3","html-keyboard-response","529","","","","",""
"3283","ladder","pangalan,mashua,mwanga,kamba","pangalan","f","3","html-keyboard-response","530","n","kamba","false","","4"
"2363.600000023842","","","","","3","html-slider-response","531","","","","2",""
"1337","","","","","3","html-keyboard-response","532","","","","",""
"1374","banana","kasamok,kazi,hagdan,twai","kazi","v","3","html-keyboard-response","533","v","kazi","true","","1"
"3065.100000023842","","","","","3","html-slider-response","534","","","","5",""
"1786","","","","","3","html-keyboard-response","535","","","","",""
"3477","pudding","abug,aibu,mpishi,iring","aibu","v","3","html-keyboard-response","536","n","iring","false","","4"
"2416.8000000715256","","","","","3","html-slider-response","537","","","","4",""
"542","","","","","3","html-keyboard-response","538","","","","",""
"17372","body","nyundu,jibini,tindashan,kununa","tindashan","j","3","html-keyboard-response","539","n","kununa","false","","4"
"2226.600000023842","","","","","3","html-slider-response","540","","","","2",""
"761","","","","","3","html-keyboard-response","541","","","","",""
"1887","bed","kalipay,haraka,mapintas,starehe","mapintas","j","3","html-keyboard-response","542","f","kalipay","false","","4"
"2358.100000023842","","","","","3","html-slider-response","543","","","","2",""
"800","","","","","3","html-keyboard-response","544","","","","",""
"3269","tissue","lamigas,kisiwa,katika,ugomvi","ugomvi","n","3","html-keyboard-response","545","j","katika","false","","4"
"2187.899999976158","","","","","3","html-slider-response","546","","","","2",""
"973","","","","","3","html-keyboard-response","547","","","","",""
"3540","candle","gabi,geza,farasi,kupanda","geza","v","3","html-keyboard-response","548","v","geza","true","","4"
"2656.2999999523163","","","","","3","html-slider-response","549","","","","2",""
"971","","","","","3","html-keyboard-response","550","","","","",""
"1723","tomato","chupi,chupa,mvua,takatak","mvua","j","3","html-keyboard-response","551","j","mvua","true","","1"
"2766.5","","","","","3","html-slider-response","552","","","","5",""
"757","","","","","3","html-keyboard-response","553","","","","",""
"3654","list","wingu,alizeti,kuzama,kaso","wingu","f","3","html-keyboard-response","554","v","alizeti","false","","4"
"2116.7999999523163","","","","","3","html-slider-response","555","","","","2",""
"425","","","","","3","html-keyboard-response","556","","","","",""
"41684","olive","bata,siagi,jiwe,welder","jiwe","j","3","html-keyboard-response","557","j","jiwe","true","","4"
"2402.100000023842","","","","","3","html-slider-response","558","","","","2",""
"1550","","","","","3","html-keyboard-response","559","","","","",""
"1704","picture","silya,chaki,kubwa,asin","kubwa","j","3","html-keyboard-response","560","j","kubwa","true","","1"
"2934.100000023842","","","","","3","html-slider-response","561","","","","5",""
"648","","","","","3","html-keyboard-response","562","","","","",""
"4380","page","wimbo,wakala,ishiri,skina","wimbo","f","4","html-keyboard-response","888","f","wimbo","true","",""
"3374.7999999523163","","","","","4","html-slider-response","889","","","","4",""
"3761","sheet","juuya,bililhon,watu,kamantis","bililhon","v","4","html-keyboard-response","890","f","juuya","false","",""
"2580.6999999284744","","","","","4","html-slider-response","891","","","","4",""
"3463","ladder","mashua,mwanga,kamba,pangalan","pangalan","n","4","html-keyboard-response","892","v","mwanga","false","",""
"2780.2000000476837","","","","","4","html-slider-response","893","","","","4",""
"3905","door","surali,tena,soko,nyota","surali","f","4","html-keyboard-response","894","n","nyota","false","",""
"2600.8000000715256","","","","","4","html-slider-response","895","","","","4",""
"4204","spider","bunyag,mkboa,atop,kamwe","kamwe","n","4","html-keyboard-response","896","n","kamwe","true","",""
"1950.1000000238419","","","","","4","html-slider-response","897","","","","4",""
"2520","picture","kubwa,silya,chaki,asin","kubwa","f","4","html-keyboard-response","898","v","silya","false","",""
"1855","","","","","4","html-slider-response","899","","","","2",""
"2427","boat","hamsi,pombe,kitanda,agalon","agalon","n","4","html-keyboard-response","900","n","agalon","true","",""
"2279.4000000953674","","","","","4","html-slider-response","901","","","","4",""
"4294","donkey","elfu,bloke,lalake,rombus","elfu","f","4","html-keyboard-response","902","f","elfu","true","",""
"2793.899999976158","","","","","4","html-slider-response","903","","","","4",""
"37693","book","kuhesa,picha,mali,mara","mali","j","4","html-keyboard-response","904","j","mali","true","",""
"4366.300000071526","","","","","4","html-slider-response","905","","","","4",""
"3485","cup","dagat,matumai,shimoni,jeraha","matumai","v","4","html-keyboard-response","906","j","shimoni","false","",""
"2135.2000000476837","","","","","4","html-slider-response","907","","","","4",""
"2684","sun","bendi,luha,basi,uongo","basi","j","4","html-keyboard-response","908","v","luha","false","",""
"3039.2999999523163","","","","","4","html-slider-response","909","","","","2",""
"2686","pudding","abug,mpishi,aibu,iring","aibu","j","4","html-keyboard-response","910","v","mpishi","false","",""
"2346.3000000715256","","","","","4","html-slider-response","911","","","","2",""
"13350","human","bado,kikapu,tinapay,punguza","tinapay","j","4","html-keyboard-response","912","j","tinapay","true","",""
"3327","","","","","4","html-slider-response","913","","","","5",""
"16558","squirrel","mahugaw,ukweli,hofu,kichwa","hofu","j","4","html-keyboard-response","914","f","mahugaw","false","",""
"2744.2000000476837","","","","","4","html-slider-response","915","","","","2",""
"3269","park","tambok,pwani,ihalas,bunifu","bunifu","n","4","html-keyboard-response","916","v","pwani","false","",""
"2193.6999999284744","","","","","4","html-slider-response","917","","","","4",""
"2621","poster","madungog,nchi,fedha,kasuko","madungog","f","4","html-keyboard-response","918","n","kasuko","false","",""
"2057.2999999523163","","","","","4","html-slider-response","919","","","","4",""
"8110","wolf","kaburi,ndizi,lugha,mchuzi","lugha","j","4","html-keyboard-response","920","j","lugha","true","",""
"2999","","","","","4","html-slider-response","921","","","","5",""
"11844","cat","neyemba,paghukom,baki,akili","paghukom","v","4","html-keyboard-response","922","n","akili","false","",""
"3740.100000023842","","","","","4","html-slider-response","923","","","","2",""
"2446","fish","bala,baho,imani,buli","buli","n","4","html-keyboard-response","924","n","buli","true","",""
"2724.100000023842","","","","","4","html-slider-response","925","","","","2",""
"3326","tooth","kijiko,kabalaka,uadui,pahiyum","kabalaka","v","4","html-keyboard-response","926","f","kijiko","false","",""
"3251.7000000476837","","","","","4","html-slider-response","927","","","","2",""
"3090","cave","kesho,ganti,maisha,nyundo","kesho","f","4","html-keyboard-response","928","j","maisha","false","",""
"2060.399999976158","","","","","4","html-slider-response","929","","","","2",""
"2806","lamp","daub,afya,bilaska,mbolea","afya","v","4","html-keyboard-response","930","v","afya","true","",""
"2118.2999999523163","","","","","4","html-slider-response","931","","","","2",""
"18710","banana","kasamok,hagdan,twai,kazi","kazi","n","4","html-keyboard-response","932","n","kazi","true","",""
"3525.7000000476837","","","","","4","html-slider-response","933","","","","2",""
"2757","bonfire","mwezi,mfuko,kusanya,goti","goti","n","4","html-keyboard-response","934","v","mfuko","false","",""
"2825.399999976158","","","","","4","html-slider-response","935","","","","2",""
"5658","cop","bustani,mechezo,jikoni,bakus","mechezo","v","4","html-keyboard-response","936","v","mechezo","true","",""
"2590.600000023842","","","","","4","html-slider-response","937","","","","4",""
"21795","marker","mapafu,salita,atay,maji","maji","n","4","html-keyboard-response","938","n","maji","true","",""
"2273.6999999284744","","","","","4","html-slider-response","939","","","","2",""
"21728","window","nanga,kujenga,kweli,umaga","kweli","j","4","html-keyboard-response","940","j","kweli","true","",""
"2783.3000000715256","","","","","4","html-slider-response","941","","","","2",""
"10863","body","nyundu,jibini,tindashan,kununa","tindashan","j","4","html-keyboard-response","942","j","tindashan","true","",""
"2910.7000000476837","","","","","4","html-slider-response","943","","","","2",""
"56971","apple","kisu,ukame,estante,edad","kisu","f","4","html-keyboard-response","944","f","kisu","true","",""
"3801.399999976158","","","","","4","html-slider-response","945","","","","4",""
"25170","salmon","mzungu,sensilyo,seri,baharia","sensilyo","v","4","html-keyboard-response","946","j","seri","false","",""
"2197.7000000476837","","","","","4","html-slider-response","947","","","","4",""
"3452","bed","kalipay,mapintas,haraka,starehe","mapintas","v","4","html-keyboard-response","948","j","haraka","false","",""
"2217.9000000953674","","","","","4","html-slider-response","949","","","","2",""
"3279","berry","abogado,nogozi,kofia,kinywa","kofia","j","4","html-keyboard-response","950","v","nogozi","false","",""
"1950.2000000476837","","","","","4","html-slider-response","951","","","","2",""
"23520","mirror","rangi,sulagma,kanding,furaha","sulagma","v","4","html-keyboard-response","952","v","sulagma","true","",""
"3550","","","","","4","html-slider-response","953","","","","4",""
"16385","flag","ndege,mkate,kawa,trekta","trekta","n","4","html-keyboard-response","954","n","trekta","true","",""
"2081.5","","","","","4","html-slider-response","955","","","","2",""
"2936","shoulder","kelele,ndaniya,mkuu,guruwe","mkuu","j","4","html-keyboard-response","956","f","kelele","false","",""
"2687.100000023842","","","","","4","html-slider-response","957","","","","2",""
"2627","tissue","lamigas,kisiwa,ugomvi,katika","ugomvi","j","4","html-keyboard-response","958","j","ugomvi","true","",""
"3627.9000000953674","","","","","4","html-slider-response","959","","","","2",""
"6492","notebook","msitu,kila,kemia,mdudu","kemia","j","4","html-keyboard-response","960","j","kemia","true","",""
"2404.600000023842","","","","","4","html-slider-response","961","","","","4",""
"13299","snake","jansa,pagtukod,karon,mvringo","pagtukod","v","4","html-keyboard-response","962","v","pagtukod","true","",""
"2050.8000000715256","","","","","4","html-slider-response","963","","","","4",""
"12067","finger","simu,sufuria,moyo,lima","moyo","j","4","html-keyboard-response","964","j","moyo","true","",""
"2149.5999999046326","","","","","4","html-slider-response","965","","","","4",""
"32731","basket","kumba,kumbuka,utepe,hasira","kumba","f","4","html-keyboard-response","966","n","hasira","false","",""
"2277.5999999046326","","","","","4","html-slider-response","967","","","","2",""
"2159","curtain","mchanga,lisud,bulwawan,chubani","mchanga","f","4","html-keyboard-response","968","v","lisud","false","",""
"2225.100000023842","","","","","4","html-slider-response","969","","","","2",""
"25721","perfume","bino,sungura,ndogo,katuyoan","katuyoan","n","4","html-keyboard-response","970","n","katuyoan","true","",""
"2242","","","","","4","html-slider-response","971","","","","4",""
"4072","key","miaka,chombo,goma,ahos","chombo","v","4","html-keyboard-response","972","j","goma","false","",""
"2584.600000023842","","","","","4","html-slider-response","973","","","","4",""
"10300","olive","jiwe,bata,siagi,welder","jiwe","f","4","html-keyboard-response","974","f","jiwe","true","",""
"2255.7999999523163","","","","","4","html-slider-response","975","","","","5",""
"16991","rose","singizi,mwanake,paghalad,amani","paghalad","j","4","html-keyboard-response","976","j","paghalad","true","",""
"2842.7000000476837","","","","","4","html-slider-response","977","","","","5",""
"2153","bridge","daima,ngono,panya,sahani","sahani","n","4","html-keyboard-response","978","n","sahani","true","",""
"2662.399999976158","","","","","4","html-slider-response","979","","","","4",""
"11045","hill","kushoto,kukimba,sweta,matumbo","matumbo","n","4","html-keyboard-response","980","n","matumbo","true","",""
"2580.600000023842","","","","","4","html-slider-response","981","","","","5",""
"4571","letter","filimbi,kifua,chuma,uhuru","kifua","v","4","html-keyboard-response","982","v","kifua","true","",""
"2183.5","","","","","4","html-slider-response","983","","","","5",""
"18915","sock","ndoora,mamba,kimysa,mtirka","mamba","v","4","html-keyboard-response","984","n","mtirka","false","",""
"3711.8000000715256","","","","","4","html-slider-response","985","","","","2",""
"3257","fork","baboy,paghago,mgonjwa,gorisi","mgonjwa","j","4","html-keyboard-response","986","v","paghago","false","",""
"2159.7000000476837","","","","","4","html-slider-response","987","","","","2",""
"13079","box","kuacha,rafiki,kitande,adui","adui","n","4","html-keyboard-response","988","n","adui","true","",""
"2867.9000000953674","","","","","4","html-slider-response","989","","","","5",""
"6503","gift","baba,nyange,pagtawag,baso","pagtawag","j","4","html-keyboard-response","990","j","pagtawag","true","",""
"2176.899999976158","","","","","4","html-slider-response","991","","","","5",""
"23864","bucket","baga,ijayo,kiatu,init","kiatu","j","4","html-keyboard-response","992","j","kiatu","true","",""
"2242.3000000715256","","","","","4","html-slider-response","993","","","","2",""
"14715","shop","samaki,nopya,kerida,ndezu","samaki","f","4","html-keyboard-response","994","v","nopya","false","",""
"2117.600000023842","","","","","4","html-slider-response","995","","","","2",""
"14855","puppet","napulo,mazishi,lamok,godoro","mazishi","v","4","html-keyboard-response","996","v","mazishi","true","",""
"4339.299999952316","","","","","4","html-slider-response","997","","","","4",""
"36518","nose","gubat,kopa,kidole,sehemu","sehemu","n","4","html-keyboard-response","998","n","sehemu","true","",""
"2382.5999999046326","","","","","4","html-slider-response","999","","","","4",""
"10664","music","baiski,mraba,mageho,tumbo","baiski","f","4","html-keyboard-response","1000","f","baiski","true","",""
"2135.7999999523163","","","","","4","html-slider-response","1001","","","","4",""
"2919","dog","lubi,washia,kalamu,bahari","bahari","n","4","html-keyboard-response","1002","n","bahari","true","",""
"2408","","","","","4","html-slider-response","1003","","","","4",""
"14117","eel","ishara,kunywa,msumari,kabuang","msumari","j","4","html-keyboard-response","1004","j","msumari","true","",""
"3012.600000023842","","","","","4","html-slider-response","1005","","","","4",""
"6526","number","shule,kengele,mundamo,choori","mundamo","j","4","html-keyboard-response","1006","n","choori","false","",""
"3383.7000000476837","","","","","4","html-slider-response","1007","","","","2",""
"2419","tomato","mvua,chupi,chupa,takatak","mvua","f","4","html-keyboard-response","1008","v","chupi","false","",""
"2168.600000023842","","","","","4","html-slider-response","1009","","","","2",""
"6419","coffin","kioo,barua,tubag,hulma","kioo","f","4","html-keyboard-response","1010","v","barua","false","",""
"2202.8000000715256","","","","","4","html-slider-response","1011","","","","2",""
"2823","knee","mvuke,kubale,bili,duka","duka","n","4","html-keyboard-response","1012","v","kubale","false","",""
"2044.4000000953674","","","","","4","html-slider-response","1013","","","","2",""
"12098","woman","bandari,pagtabon,bituin,kovuli","pagtabon","v","4","html-keyboard-response","1014","v","pagtabon","true","",""
"2402.399999976158","","","","","4","html-slider-response","1015","","","","4",""
"23585","stone","ulimwengu,wingi,mkasi,asili","wingi","v","4","html-keyboard-response","1016","j","mkasi","false","",""
"3367.899999976158","","","","","4","html-slider-response","1017","","","","4",""
"15930","bread","kaili,dari,dizeli,bugas","dari","v","4","html-keyboard-response","1018","n","bugas","false","",""
"2001.8000000715256","","","","","4","html-slider-response","1019","","","","2",""
"3142","triangle","kasadpan,kihozi,bentaha,liog","kasadpan","f","4","html-keyboard-response","1020","n","liog","false","",""
"3160.7999999523163","","","","","4","html-slider-response","1021","","","","2",""
"4010","scissors","tanuri,duga,mtawa,suga","tanuri","f","4","html-keyboard-response","1022","f","tanuri","true","",""
"2426.5","","","","","4","html-slider-response","1023","","","","2",""
"10095","giraffe","daraja,mahitabo,jumatu,hangyo","mahitabo","v","4","html-keyboard-response","1024","v","mahitabo","true","",""
"3307.7999999523163","","","","","4","html-slider-response","1025","","","","4",""
"22788","flower","bega,tamasha,lobo,usiku","bega","f","4","html-keyboard-response","1026","j","lobo","false","",""
"2452.7000000476837","","","","","4","html-slider-response","1027","","","","2",""
"79052","candle","gabi,farasi,geza,kupanda","geza","j","4","html-keyboard-response","1028","j","geza","true","",""
"2288.600000023842","","","","","4","html-slider-response","1029","","","","4",""
"7016","mother","kahawa,mbuzi,jokofu,babaye","babaye","n","4","html-keyboard-response","1030","n","babaye","true","",""
"2824.899999976158","","","","","4","html-slider-response","1031","","","","5",""
"4320","towel","pagpalit,tembo,funzi,pito","pagpalit","f","4","html-keyboard-response","1032","v","tembo","false","",""
"2620.7999999523163","","","","","4","html-slider-response","1033","","","","2",""
"9459","elephant","kito,petye,pagduol,suka","kito","f","4","html-keyboard-response","1034","f","kito","true","",""
"2901.7000000476837","","","","","4","html-slider-response","1035","","","","5",""
"4036","shelf","bungtod,kadaot,awit,pamahaw","pamahaw","n","4","html-keyboard-response","1036","j","awit","false","",""
"2135.2000000476837","","","","","4","html-slider-response","1037","","","","4",""
"3450","mosquito","isda,taras,martilyo,gutom","martilyo","j","4","html-keyboard-response","1038","j","martilyo","true","",""
"2251.3000000715256","","","","","4","html-slider-response","1039","","","","4",""
"2601","column","ufagio,pundok,dila,pala","ufagio","f","4","html-keyboard-response","1040","v","pundok","false","",""
"4715.700000047684","","","","","4","html-slider-response","1041","","","","2",""
"8474","pants","pintal,chuki,haki,hari","haki","j","4","html-keyboard-response","1042","n","hari","false","",""
"2202.9000000953674","","","","","4","html-slider-response","1043","","","","5",""
"4368","list","alizeti,kuzama,kaso,wingu","wingu","n","4","html-keyboard-response","1044","j","kaso","false","",""
"4608.100000023842","","","","","4","html-slider-response","1045","","","","2",""
"22892","bank","kudhibi,tualya,ofisi,silingan","silingan","n","4","html-keyboard-response","1046","n","silingan","true","",""
"2377.1999999284744","","","","","4","html-slider-response","1047","","","","5",""
"3411","clock","kartasi,abang,osha,mbwa","mbwa","n","4","html-keyboard-response","1048","j","osha","false","",""
"2742.899999976158","","","","","4","html-slider-response","1049","","","","2",""
"4739","ceiling","kugita,maua,kawaida,rayna","maua","v","4","html-keyboard-response","1050","j","kawaida","false","",""
"2586.100000023842","","","","","4","html-slider-response","1051","","","","2",""
"4435","train","itik,dakika,sayari,mungu","sayari","j","4","html-keyboard-response","1052","v","dakika","false","",""
"2730.100000023842","","","","","4","html-slider-response","1053","","","","4",""
"4338","magazine","gundi,mchawi,bahandi,kiti","kiti","n","4","html-keyboard-response","1054","v","mchawi","false","",""
"2736.4000000953674","","","","","4","html-slider-response","1055","","","","2",""
"19279","office","leso,hazini,yatima,kuna","leso","f","4","html-keyboard-response","1056","f","leso","true","",""
"2668.7000000476837","","","","","4","html-slider-response","1057","","","","4",""
"2365","wheel","punda,tawo,baadaye,bafuni","bafuni","n","4","html-keyboard-response","1058","v","tawo","false","",""
"5195.200000047684","","","","","4","html-slider-response","1059","","","","2",""
"4683","spoon","betri,nzuri,pagsulod,ngazi","pagsulod","j","4","html-keyboard-response","1060","v","nzuri","false","",""
"2188.2000000476837","","","","","4","html-slider-response","1061","","","","2",""
"4857","hammer","napakyas,mekno,kitovu,layag","napakyas","f","4","html-keyboard-response","1062","j","kitovu","false","",""
"2023.3999999761581","","","","","4","html-slider-response","1063","","","","2",""
"15140","cigar","adhabu,ndugu,kuta,mlango","adhabu","f","4","html-keyboard-response","1064","f","adhabu","true","",""
"2089.7999999523163","","","","","4","html-slider-response","1065","","","","5",""
"11658","shoe","nyeusi,hatua,kama,uyoga","uyoga","n","4","html-keyboard-response","1066","n","uyoga","true","",""
"2028.5","","","","","4","html-slider-response","1067","","","","5",""
"6173","list","wingu,alizeti,kuzama,kaso","wingu","f","5","html-keyboard-response","1069","v","alizeti","false","",""
"3782.5","","","","","5","html-slider-response","1070","","","","4",""
"3782","number","shule,mundamo,kengele,choori","mundamo","v","5","html-keyboard-response","1071","f","shule","false","",""
"2353.600000023842","","","","","5","html-slider-response","1072","","","","2",""
"19041","apple","ukame,estante,edad,kisu","kisu","n","5","html-keyboard-response","1073","n","kisu","true","",""
"2326","","","","","5","html-slider-response","1074","","","","4",""
"7962","knee","duka,mvuke,kubale,bili","duka","f","5","html-keyboard-response","1075","j","kubale","false","",""
"2811.399999976158","","","","","5","html-slider-response","1076","","","","4",""
"7795","tooth","kabalaka,kijiko,uadui,pahiyum","kabalaka","f","5","html-keyboard-response","1077","f","kabalaka","true","",""
"2195.7999999523163","","","","","5","html-slider-response","1078","","","","5",""
"7014","berry","abogado,nogozi,kofia,kinywa","kofia","j","5","html-keyboard-response","1079","j","kofia","true","",""
"3858.7000000476837","","","","","5","html-slider-response","1080","","","","2",""
"2141","bridge","daima,sahani,ngono,panya","sahani","v","5","html-keyboard-response","1081","v","sahani","true","",""
"2134.6999999284744","","","","","5","html-slider-response","1082","","","","2",""
"21857","perfume","bino,katuyoan,sungura,ndogo","katuyoan","v","5","html-keyboard-response","1083","v","katuyoan","true","",""
"3355.2999999523163","","","","","5","html-slider-response","1084","","","","4",""
"6488","ladder","mashua,pangalan,mwanga,kamba","pangalan","v","5","html-keyboard-response","1085","v","pangalan","true","",""
"3479.5","","","","","5","html-slider-response","1086","","","","5",""
"8192","pants","pintal,haki,chuki,hari","haki","v","5","html-keyboard-response","1087","n","hari","false","",""
"2467.899999976158","","","","","5","html-slider-response","1088","","","","5",""
"36048","salmon","mzungu,seri,baharia,sensilyo","sensilyo","n","5","html-keyboard-response","1089","n","sensilyo","true","",""
"2183.7999999523163","","","","","5","html-slider-response","1090","","","","4",""
"2909","coffin","barua,tubag,hulma,kioo","kioo","n","5","html-keyboard-response","1091","n","kioo","true","",""
"1975.5999999046326","","","","","5","html-slider-response","1092","","","","4",""
"3589","park","tambok,pwani,ihalas,bunifu","bunifu","n","5","html-keyboard-response","1093","f","tambok","false","",""
"3037.2999999523163","","","","","5","html-slider-response","1094","","","","2",""
"11273","giraffe","daraja,jumatu,hangyo,mahitabo","mahitabo","n","5","html-keyboard-response","1095","n","mahitabo","true","",""
"2993.2000000476837","","","","","5","html-slider-response","1096","","","","5",""
"16086","mirror","rangi,kanding,furaha,sulagma","sulagma","n","5","html-keyboard-response","1097","f","rangi","false","",""
"2908.5999999046326","","","","","5","html-slider-response","1098","","","","4",""
"2229","ceiling","maua,kugita,kawaida,rayna","maua","f","5","html-keyboard-response","1099","v","kugita","false","",""
"1946.1000000238419","","","","","5","html-slider-response","1100","","","","2",""
"2736","marker","mapafu,salita,maji,atay","maji","j","5","html-keyboard-response","1101","j","maji","true","",""
"1991.5","","","","","5","html-slider-response","1102","","","","2",""
"34733","sock","ndoora,kimysa,mamba,mtirka","mamba","j","5","html-keyboard-response","1103","n","mtirka","false","",""
"2231.3000000715256","","","","","5","html-slider-response","1104","","","","2",""
"6392","cop","mechezo,bustani,jikoni,bakus","mechezo","f","5","html-keyboard-response","1105","f","mechezo","true","",""
"2180.100000023842","","","","","5","html-slider-response","1106","","","","4",""
"17920","gift","baba,nyange,baso,pagtawag","pagtawag","n","5","html-keyboard-response","1107","n","pagtawag","true","",""
"2236.7999999523163","","","","","5","html-slider-response","1108","","","","4",""
"8666","notebook","msitu,kila,kemia,mdudu","kemia","j","5","html-keyboard-response","1109","j","kemia","true","",""
"3260.2000000476837","","","","","5","html-slider-response","1110","","","","4",""
"8399","bank","kudhibi,tualya,ofisi,silingan","silingan","n","5","html-keyboard-response","1111","n","silingan","true","",""
"2885.899999976158","","","","","5","html-slider-response","1112","","","","5",""
"3826","letter","filimbi,chuma,uhuru,kifua","kifua","n","5","html-keyboard-response","1113","j","uhuru","false","",""
"2110.7000000476837","","","","","5","html-slider-response","1114","","","","2",""
"4211","candle","gabi,farasi,kupanda,geza","geza","n","5","html-keyboard-response","1115","v","farasi","false","",""
"2266.899999976158","","","","","5","html-slider-response","1116","","","","4",""
"2875","bread","kaili,dizeli,dari,bugas","dari","j","5","html-keyboard-response","1117","f","kaili","false","",""
"3217","","","","","5","html-slider-response","1118","","","","4",""
"12519","snake","jansa,karon,mvringo,pagtukod","pagtukod","n","5","html-keyboard-response","1119","n","pagtukod","true","",""
"2032.5","","","","","5","html-slider-response","1120","","","","5",""
"8780","rose","singizi,mwanake,paghalad,amani","paghalad","j","5","html-keyboard-response","1121","j","paghalad","true","",""
"3392.2000000476837","","","","","5","html-slider-response","1122","","","","5",""
"11535","hill","kushoto,kukimba,matumbo,sweta","matumbo","j","5","html-keyboard-response","1123","j","matumbo","true","",""
"2170.7999999523163","","","","","5","html-slider-response","1124","","","","4",""
"8071","train","itik,dakika,sayari,mungu","sayari","j","5","html-keyboard-response","1125","f","itik","false","",""
"2014.8999999761581","","","","","5","html-slider-response","1126","","","","4",""
"8837","shop","nopya,kerida,ndezu,samaki","samaki","n","5","html-keyboard-response","1127","j","ndezu","false","",""
"2519.899999976158","","","","","5","html-slider-response","1128","","","","4",""
"21574","nose","gubat,kopa,kidole,sehemu","sehemu","n","5","html-keyboard-response","1129","n","sehemu","true","",""
"2279.7000000476837","","","","","5","html-slider-response","1130","","","","5",""
"5352","boat","agalon,hamsi,pombe,kitanda","agalon","f","5","html-keyboard-response","1131","j","pombe","false","",""
"2786.7999999523163","","","","","5","html-slider-response","1132","","","","4",""
"5481","body","tindashan,nyundu,jibini,kununa","tindashan","f","5","html-keyboard-response","1133","f","tindashan","true","",""
"2000.5","","","","","5","html-slider-response","1134","","","","2",""
"2587","bed","kalipay,haraka,mapintas,starehe","mapintas","j","5","html-keyboard-response","1135","v","haraka","false","",""
"2021.5","","","","","5","html-slider-response","1136","","","","2",""
"17775","squirrel","mahugaw,ukweli,kichwa,hofu","hofu","n","5","html-keyboard-response","1137","n","hofu","true","",""
"2079.2000000476837","","","","","5","html-slider-response","1138","","","","5",""
"5535","window","nanga,kweli,kujenga,umaga","kweli","v","5","html-keyboard-response","1139","v","kweli","true","",""
"2072.5999999046326","","","","","5","html-slider-response","1140","","","","2",""
"3645","bonfire","mwezi,mfuko,kusanya,goti","goti","n","5","html-keyboard-response","1141","j","kusanya","false","",""
"2824.7000000476837","","","","","5","html-slider-response","1142","","","","2",""
"3005","fish","bala,baho,imani,buli","buli","n","5","html-keyboard-response","1143","n","buli","true","",""
"2243.100000023842","","","","","5","html-slider-response","1144","","","","2",""
"12576","cat","neyemba,paghukom,baki,akili","paghukom","v","5","html-keyboard-response","1145","v","paghukom","true","",""
"2299.7999999523163","","","","","5","html-slider-response","1146","","","","4",""
"3229","spider","bunyag,kamwe,mkboa,atop","kamwe","v","5","html-keyboard-response","1147","f","bunyag","false","",""
"2718.5","","","","","5","html-slider-response","1148","","","","2",""
"10259","eel","ishara,kunywa,msumari,kabuang","msumari","j","5","html-keyboard-response","1149","j","msumari","true","",""
"2738.5","","","","","5","html-slider-response","1150","","","","4",""
"8461","woman","bandari,pagtabon,bituin,kovuli","pagtabon","v","5","html-keyboard-response","1151","v","pagtabon","true","",""
"2111","","","","","5","html-slider-response","1152","","","","5",""
"3552","magazine","kiti,gundi,mchawi,bahandi","kiti","f","5","html-keyboard-response","1153","j","mchawi","false","",""
"2769.899999976158","","","","","5","html-slider-response","1154","","","","2",""
"2416","pudding","abug,aibu,mpishi,iring","aibu","v","5","html-keyboard-response","1155","v","aibu","true","",""
"2014.2000000476837","","","","","5","html-slider-response","1156","","","","2",""
"2663","lamp","daub,bilaska,afya,mbolea","afya","j","5","html-keyboard-response","1157","f","daub","false","",""
"3875.399999976158","","","","","5","html-slider-response","1158","","","","2",""
"17101","cave","ganti,kesho,maisha,nyundo","kesho","v","5","html-keyboard-response","1159","v","kesho","true","",""
"2149.5999999046326","","","","","5","html-slider-response","1160","","","","2",""
"3973","shoulder","kelele,ndaniya,mkuu,guruwe","mkuu","j","5","html-keyboard-response","1161","f","kelele","false","",""
"2102.600000023842","","","","","5","html-slider-response","1162","","","","2",""
"2737","stone","ulimwengu,mkasi,asili,wingi","wingi","n","5","html-keyboard-response","1163","j","asili","false","",""
"2117.7000000476837","","","","","5","html-slider-response","1164","","","","2",""
"3029","column","ufagio,pundok,dila,pala","ufagio","f","5","html-keyboard-response","1165","f","ufagio","true","",""
"3383","","","","","5","html-slider-response","1166","","","","2",""
"3434","page","wakala,ishiri,wimbo,skina","wimbo","j","5","html-keyboard-response","1167","j","wimbo","true","",""
"2758.600000023842","","","","","5","html-slider-response","1168","","","","2",""
"11282","shoe","nyeusi,hatua,kama,uyoga","uyoga","n","5","html-keyboard-response","1169","n","uyoga","true","",""
"2069.1999999284744","","","","","5","html-slider-response","1170","","","","4",""
"4454","clock","kartasi,mbwa,abang,osha","mbwa","v","5","html-keyboard-response","1171","n","osha","false","",""
"2062.7999999523163","","","","","5","html-slider-response","1172","","","","4",""
"2476","towel","tembo,funzi,pagpalit,pito","pagpalit","j","5","html-keyboard-response","1173","v","funzi","false","",""
"3480.9000000953674","","","","","5","html-slider-response","1174","","","","2",""
"3296","tomato","chupi,chupa,takatak,mvua","mvua","n","5","html-keyboard-response","1175","j","takatak","false","",""
"2119.899999976158","","","","","5","html-slider-response","1176","","","","2",""
"3754","bucket","kiatu,baga,ijayo,init","kiatu","f","5","html-keyboard-response","1177","f","kiatu","true","",""
"3797.7000000476837","","","","","5","html-slider-response","1178","","","","2",""
"2894","finger","simu,sufuria,lima,moyo","moyo","n","5","html-keyboard-response","1179","j","lima","false","",""
"3631.899999976158","","","","","5","html-slider-response","1180","","","","2",""
"13742","mother","kahawa,babaye,mbuzi,jokofu","babaye","v","5","html-keyboard-response","1181","v","babaye","true","",""
"2944.5","","","","","5","html-slider-response","1182","","","","5",""
"17538","human","bado,kikapu,tinapay,punguza","tinapay","j","5","html-keyboard-response","1183","j","tinapay","true","",""
"5445.100000023842","","","","","5","html-slider-response","1184","","","","2",""
"3321","sun","bendi,luha,basi,uongo","basi","j","5","html-keyboard-response","1185","v","luha","false","",""
"2115.1999999284744","","","","","5","html-slider-response","1186","","","","4",""
"2354","fork","baboy,paghago,mgonjwa,gorisi","mgonjwa","j","5","html-keyboard-response","1187","v","paghago","false","",""
"2976.6999999284744","","","","","5","html-slider-response","1188","","","","2",""
"3612","donkey","elfu,bloke,lalake,rombus","elfu","f","5","html-keyboard-response","1189","f","elfu","true","",""
"2914.5","","","","","5","html-slider-response","1190","","","","4",""
"12671","wolf","lugha,kaburi,ndizi,mchuzi","lugha","f","5","html-keyboard-response","1191","f","lugha","true","",""
"2287.5","","","","","5","html-slider-response","1192","","","","4",""
"10287","cigar","ndugu,adhabu,kuta,mlango","adhabu","v","5","html-keyboard-response","1193","v","adhabu","true","",""
"3489.600000023842","","","","","5","html-slider-response","1194","","","","5",""
"24488","olive","bata,jiwe,siagi,welder","jiwe","v","5","html-keyboard-response","1195","v","jiwe","true","",""
"3311.100000023842","","","","","5","html-slider-response","1196","","","","5",""
"3875","key","chombo,miaka,goma,ahos","chombo","f","5","html-keyboard-response","1197","j","goma","false","",""
"2800.1999999284744","","","","","5","html-slider-response","1198","","","","4",""
"2847","door","tena,soko,surali,nyota","surali","j","5","html-keyboard-response","1199","f","tena","false","",""
"2156.1999999284744","","","","","5","html-slider-response","1200","","","","2",""
"2035","wheel","bafuni,punda,tawo,baadaye","bafuni","f","5","html-keyboard-response","1201","v","punda","false","",""
"3499.6999999284744","","","","","5","html-slider-response","1202","","","","2",""
"3136","basket","kumba,kumbuka,utepe,hasira","kumba","f","5","html-keyboard-response","1203","j","utepe","false","",""
"2379.5","","","","","5","html-slider-response","1204","","","","2",""
"6257","elephant","petye,kito,pagduol,suka","kito","v","5","html-keyboard-response","1205","v","kito","true","",""
"2974.3000000715256","","","","","5","html-slider-response","1206","","","","5",""
"2706","office","leso,hazini,yatima,kuna","leso","f","5","html-keyboard-response","1207","j","yatima","false","",""
"2778.8000000715256","","","","","5","html-slider-response","1208","","","","2",""
"2631","music","baiski,mraba,mageho,tumbo","baiski","f","5","html-keyboard-response","1209","n","tumbo","false","",""
"3404.2000000476837","","","","","5","html-slider-response","1210","","","","4",""
"2539","tissue","lamigas,kisiwa,ugomvi,katika","ugomvi","j","5","html-keyboard-response","1211","f","lamigas","false","",""
"2988.100000023842","","","","","5","html-slider-response","1212","","","","2",""
"2213","curtain","lisud,bulwawan,mchanga,chubani","mchanga","j","5","html-keyboard-response","1213","j","mchanga","true","",""
"2160.1999999284744","","","","","5","html-slider-response","1214","","","","4",""
"2342","flag","ndege,mkate,trekta,kawa","trekta","j","5","html-keyboard-response","1215","n","kawa","false","",""
"3064.7999999523163","","","","","5","html-slider-response","1216","","","","4",""
"3884","dog","bahari,lubi,washia,kalamu","bahari","f","5","html-keyboard-response","1217","f","bahari","true","",""
"2309.5999999046326","","","","","5","html-slider-response","1218","","","","5",""
"4401","cup","dagat,shimoni,matumai,jeraha","matumai","j","5","html-keyboard-response","1219","v","shimoni","false","",""
"2275.3000000715256","","","","","5","html-slider-response","1220","","","","4",""
"1955","sheet","juuya,bililhon,watu,kamantis","bililhon","v","5","html-keyboard-response","1221","v","bililhon","true","",""
"3225.5","","","","","5","html-slider-response","1222","","","","2",""
"2149","spoon","betri,nzuri,ngazi,pagsulod","pagsulod","n","5","html-keyboard-response","1223","v","nzuri","false","",""
"2313.7999999523163","","","","","5","html-slider-response","1224","","","","2",""
"2872","flower","tamasha,lobo,bega,usiku","bega","j","5","html-keyboard-response","1225","v","lobo","false","",""
"2227.600000023842","","","","","5","html-slider-response","1226","","","","2",""
"2611","picture","silya,kubwa,chaki,asin","kubwa","v","5","html-keyboard-response","1227","j","chaki","false","",""
"2253.399999976158","","","","","5","html-slider-response","1228","","","","2",""
"2545","puppet","mazishi,napulo,lamok,godoro","mazishi","f","5","html-keyboard-response","1229","j","lamok","false","",""
"2850.899999976158","","","","","5","html-slider-response","1230","","","","2",""
"2771","banana","kasamok,kazi,hagdan,twai","kazi","v","5","html-keyboard-response","1231","n","twai","false","",""
"2282.100000023842","","","","","5","html-slider-response","1232","","","","2",""
"22695","book","kuhesa,mali,picha,mara","mali","v","5","html-keyboard-response","1233","v","mali","true","",""
"2380.5","","","","","5","html-slider-response","1234","","","","4",""
"2359","triangle","kihozi,kasadpan,bentaha,liog","kasadpan","v","5","html-keyboard-response","1235","n","liog","false","",""
"3600.100000023842","","","","","5","html-slider-response","1236","","","","4",""
"2348","poster","madungog,nchi,fedha,kasuko","madungog","f","5","html-keyboard-response","1237","n","kasuko","false","",""
"3746.5","","","","","5","html-slider-response","1238","","","","2",""
"3192","box","kuacha,rafiki,adui,kitande","adui","j","5","html-keyboard-response","1239","f","kuacha","false","",""
"3237.6999999284744","","","","","5","html-slider-response","1240","","","","2",""
"2374","mosquito","isda,taras,gutom,martilyo","martilyo","n","5","html-keyboard-response","1241","n","martilyo","true","",""
"3889","","","","","5","html-slider-response","1242","","","","5",""
"2089","shelf","bungtod,kadaot,pamahaw,awit","pamahaw","j","5","html-keyboard-response","1243","n","awit","false","",""
"4143.800000071526","","","","","5","html-slider-response","1244","","","","2",""
"3261","scissors","duga,mtawa,tanuri,suga","tanuri","j","5","html-keyboard-response","1245","j","tanuri","true","",""
"3767.899999976158","","","","","5","html-slider-response","1246","","","","4",""
"2369","hammer","mekno,kitovu,napakyas,layag","napakyas","j","5","html-keyboard-response","1247","v","kitovu","false","",""
"2174.1999999284744","","","","","5","html-slider-response","1248","","","","2",""
