"rt","en_word","options","swa_word","correct_answer","phase","trial_type","trial_index","input_answer","input_word","accuracy","certainty","amt_choices"
"4258","bonfire","mwezi,mfuko,goti,kusanya","goti","j","2","html-keyboard-response","106","v","mfuko","false","",""
"2341.800000011921","","","","","2","html-slider-response","107","","","","1",""
"3978","flower","tamasha,lobo,usiku,bega","bega","n","2","html-keyboard-response","108","n","bega","true","",""
"2132.699999988079","","","","","2","html-slider-response","109","","","","2",""
"3283","column","pundok,dila,ufagio,pala","ufagio","j","2","html-keyboard-response","110","j","ufagio","true","",""
"2486.099999964237","","","","","2","html-slider-response","111","","","","5",""
"3770","music","mraba,mageho,tumbo,baiski","baiski","n","2","html-keyboard-response","112","n","baiski","true","",""
"1928.5999999642372","","","","","2","html-slider-response","113","","","","2",""
"9278","spider","kamwe,bunyag,mkboa,atop","kamwe","f","2","html-keyboard-response","114","f","kamwe","true","",""
"3186.599999964237","","","","","2","html-slider-response","115","","","","1",""
"4314","fork","mgonjwa,baboy,paghago,gorisi","mgonjwa","f","2","html-keyboard-response","116","f","mgonjwa","true","",""
"2394.800000011921","","","","","2","html-slider-response","117","","","","4",""
"2454","mosquito","martilyo,isda,taras,gutom","martilyo","f","2","html-keyboard-response","118","f","martilyo","true","",""
"2154.5","","","","","2","html-slider-response","119","","","","5",""
"3442","banana","kasamok,hagdan,kazi,twai","kazi","j","2","html-keyboard-response","120","j","kazi","true","",""
"2202.600000023842","","","","","2","html-slider-response","121","","","","4",""
"5471","cup","dagat,shimoni,jeraha,matumai","matumai","n","2","html-keyboard-response","122","f","dagat","false","",""
"1743.699999988079","","","","","2","html-slider-response","123","","","","1",""
"2700","shop","nopya,samaki,kerida,ndezu","samaki","v","2","html-keyboard-response","124","v","samaki","true","",""
"6256.799999952316","","","","","2","html-slider-response","125","","","","2",""
"9352","elephant","kito,petye,pagduol,suka","kito","f","2","html-keyboard-response","126","j","pagduol","false","",""
"1783.8999999761581","","","","","2","html-slider-response","127","","","","2",""
"5140","bucket","baga,ijayo,init,kiatu","kiatu","n","2","html-keyboard-response","128","f","baga","false","",""
"1681.300000011921","","","","","2","html-slider-response","129","","","","2",""
"4203","book","mali,kuhesa,picha,mara","mali","f","2","html-keyboard-response","130","f","mali","true","",""
"5503.299999952316","","","","","2","html-slider-response","131","","","","3",""
"5762","mirror","rangi,sulagma,kanding,furaha","sulagma","v","2","html-keyboard-response","132","v","sulagma","true","",""
"1728.6000000238419","","","","","2","html-slider-response","133","","","","2",""
"6538","office","hazini,yatima,kuna,leso","leso","n","2","html-keyboard-response","134","f","hazini","false","",""
"2845.199999988079","","","","","2","html-slider-response","135","","","","2",""
"4296","body","nyundu,jibini,kununa,tindashan","tindashan","n","2","html-keyboard-response","136","n","tindashan","true","",""
"2206","","","","","2","html-slider-response","137","","","","5",""
"4050","perfume","bino,sungura,katuyoan,ndogo","katuyoan","j","2","html-keyboard-response","138","j","katuyoan","true","",""
"1473.800000011921","","","","","2","html-slider-response","139","","","","4",""
"5054","olive","bata,jiwe,siagi,welder","jiwe","v","2","html-keyboard-response","140","j","siagi","false","",""
"2920.900000035763","","","","","2","html-slider-response","141","","","","3",""
"5233","magazine","gundi,kiti,mchawi,bahandi","kiti","v","2","html-keyboard-response","142","n","bahandi","false","",""
"2374.199999988079","","","","","2","html-slider-response","143","","","","2",""
"4586","bread","kaili,dizeli,bugas,dari","dari","n","2","html-keyboard-response","144","f","kaili","false","",""
"1800.800000011921","","","","","2","html-slider-response","145","","","","2",""
"3864","cave","kesho,ganti,maisha,nyundo","kesho","f","2","html-keyboard-response","146","f","kesho","true","",""
"2967.699999988079","","","","","2","html-slider-response","147","","","","2",""
"6376","ladder","mashua,pangalan,mwanga,kamba","pangalan","v","2","html-keyboard-response","148","v","pangalan","true","",""
"1808.5","","","","","2","html-slider-response","149","","","","2",""
"2628","human","tinapay,bado,kikapu,punguza","tinapay","f","2","html-keyboard-response","150","f","tinapay","true","",""
"2250.5","","","","","2","html-slider-response","151","","","","5",""
"5341","clock","kartasi,mbwa,abang,osha","mbwa","v","2","html-keyboard-response","152","v","mbwa","true","",""
"2442.600000023842","","","","","2","html-slider-response","153","","","","1",""
"2642","shelf","bungtod,kadaot,pamahaw,awit","pamahaw","j","2","html-keyboard-response","154","n","awit","false","",""
"1679.5","","","","","2","html-slider-response","155","","","","2",""
"5466","salmon","mzungu,sensilyo,seri,baharia","sensilyo","v","2","html-keyboard-response","156","n","baharia","false","",""
"2336.800000011921","","","","","2","html-slider-response","157","","","","2",""
"9640","coffin","barua,kioo,tubag,hulma","kioo","v","2","html-keyboard-response","158","j","tubag","false","",""
"3880.699999988079","","","","","2","html-slider-response","159","","","","2",""
"4947","notebook","msitu,kila,mdudu,kemia","kemia","n","2","html-keyboard-response","160","n","kemia","true","",""
"2918.699999988079","","","","","2","html-slider-response","161","","","","1",""
"4661","shoulder","kelele,ndaniya,mkuu,guruwe","mkuu","j","2","html-keyboard-response","162","v","ndaniya","false","",""
"2682.600000023842","","","","","2","html-slider-response","163","","","","1",""
"4049","park","bunifu,tambok,pwani,ihalas","bunifu","f","2","html-keyboard-response","164","v","tambok","false","",""
"1987.4000000357628","","","","","2","html-slider-response","165","","","","2",""
"6152","number","shule,kengele,mundamo,choori","mundamo","j","2","html-keyboard-response","166","j","mundamo","true","",""
"2880.199999988079","","","","","2","html-slider-response","167","","","","2",""
"3447","apple","ukame,estante,edad,kisu","kisu","n","2","html-keyboard-response","168","f","ukame","false","",""
"2025.800000011921","","","","","2","html-slider-response","169","","","","2",""
"2886","letter","filimbi,chuma,uhuru,kifua","kifua","n","2","html-keyboard-response","170","n","kifua","true","",""
"1854.199999988079","","","","","2","html-slider-response","171","","","","2",""
"4972","eel","ishara,kunywa,msumari,kabuang","msumari","j","2","html-keyboard-response","172","f","ishara","false","",""
"2770.2999999523163","","","","","2","html-slider-response","173","","","","2",""
"2512","cop","bustani,mechezo,jikoni,bakus","mechezo","v","2","html-keyboard-response","174","n","bakus","false","",""
"2708.5","","","","","2","html-slider-response","175","","","","2",""
"5034","wolf","kaburi,ndizi,mchuzi,lugha","lugha","n","2","html-keyboard-response","176","j","mchuzi","false","",""
"2465.899999976158","","","","","2","html-slider-response","177","","","","2",""
"3947","squirrel","mahugaw,hofu,ukweli,kichwa","hofu","v","2","html-keyboard-response","178","v","hofu","true","",""
"1745.300000011921","","","","","2","html-slider-response","179","","","","2",""
"4837","nose","gubat,sehemu,kopa,kidole","sehemu","v","2","html-keyboard-response","180","j","kopa","false","",""
"1822.699999988079","","","","","2","html-slider-response","181","","","","2",""
"5869","sock","ndoora,kimysa,mtirka,mamba","mamba","n","2","html-keyboard-response","182","v","kimysa","false","",""
"2543.699999988079","","","","","2","html-slider-response","183","","","","2",""
"3187","bank","kudhibi,tualya,ofisi,silingan","silingan","n","2","html-keyboard-response","184","f","kudhibi","false","",""
"2280.900000035763","","","","","2","html-slider-response","185","","","","1",""
"2132","donkey","bloke,lalake,rombus,elfu","elfu","n","2","html-keyboard-response","186","n","elfu","true","",""
"2342.5","","","","","2","html-slider-response","187","","","","5",""
"4774","poster","madungog,nchi,fedha,kasuko","madungog","f","2","html-keyboard-response","188","v","nchi","false","",""
"1807.5","","","","","2","html-slider-response","189","","","","1",""
"6479","puppet","napulo,lamok,godoro,mazishi","mazishi","n","2","html-keyboard-response","190","f","napulo","false","",""
"2000.2999999523163","","","","","2","html-slider-response","191","","","","1",""
"4340","hill","kushoto,kukimba,sweta,matumbo","matumbo","n","2","html-keyboard-response","192","n","matumbo","true","",""
"2649.800000011921","","","","","2","html-slider-response","193","","","","5",""
"4573","tooth","kijiko,kabalaka,uadui,pahiyum","kabalaka","v","2","html-keyboard-response","194","n","pahiyum","false","",""
"2258.400000035763","","","","","2","html-slider-response","195","","","","1",""
"3378","woman","bandari,bituin,pagtabon,kovuli","pagtabon","j","2","html-keyboard-response","196","j","pagtabon","true","",""
"2122.699999988079","","","","","2","html-slider-response","197","","","","5",""
"4547","wheel","punda,bafuni,tawo,baadaye","bafuni","v","2","html-keyboard-response","198","f","punda","false","",""
"2158.300000011921","","","","","2","html-slider-response","199","","","","1",""
"2300","mother","babaye,kahawa,mbuzi,jokofu","babaye","f","2","html-keyboard-response","200","f","babaye","true","",""
"1929.800000011921","","","","","2","html-slider-response","201","","","","5",""
"2650","bed","mapintas,kalipay,haraka,starehe","mapintas","f","2","html-keyboard-response","202","v","kalipay","false","",""
"2427.5","","","","","2","html-slider-response","203","","","","2",""
"5014","key","chombo,miaka,goma,ahos","chombo","f","2","html-keyboard-response","204","v","miaka","false","",""
"3616.300000011921","","","","","2","html-slider-response","205","","","","3",""
"3152","page","wimbo,wakala,ishiri,skina","wimbo","f","2","html-keyboard-response","206","j","ishiri","false","",""
"1625.7000000476837","","","","","2","html-slider-response","207","","","","1",""
"4144","pants","pintal,haki,chuki,hari","haki","v","2","html-keyboard-response","208","v","haki","true","",""
"2031.1000000238419","","","","","2","html-slider-response","209","","","","2",""
"5749","sun","bendi,luha,basi,uongo","basi","j","2","html-keyboard-response","210","j","basi","true","",""
"2338.600000023842","","","","","2","html-slider-response","211","","","","1",""
"2167","finger","moyo,simu,sufuria,lima","moyo","f","2","html-keyboard-response","212","f","moyo","true","",""
"2587.300000011921","","","","","2","html-slider-response","213","","","","5",""
"3024","shoe","nyeusi,uyoga,hatua,kama","uyoga","v","2","html-keyboard-response","214","n","kama","false","",""
"2519.599999964237","","","","","2","html-slider-response","215","","","","1",""
"6374","giraffe","daraja,mahitabo,jumatu,hangyo","mahitabo","v","2","html-keyboard-response","216","n","hangyo","false","",""
"1777.6000000238419","","","","","2","html-slider-response","217","","","","1",""
"4650","dog","bahari,lubi,washia,kalamu","bahari","f","2","html-keyboard-response","218","f","bahari","true","",""
"2318.699999988079","","","","","2","html-slider-response","219","","","","2",""
"3322","box","kuacha,rafiki,adui,kitande","adui","j","2","html-keyboard-response","220","n","kitande","false","",""
"1847.6000000238419","","","","","2","html-slider-response","221","","","","2",""
"3340","scissors","duga,tanuri,mtawa,suga","tanuri","v","2","html-keyboard-response","222","j","mtawa","false","",""
"1485.199999988079","","","","","2","html-slider-response","223","","","","1",""
"2550","cat","neyemba,paghukom,baki,akili","paghukom","v","2","html-keyboard-response","224","n","akili","false","",""
"2340.599999964237","","","","","2","html-slider-response","225","","","","2",""
"3697","basket","kumbuka,utepe,hasira,kumba","kumba","n","2","html-keyboard-response","226","v","utepe","false","",""
"2359.699999988079","","","","","2","html-slider-response","227","","","","1",""
"8901","snake","pagtukod,jansa,karon,mvringo","pagtukod","f","2","html-keyboard-response","228","f","pagtukod","true","",""
"2675.5","","","","","2","html-slider-response","229","","","","3",""
"5808","gift","baba,pagtawag,nyange,baso","pagtawag","v","2","html-keyboard-response","230","v","pagtawag","true","",""
"1944.800000011921","","","","","2","html-slider-response","231","","","","5",""
"4490","train","itik,sayari,dakika,mungu","sayari","v","2","html-keyboard-response","232","n","mungu","false","",""
"2392.899999976158","","","","","2","html-slider-response","233","","","","2",""
"7340","pudding","abug,mpishi,aibu,iring","aibu","j","2","html-keyboard-response","234","j","aibu","true","",""
"1763.5","","","","","2","html-slider-response","235","","","","2",""
"6048","tomato","chupi,chupa,takatak,mvua","mvua","n","2","html-keyboard-response","236","f","chupi","false","",""
"1626.5999999642372","","","","","2","html-slider-response","237","","","","2",""
"8721","stone","ulimwengu,wingi,mkasi,asili","wingi","v","2","html-keyboard-response","238","j","mkasi","false","",""
"1999.800000011921","","","","","2","html-slider-response","239","","","","1",""
"3438","hammer","napakyas,mekno,kitovu,layag","napakyas","f","2","html-keyboard-response","240","n","layag","false","",""
"2099.300000011921","","","","","2","html-slider-response","241","","","","1",""
"5031","knee","duka,mvuke,kubale,bili","duka","f","2","html-keyboard-response","242","j","kubale","false","",""
"2261","","","","","2","html-slider-response","243","","","","1",""
"4483","ceiling","maua,kugita,kawaida,rayna","maua","f","2","html-keyboard-response","244","f","maua","true","",""
"2080.100000023842","","","","","2","html-slider-response","245","","","","1",""
"2921","spoon","betri,nzuri,ngazi,pagsulod","pagsulod","n","2","html-keyboard-response","246","v","nzuri","false","",""
"1654.7000000476837","","","","","2","html-slider-response","247","","","","1",""
"2899","marker","mapafu,salita,atay,maji","maji","n","2","html-keyboard-response","248","n","maji","true","",""
"1601.300000011921","","","","","2","html-slider-response","249","","","","1",""
"3293","candle","geza,gabi,farasi,kupanda","geza","f","2","html-keyboard-response","250","j","farasi","false","",""
"2548.2999999523163","","","","","2","html-slider-response","251","","","","1",""
"5239","tissue","ugomvi,lamigas,kisiwa,katika","ugomvi","f","2","html-keyboard-response","252","v","lamigas","false","",""
"2157.7000000476837","","","","","2","html-slider-response","253","","","","1",""
"4831","bridge","daima,sahani,ngono,panya","sahani","v","2","html-keyboard-response","254","v","sahani","true","",""
"3171","","","","","2","html-slider-response","255","","","","3",""
"2783","berry","abogado,nogozi,kinywa,kofia","kofia","n","2","html-keyboard-response","256","n","kofia","true","",""
"1648.800000011921","","","","","2","html-slider-response","257","","","","5",""
"5017","triangle","kihozi,bentaha,liog,kasadpan","kasadpan","n","2","html-keyboard-response","258","f","kihozi","false","",""
"3382.899999976158","","","","","2","html-slider-response","259","","","","1",""
"4045","door","surali,tena,soko,nyota","surali","f","2","html-keyboard-response","260","f","surali","true","",""
"1981.7000000476837","","","","","2","html-slider-response","261","","","","1",""
"3222","fish","bala,baho,imani,buli","buli","n","2","html-keyboard-response","262","n","buli","true","",""
"1683.5999999642372","","","","","2","html-slider-response","263","","","","5",""
"7707","curtain","mchanga,lisud,bulwawan,chubani","mchanga","f","2","html-keyboard-response","264","j","bulwawan","false","",""
"2291.599999964237","","","","","2","html-slider-response","265","","","","3",""
"3938","flag","ndege,trekta,mkate,kawa","trekta","v","2","html-keyboard-response","266","n","kawa","false","",""
"2317.600000023842","","","","","2","html-slider-response","267","","","","2",""
"4339","boat","hamsi,pombe,kitanda,agalon","agalon","n","2","html-keyboard-response","268","v","pombe","false","",""
"2163.800000011921","","","","","2","html-slider-response","269","","","","1",""
"5990","rose","singizi,mwanake,amani,paghalad","paghalad","n","2","html-keyboard-response","270","j","amani","false","",""
"2751.800000011921","","","","","2","html-slider-response","271","","","","2",""
"2862","lamp","daub,afya,bilaska,mbolea","afya","v","2","html-keyboard-response","272","v","afya","true","",""
"1577.199999988079","","","","","2","html-slider-response","273","","","","1",""
"3722","cigar","ndugu,adhabu,kuta,mlango","adhabu","v","2","html-keyboard-response","274","n","mlango","false","",""
"2857.7000000476837","","","","","2","html-slider-response","275","","","","3",""
"1863","list","alizeti,kuzama,kaso,wingu","wingu","n","2","html-keyboard-response","276","n","wingu","true","",""
"1867.8999999761581","","","","","2","html-slider-response","277","","","","5",""
"3037","sheet","juuya,bililhon,watu,kamantis","bililhon","v","2","html-keyboard-response","278","n","kamantis","false","",""
"1805.8999999761581","","","","","2","html-slider-response","279","","","","1",""
"3345","picture","silya,chaki,asin,kubwa","kubwa","n","2","html-keyboard-response","280","n","kubwa","true","",""
"2024.300000011921","","","","","2","html-slider-response","281","","","","1",""
"2962","towel","tembo,pagpalit,funzi,pito","pagpalit","v","2","html-keyboard-response","282","j","funzi","false","",""
"2275.300000011921","","","","","2","html-slider-response","283","","","","1",""
"4704","window","nanga,kujenga,umaga,kweli","kweli","n","2","html-keyboard-response","284","v","kujenga","false","",""
"1977.1000000238419","","","","","2","html-slider-response","285","","","","2",""
"5002","box","kuacha,rafiki,kitande,adui","adui","n","3","html-keyboard-response","293","n","adui","true","","4"
"2217.5","","","","","3","html-slider-response","294","","","","2",""
"7012","","","","","3","html-keyboard-response","295","","","","",""
"4389","pants","haki,pintal,chuki,hari","haki","f","3","html-keyboard-response","296","f","haki","true","","4"
"2070","","","","","3","html-slider-response","297","","","","2",""
"1550","","","","","3","html-keyboard-response","298","","","","",""
"3336","cup","dagat,shimoni,matumai,jeraha","matumai","j","3","html-keyboard-response","299","f","dagat","false","","4"
"2227.900000035763","","","","","3","html-slider-response","300","","","","2",""
"5621","","","","","3","html-keyboard-response","301","","","","",""
"3174","triangle","kihozi,kasadpan,bentaha,liog","kasadpan","v","3","html-keyboard-response","302","j","bentaha","false","","4"
"2220.399999976158","","","","","3","html-slider-response","303","","","","2",""
"4181","","","","","3","html-keyboard-response","304","","","","",""
"2562","curtain","mchanga,lisud,bulwawan,chubani","mchanga","f","3","html-keyboard-response","305","f","mchanga","true","","4"
"4620.300000011921","","","","","3","html-slider-response","306","","","","3",""
"2097","","","","","3","html-keyboard-response","307","","","","",""
"3561","clock","kartasi,abang,osha,mbwa","mbwa","n","3","html-keyboard-response","308","n","mbwa","true","","4"
"1770.800000011921","","","","","3","html-slider-response","309","","","","2",""
"3184","","","","","3","html-keyboard-response","310","","","","",""
"4655","mirror","rangi,kanding,furaha,sulagma","sulagma","n","3","html-keyboard-response","311","f","rangi","false","","4"
"2908.5","","","","","3","html-slider-response","312","","","","2",""
"3139","","","","","3","html-keyboard-response","313","","","","",""
"2139","coffin","barua,tubag,kioo,hulma","kioo","j","3","html-keyboard-response","314","j","kioo","true","","1"
"2180.699999988079","","","","","3","html-slider-response","315","","","","5",""
"2621","","","","","3","html-keyboard-response","316","","","","",""
"4973","magazine","gundi,mchawi,kiti,bahandi","kiti","j","3","html-keyboard-response","317","v","mchawi","false","","4"
"2100.5","","","","","3","html-slider-response","318","","","","2",""
"3480","","","","","3","html-keyboard-response","319","","","","",""
"1730","column","pundok,dila,pala,ufagio","ufagio","n","3","html-keyboard-response","320","n","ufagio","true","","1"
"2047.3999999761581","","","","","3","html-slider-response","321","","","","5",""
"1611","","","","","3","html-keyboard-response","322","","","","",""
"3391","number","shule,kengele,choori,mundamo","mundamo","n","3","html-keyboard-response","323","n","mundamo","true","","4"
"3133.400000035763","","","","","3","html-slider-response","324","","","","4",""
"3086","","","","","3","html-keyboard-response","325","","","","",""
"4002","rose","singizi,paghalad,mwanake,amani","paghalad","v","3","html-keyboard-response","326","n","amani","false","","4"
"2387.300000011921","","","","","3","html-slider-response","327","","","","2",""
"4248","","","","","3","html-keyboard-response","328","","","","",""
"4066","eel","ishara,kunywa,kabuang,msumari","msumari","n","3","html-keyboard-response","329","n","msumari","true","","4"
"2284.300000011921","","","","","3","html-slider-response","330","","","","2",""
"3202","","","","","3","html-keyboard-response","331","","","","",""
"2270","gift","pagtawag,baba,nyange,baso","pagtawag","f","3","html-keyboard-response","332","f","pagtawag","true","","4"
"1955.199999988079","","","","","3","html-slider-response","333","","","","5",""
"2334","","","","","3","html-keyboard-response","334","","","","",""
"1831","apple","ukame,estante,edad,kisu","kisu","n","3","html-keyboard-response","335","n","kisu","true","","1"
"1973.2000000476837","","","","","3","html-slider-response","336","","","","5",""
"1176","","","","","3","html-keyboard-response","337","","","","",""
"2027","wheel","bafuni,punda,tawo,baadaye","bafuni","f","3","html-keyboard-response","338","f","bafuni","true","","1"
"2415.600000023842","","","","","3","html-slider-response","339","","","","5",""
"1530","","","","","3","html-keyboard-response","340","","","","",""
"4451","knee","mvuke,kubale,bili,duka","duka","n","3","html-keyboard-response","341","j","bili","false","","4"
"2595.399999976158","","","","","3","html-slider-response","342","","","","2",""
"5468","","","","","3","html-keyboard-response","343","","","","",""
"2284","basket","kumbuka,utepe,hasira,kumba","kumba","n","3","html-keyboard-response","344","n","kumba","true","","1"
"2338.199999988079","","","","","3","html-slider-response","345","","","","5",""
"1251","","","","","3","html-keyboard-response","346","","","","",""
"5694","park","tambok,pwani,ihalas,bunifu","bunifu","n","3","html-keyboard-response","347","f","tambok","false","","4"
"2930.7999999523163","","","","","3","html-slider-response","348","","","","3",""
"4604","","","","","3","html-keyboard-response","349","","","","",""
"1965","finger","moyo,simu,sufuria,lima","moyo","f","3","html-keyboard-response","350","f","moyo","true","","4"
"2040.800000011921","","","","","3","html-slider-response","351","","","","5",""
"1665","","","","","3","html-keyboard-response","352","","","","",""
"5944","boat","hamsi,pombe,agalon,kitanda","agalon","j","3","html-keyboard-response","353","j","agalon","true","","4"
"2899.300000011921","","","","","3","html-slider-response","354","","","","2",""
"1935","","","","","3","html-keyboard-response","355","","","","",""
"6421","hill","kushoto,matumbo,kukimba,sweta","matumbo","v","3","html-keyboard-response","356","v","matumbo","true","","4"
"2222.5","","","","","3","html-slider-response","357","","","","5",""
"3307","","","","","3","html-keyboard-response","358","","","","",""
"4209","train","itik,dakika,mungu,sayari","sayari","n","3","html-keyboard-response","359","n","sayari","true","","4"
"1759.699999988079","","","","","3","html-slider-response","360","","","","2",""
"7894","","","","","3","html-keyboard-response","361","","","","",""
"3982","wolf","kaburi,ndizi,mchuzi,lugha","lugha","n","3","html-keyboard-response","362","v","ndizi","false","","4"
"2629.900000035763","","","","","3","html-slider-response","363","","","","1",""
"2833","","","","","3","html-keyboard-response","364","","","","",""
"7806","snake","jansa,karon,mvringo,pagtukod","pagtukod","n","3","html-keyboard-response","365","n","pagtukod","true","","4"
"2160.5","","","","","3","html-slider-response","366","","","","2",""
"3632","","","","","3","html-keyboard-response","367","","","","",""
"4741","tooth","kijiko,kabalaka,uadui,pahiyum","kabalaka","v","3","html-keyboard-response","368","j","uadui","false","","4"
"1892.5","","","","","3","html-slider-response","369","","","","1",""
"3692","","","","","3","html-keyboard-response","370","","","","",""
"3248","notebook","msitu,kila,mdudu,kemia","kemia","n","3","html-keyboard-response","371","n","kemia","true","","4"
"2240.800000011921","","","","","3","html-slider-response","372","","","","1",""
"4908","","","","","3","html-keyboard-response","373","","","","",""
"2335","flag","ndege,mkate,trekta,kawa","trekta","j","3","html-keyboard-response","374","j","trekta","true","","4"
"1631.800000011921","","","","","3","html-slider-response","375","","","","2",""
"4715","","","","","3","html-keyboard-response","376","","","","",""
"7428","squirrel","mahugaw,hofu,ukweli,kichwa","hofu","v","3","html-keyboard-response","377","f","mahugaw","false","","4"
"1899.2999999523163","","","","","3","html-slider-response","378","","","","2",""
"3013","","","","","3","html-keyboard-response","379","","","","",""
"2911","door","surali,tena,soko,nyota","surali","f","3","html-keyboard-response","380","f","surali","true","","4"
"2272.199999988079","","","","","3","html-slider-response","381","","","","2",""
"3341","","","","","3","html-keyboard-response","382","","","","",""
"3823","salmon","mzungu,seri,baharia,sensilyo","sensilyo","n","3","html-keyboard-response","383","j","baharia","false","","4"
"2062.599999964237","","","","","3","html-slider-response","384","","","","2",""
"3293","","","","","3","html-keyboard-response","385","","","","",""
"3065","shoulder","mkuu,kelele,ndaniya,guruwe","mkuu","f","3","html-keyboard-response","386","f","mkuu","true","","4"
"1360.699999988079","","","","","3","html-slider-response","387","","","","2",""
"3369","","","","","3","html-keyboard-response","388","","","","",""
"3499","lamp","daub,bilaska,afya,mbolea","afya","j","3","html-keyboard-response","389","v","bilaska","false","","4"
"1953.300000011921","","","","","3","html-slider-response","390","","","","2",""
"4054","","","","","3","html-keyboard-response","391","","","","",""
"1952","shelf","pamahaw,bungtod,kadaot,awit","pamahaw","f","3","html-keyboard-response","392","f","pamahaw","true","","1"
"2096.2999999523163","","","","","3","html-slider-response","393","","","","5",""
"3798","","","","","3","html-keyboard-response","394","","","","",""
"2037","human","tinapay,bado,kikapu,punguza","tinapay","f","3","html-keyboard-response","395","f","tinapay","true","","4"
"1674.1000000238419","","","","","3","html-slider-response","396","","","","5",""
"1755","","","","","3","html-keyboard-response","397","","","","",""
"3626","towel","tembo,pagpalit,funzi,pito","pagpalit","v","3","html-keyboard-response","398","j","funzi","false","","4"
"2148.5","","","","","3","html-slider-response","399","","","","2",""
"2941","","","","","3","html-keyboard-response","400","","","","",""
"4987","cat","neyemba,paghukom,baki,akili","paghukom","v","3","html-keyboard-response","401","n","akili","false","","4"
"1621.6000000238419","","","","","3","html-slider-response","402","","","","4",""
"3180","","","","","3","html-keyboard-response","403","","","","",""
"4272","spider","bunyag,mkboa,kamwe,atop","kamwe","j","3","html-keyboard-response","404","v","mkboa","false","","4"
"2596.600000023842","","","","","3","html-slider-response","405","","","","1",""
"2868","","","","","3","html-keyboard-response","406","","","","",""
"5948","window","kweli,nanga,kujenga,umaga","kweli","f","3","html-keyboard-response","407","j","kujenga","false","","4"
"1863.800000011921","","","","","3","html-slider-response","408","","","","2",""
"3335","","","","","3","html-keyboard-response","409","","","","",""
"2796","woman","bandari,pagtabon,bituin,kovuli","pagtabon","v","3","html-keyboard-response","410","v","pagtabon","true","","1"
"2247.2999999523163","","","","","3","html-slider-response","411","","","","5",""
"2091","","","","","3","html-keyboard-response","412","","","","",""
"4289","giraffe","daraja,mahitabo,jumatu,hangyo","mahitabo","v","3","html-keyboard-response","413","n","hangyo","false","","4"
"2839.699999988079","","","","","3","html-slider-response","414","","","","4",""
"4479","","","","","3","html-keyboard-response","415","","","","",""
"5125","elephant","kito,petye,pagduol,suka","kito","f","3","html-keyboard-response","416","j","pagduol","false","","4"
"2129.099999964237","","","","","3","html-slider-response","417","","","","2",""
"3179","","","","","3","html-keyboard-response","418","","","","",""
"3348","cave","kesho,ganti,maisha,nyundo","kesho","f","3","html-keyboard-response","419","v","ganti","false","","4"
"1391.1000000238419","","","","","3","html-slider-response","420","","","","2",""
"2060","","","","","3","html-keyboard-response","421","","","","",""
"3987","bread","dari,kaili,dizeli,bugas","dari","f","3","html-keyboard-response","422","f","dari","true","","4"
"2251","","","","","3","html-slider-response","423","","","","2",""
"2100","","","","","3","html-keyboard-response","424","","","","",""
"5804","stone","ulimwengu,wingi,mkasi,asili","wingi","v","3","html-keyboard-response","425","f","ulimwengu","false","","4"
"2675.199999988079","","","","","3","html-slider-response","426","","","","2",""
"5744","","","","","3","html-keyboard-response","427","","","","",""
"4041","donkey","bloke,lalake,elfu,rombus","elfu","j","3","html-keyboard-response","428","j","elfu","true","","4"
"2199.7999999523163","","","","","3","html-slider-response","429","","","","5",""
"1324","","","","","3","html-keyboard-response","430","","","","",""
"3799","bridge","daima,sahani,ngono,panya","sahani","v","3","html-keyboard-response","431","v","sahani","true","","4"
"2096.399999976158","","","","","3","html-slider-response","432","","","","4",""
"1431","","","","","3","html-keyboard-response","433","","","","",""
"5679","bonfire","mwezi,goti,mfuko,kusanya","goti","v","3","html-keyboard-response","434","j","mfuko","false","","4"
"2848","","","","","3","html-slider-response","435","","","","2",""
"1366","","","","","3","html-keyboard-response","436","","","","",""
"4040","book","mali,kuhesa,picha,mara","mali","f","3","html-keyboard-response","437","f","mali","true","","4"
"1476.7000000476837","","","","","3","html-slider-response","438","","","","2",""
"1026","","","","","3","html-keyboard-response","439","","","","",""
"2019","fish","bala,baho,imani,buli","buli","n","3","html-keyboard-response","440","n","buli","true","","4"
"1691.699999988079","","","","","3","html-slider-response","441","","","","5",""
"992","","","","","3","html-keyboard-response","442","","","","",""
"3753","spoon","betri,nzuri,pagsulod,ngazi","pagsulod","j","3","html-keyboard-response","443","j","pagsulod","true","","4"
"2411.5","","","","","3","html-slider-response","444","","","","4",""
"1518","","","","","3","html-keyboard-response","445","","","","",""
"3859","scissors","tanuri,duga,mtawa,suga","tanuri","f","3","html-keyboard-response","446","f","tanuri","true","","4"
"1509.699999988079","","","","","3","html-slider-response","447","","","","2",""
"1127","","","","","3","html-keyboard-response","448","","","","",""
"3055","page","wakala,ishiri,wimbo,skina","wimbo","j","3","html-keyboard-response","449","v","ishiri","false","","4"
"2154","","","","","3","html-slider-response","450","","","","4",""
"1555","","","","","3","html-keyboard-response","451","","","","",""
"3305","nose","gubat,kopa,sehemu,kidole","sehemu","j","3","html-keyboard-response","452","j","sehemu","true","","1"
"1812.2000000476837","","","","","3","html-slider-response","453","","","","5",""
"1220","","","","","3","html-keyboard-response","454","","","","",""
"3064","ceiling","kugita,maua,kawaida,rayna","maua","v","3","html-keyboard-response","455","f","kugita","false","","4"
"1705.699999988079","","","","","3","html-slider-response","456","","","","2",""
"1234","","","","","3","html-keyboard-response","457","","","","",""
"4602","bucket","kiatu,baga,ijayo,init","kiatu","f","3","html-keyboard-response","458","f","kiatu","true","","4"
"1877.5","","","","","3","html-slider-response","459","","","","4",""
"1304","","","","","3","html-keyboard-response","460","","","","",""
"1606","berry","abogado,kofia,nogozi,kinywa","kofia","v","3","html-keyboard-response","461","v","kofia","true","","1"
"2232","","","","","3","html-slider-response","462","","","","5",""
"1111","","","","","3","html-keyboard-response","463","","","","",""
"2304","mother","kahawa,babaye,mbuzi,jokofu","babaye","v","3","html-keyboard-response","464","v","babaye","true","","1"
"1859.300000011921","","","","","3","html-slider-response","465","","","","5",""
"1144","","","","","3","html-keyboard-response","466","","","","",""
"3259","mosquito","isda,taras,gutom,martilyo","martilyo","n","3","html-keyboard-response","467","n","martilyo","true","","4"
"2122.800000011921","","","","","3","html-slider-response","468","","","","5",""
"822","","","","","3","html-keyboard-response","469","","","","",""
"4325","perfume","katuyoan,bino,sungura,ndogo","katuyoan","f","3","html-keyboard-response","470","v","bino","false","","4"
"2556.400000035763","","","","","3","html-slider-response","471","","","","2",""
"1168","","","","","3","html-keyboard-response","472","","","","",""
"8152","sheet","juuya,bililhon,watu,kamantis","bililhon","v","3","html-keyboard-response","473","v","bililhon","true","","4"
"1853.0999999642372","","","","","3","html-slider-response","474","","","","2",""
"1151","","","","","3","html-keyboard-response","475","","","","",""
"2114","puppet","napulo,mazishi,lamok,godoro","mazishi","v","3","html-keyboard-response","476","v","mazishi","true","","1"
"2702.300000011921","","","","","3","html-slider-response","477","","","","5",""
"1035","","","","","3","html-keyboard-response","478","","","","",""
"4312","poster","nchi,fedha,madungog,kasuko","madungog","j","3","html-keyboard-response","479","f","nchi","false","","4"
"2172.699999988079","","","","","3","html-slider-response","480","","","","1",""
"942","","","","","3","html-keyboard-response","481","","","","",""
"5547","music","mraba,mageho,tumbo,baiski","baiski","n","3","html-keyboard-response","482","j","tumbo","false","","4"
"1731.7999999523163","","","","","3","html-slider-response","483","","","","2",""
"1149","","","","","3","html-keyboard-response","484","","","","",""
"3922","key","miaka,chombo,goma,ahos","chombo","v","3","html-keyboard-response","485","f","miaka","false","","4"
"2625.199999988079","","","","","3","html-slider-response","486","","","","3",""
"1524","","","","","3","html-keyboard-response","487","","","","",""
"5347","sock","ndoora,kimysa,mamba,mtirka","mamba","j","3","html-keyboard-response","488","j","mamba","true","","4"
"2547.800000011921","","","","","3","html-slider-response","489","","","","5",""
"817","","","","","3","html-keyboard-response","490","","","","",""
"5725","marker","mapafu,maji,salita,atay","maji","v","3","html-keyboard-response","491","n","atay","false","","4"
"1512.1000000238419","","","","","3","html-slider-response","492","","","","1",""
"1376","","","","","3","html-keyboard-response","493","","","","",""
"7633","office","hazini,yatima,leso,kuna","leso","j","3","html-keyboard-response","494","f","hazini","false","","4"
"2329.600000023842","","","","","3","html-slider-response","495","","","","2",""
"1202","","","","","3","html-keyboard-response","496","","","","",""
"3236","shoe","nyeusi,hatua,kama,uyoga","uyoga","n","3","html-keyboard-response","497","j","kama","false","","4"
"2212.399999976158","","","","","3","html-slider-response","498","","","","1",""
"2341","","","","","3","html-keyboard-response","499","","","","",""
"4122","cop","mechezo,bustani,jikoni,bakus","mechezo","f","3","html-keyboard-response","500","v","bustani","false","","4"
"1887.0999999642372","","","","","3","html-slider-response","501","","","","2",""
"1970","","","","","3","html-keyboard-response","502","","","","",""
"2830","bank","silingan,kudhibi,tualya,ofisi","silingan","f","3","html-keyboard-response","503","n","ofisi","false","","4"
"3191.7999999523163","","","","","3","html-slider-response","504","","","","1",""
"1197","","","","","3","html-keyboard-response","505","","","","",""
"3264","letter","kifua,filimbi,chuma,uhuru","kifua","f","3","html-keyboard-response","506","f","kifua","true","","1"
"2267.2999999523163","","","","","3","html-slider-response","507","","","","5",""
"1022","","","","","3","html-keyboard-response","508","","","","",""
"1777","dog","lubi,bahari,washia,kalamu","bahari","v","3","html-keyboard-response","509","v","bahari","true","","1"
"2188.600000023842","","","","","3","html-slider-response","510","","","","5",""
"1116","","","","","3","html-keyboard-response","511","","","","",""
"5817","shop","nopya,kerida,samaki,ndezu","samaki","j","3","html-keyboard-response","512","f","nopya","false","","4"
"1715.5","","","","","3","html-slider-response","513","","","","1",""
"1177","","","","","3","html-keyboard-response","514","","","","",""
"7260","flower","tamasha,lobo,usiku,bega","bega","n","3","html-keyboard-response","515","j","usiku","false","","4"
"1409.3999999761581","","","","","3","html-slider-response","516","","","","2",""
"1159","","","","","3","html-keyboard-response","517","","","","",""
"2338","cigar","ndugu,adhabu,kuta,mlango","adhabu","v","3","html-keyboard-response","518","v","adhabu","true","","1"
"2237.199999988079","","","","","3","html-slider-response","519","","","","5",""
"878","","","","","3","html-keyboard-response","520","","","","",""
"6351","hammer","mekno,kitovu,layag,napakyas","napakyas","n","3","html-keyboard-response","521","j","layag","false","","4"
"1818.699999988079","","","","","3","html-slider-response","522","","","","2",""
"1302","","","","","3","html-keyboard-response","523","","","","",""
"5901","fork","baboy,paghago,mgonjwa,gorisi","mgonjwa","j","3","html-keyboard-response","524","j","mgonjwa","true","","4"
"1735.699999988079","","","","","3","html-slider-response","525","","","","4",""
"1906","","","","","3","html-keyboard-response","526","","","","",""
"1657","sun","bendi,luha,basi,uongo","basi","j","3","html-keyboard-response","527","j","basi","true","","1"
"1864.5","","","","","3","html-slider-response","528","","","","5",""
"649","","","","","3","html-keyboard-response","529","","","","",""
"4439","ladder","mashua,pangalan,mwanga,kamba","pangalan","v","3","html-keyboard-response","530","f","mashua","false","","4"
"1784.300000011921","","","","","3","html-slider-response","531","","","","1",""
"1171","","","","","3","html-keyboard-response","532","","","","",""
"1543","banana","kasamok,hagdan,twai,kazi","kazi","n","3","html-keyboard-response","533","n","kazi","true","","1"
"2145.099999964237","","","","","3","html-slider-response","534","","","","5",""
"762","","","","","3","html-keyboard-response","535","","","","",""
"6639","pudding","abug,mpishi,iring,aibu","aibu","n","3","html-keyboard-response","536","n","aibu","true","","4"
"1622.8999999761581","","","","","3","html-slider-response","537","","","","2",""
"959","","","","","3","html-keyboard-response","538","","","","",""
"8563","body","tindashan,nyundu,jibini,kununa","tindashan","f","3","html-keyboard-response","539","v","nyundu","false","","4"
"1737.2000000476837","","","","","3","html-slider-response","540","","","","2",""
"2038","","","","","3","html-keyboard-response","541","","","","",""
"2341","bed","kalipay,haraka,mapintas,starehe","mapintas","j","3","html-keyboard-response","542","f","kalipay","false","","4"
"1902.4000000357628","","","","","3","html-slider-response","543","","","","2",""
"2068","","","","","3","html-keyboard-response","544","","","","",""
"3352","tissue","ugomvi,lamigas,kisiwa,katika","ugomvi","f","3","html-keyboard-response","545","v","lamigas","false","","4"
"2122","","","","","3","html-slider-response","546","","","","1",""
"2331","","","","","3","html-keyboard-response","547","","","","",""
"4227","candle","gabi,farasi,kupanda,geza","geza","n","3","html-keyboard-response","548","n","geza","true","","4"
"2813.699999988079","","","","","3","html-slider-response","549","","","","2",""
"1062","","","","","3","html-keyboard-response","550","","","","",""
"2279","tomato","chupi,chupa,mvua,takatak","mvua","j","3","html-keyboard-response","551","j","mvua","true","","1"
"2149.400000035763","","","","","3","html-slider-response","552","","","","5",""
"992","","","","","3","html-keyboard-response","553","","","","",""
"1987","list","alizeti,wingu,kuzama,kaso","wingu","v","3","html-keyboard-response","554","v","wingu","true","","4"
"1560.199999988079","","","","","3","html-slider-response","555","","","","5",""
"860","","","","","3","html-keyboard-response","556","","","","",""
"4470","olive","bata,jiwe,siagi,welder","jiwe","v","3","html-keyboard-response","557","f","bata","false","","4"
"2091.7999999523163","","","","","3","html-slider-response","558","","","","4",""
"1200","","","","","3","html-keyboard-response","559","","","","",""
"2255","picture","kubwa,silya,chaki,asin","kubwa","f","3","html-keyboard-response","560","f","kubwa","true","","1"
"1842.3999999761581","","","","","3","html-slider-response","561","","","","5",""
"596","","","","","3","html-keyboard-response","562","","","","",""
"5942","page","wakala,ishiri,skina,wimbo","wimbo","n","4","html-keyboard-response","888","v","ishiri","false","",""
"2286.100000023842","","","","","4","html-slider-response","889","","","","2",""
"7723","sheet","juuya,watu,bililhon,kamantis","bililhon","j","4","html-keyboard-response","890","j","bililhon","true","",""
"2006.3999999761581","","","","","4","html-slider-response","891","","","","1",""
"5638","ladder","mashua,pangalan,mwanga,kamba","pangalan","v","4","html-keyboard-response","892","v","pangalan","true","",""
"2369.5","","","","","4","html-slider-response","893","","","","2",""
"5909","door","surali,tena,soko,nyota","surali","f","4","html-keyboard-response","894","f","surali","true","",""
"3532.300000011921","","","","","4","html-slider-response","895","","","","3",""
"5780","spider","bunyag,mkboa,atop,kamwe","kamwe","n","4","html-keyboard-response","896","v","mkboa","false","",""
"2396.100000023842","","","","","4","html-slider-response","897","","","","2",""
"4639","picture","kubwa,silya,chaki,asin","kubwa","f","4","html-keyboard-response","898","v","silya","false","",""
"1726","","","","","4","html-slider-response","899","","","","2",""
"2972","boat","hamsi,pombe,kitanda,agalon","agalon","n","4","html-keyboard-response","900","n","agalon","true","",""
"2239.100000023842","","","","","4","html-slider-response","901","","","","4",""
"2238","donkey","bloke,lalake,elfu,rombus","elfu","j","4","html-keyboard-response","902","j","elfu","true","",""
"3822.300000011921","","","","","4","html-slider-response","903","","","","5",""
"6395","book","mali,kuhesa,picha,mara","mali","f","4","html-keyboard-response","904","f","mali","true","",""
"2437.300000011921","","","","","4","html-slider-response","905","","","","2",""
"5712","cup","matumai,dagat,shimoni,jeraha","matumai","f","4","html-keyboard-response","906","v","dagat","false","",""
"1704.300000011921","","","","","4","html-slider-response","907","","","","2",""
"1500","sun","basi,bendi,luha,uongo","basi","f","4","html-keyboard-response","908","f","basi","true","",""
"1637.2000000476837","","","","","4","html-slider-response","909","","","","5",""
"3986","pudding","aibu,abug,mpishi,iring","aibu","f","4","html-keyboard-response","910","f","aibu","true","",""
"2792.099999964237","","","","","4","html-slider-response","911","","","","2",""
"1483","human","tinapay,bado,kikapu,punguza","tinapay","f","4","html-keyboard-response","912","f","tinapay","true","",""
"2339.599999964237","","","","","4","html-slider-response","913","","","","5",""
"3340","squirrel","mahugaw,hofu,ukweli,kichwa","hofu","v","4","html-keyboard-response","914","v","hofu","true","",""
"1946.9000000357628","","","","","4","html-slider-response","915","","","","4",""
"3098","park","tambok,pwani,ihalas,bunifu","bunifu","n","4","html-keyboard-response","916","n","bunifu","true","",""
"2257.599999964237","","","","","4","html-slider-response","917","","","","5",""
"5910","poster","nchi,madungog,fedha,kasuko","madungog","v","4","html-keyboard-response","918","j","fedha","false","",""
"2078.5","","","","","4","html-slider-response","919","","","","1",""
"2858","wolf","kaburi,ndizi,lugha,mchuzi","lugha","j","4","html-keyboard-response","920","j","lugha","true","",""
"1884.2000000476837","","","","","4","html-slider-response","921","","","","4",""
"5181","cat","neyemba,baki,akili,paghukom","paghukom","n","4","html-keyboard-response","922","v","baki","false","",""
"1855.4000000357628","","","","","4","html-slider-response","923","","","","2",""
"1517","fish","bala,baho,imani,buli","buli","n","4","html-keyboard-response","924","n","buli","true","",""
"1696.300000011921","","","","","4","html-slider-response","925","","","","5",""
"2594","tooth","kabalaka,kijiko,uadui,pahiyum","kabalaka","f","4","html-keyboard-response","926","f","kabalaka","true","",""
"2593.399999976158","","","","","4","html-slider-response","927","","","","4",""
"6396","cave","ganti,maisha,nyundo,kesho","kesho","n","4","html-keyboard-response","928","v","maisha","false","",""
"2348.5","","","","","4","html-slider-response","929","","","","1",""
"5001","lamp","daub,bilaska,mbolea,afya","afya","n","4","html-keyboard-response","930","n","afya","true","",""
"3387.599999964237","","","","","4","html-slider-response","931","","","","3",""
"2450","banana","kasamok,kazi,hagdan,twai","kazi","v","4","html-keyboard-response","932","v","kazi","true","",""
"2310","","","","","4","html-slider-response","933","","","","5",""
"4395","bonfire","mwezi,goti,mfuko,kusanya","goti","v","4","html-keyboard-response","934","n","kusanya","false","",""
"1775.5999999642372","","","","","4","html-slider-response","935","","","","2",""
"2332","cop","bustani,jikoni,bakus,mechezo","mechezo","n","4","html-keyboard-response","936","n","mechezo","true","",""
"1845","","","","","4","html-slider-response","937","","","","4",""
"4754","marker","mapafu,salita,maji,atay","maji","j","4","html-keyboard-response","938","j","maji","true","",""
"2478.099999964237","","","","","4","html-slider-response","939","","","","2",""
"7866","window","kweli,nanga,kujenga,umaga","kweli","f","4","html-keyboard-response","940","f","kweli","true","",""
"1682.800000011921","","","","","4","html-slider-response","941","","","","2",""
"3108","body","nyundu,jibini,kununa,tindashan","tindashan","n","4","html-keyboard-response","942","n","tindashan","true","",""
"2283.7000000476837","","","","","4","html-slider-response","943","","","","5",""
"6808","apple","ukame,kisu,estante,edad","kisu","v","4","html-keyboard-response","944","v","kisu","true","",""
"1639.0999999642372","","","","","4","html-slider-response","945","","","","1",""
"3951","salmon","mzungu,sensilyo,seri,baharia","sensilyo","v","4","html-keyboard-response","946","v","sensilyo","true","",""
"1496","","","","","4","html-slider-response","947","","","","4",""
"5518","bed","kalipay,mapintas,haraka,starehe","mapintas","v","4","html-keyboard-response","948","f","kalipay","false","",""
"1917.800000011921","","","","","4","html-slider-response","949","","","","2",""
"1956","berry","abogado,nogozi,kinywa,kofia","kofia","n","4","html-keyboard-response","950","n","kofia","true","",""
"3148.400000035763","","","","","4","html-slider-response","951","","","","5",""
"8536","mirror","sulagma,rangi,kanding,furaha","sulagma","f","4","html-keyboard-response","952","n","furaha","false","",""
"1695.300000011921","","","","","4","html-slider-response","953","","","","1",""
"6434","flag","trekta,ndege,mkate,kawa","trekta","f","4","html-keyboard-response","954","f","trekta","true","",""
"1849.699999988079","","","","","4","html-slider-response","955","","","","4",""
"4017","shoulder","kelele,ndaniya,guruwe,mkuu","mkuu","n","4","html-keyboard-response","956","n","mkuu","true","",""
"2135","","","","","4","html-slider-response","957","","","","4",""
"4515","tissue","lamigas,ugomvi,kisiwa,katika","ugomvi","v","4","html-keyboard-response","958","j","kisiwa","false","",""
"1846.300000011921","","","","","4","html-slider-response","959","","","","1",""
"6585","notebook","msitu,kila,kemia,mdudu","kemia","j","4","html-keyboard-response","960","v","kila","false","",""
"1364","","","","","4","html-slider-response","961","","","","2",""
"6154","snake","jansa,pagtukod,karon,mvringo","pagtukod","v","4","html-keyboard-response","962","v","pagtukod","true","",""
"1794.5","","","","","4","html-slider-response","963","","","","4",""
"1826","finger","simu,sufuria,lima,moyo","moyo","n","4","html-keyboard-response","964","n","moyo","true","",""
"1705.2999999523163","","","","","4","html-slider-response","965","","","","5",""
"4099","basket","kumbuka,utepe,kumba,hasira","kumba","j","4","html-keyboard-response","966","n","hasira","false","",""
"2305.199999988079","","","","","4","html-slider-response","967","","","","2",""
"2678","curtain","lisud,bulwawan,chubani,mchanga","mchanga","n","4","html-keyboard-response","968","n","mchanga","true","",""
"2061.5","","","","","4","html-slider-response","969","","","","4",""
"6034","perfume","bino,sungura,ndogo,katuyoan","katuyoan","n","4","html-keyboard-response","970","n","katuyoan","true","",""
"3064.100000023842","","","","","4","html-slider-response","971","","","","3",""
"3188","key","miaka,goma,ahos,chombo","chombo","n","4","html-keyboard-response","972","n","chombo","true","",""
"2302.5","","","","","4","html-slider-response","973","","","","4",""
"5670","olive","bata,jiwe,siagi,welder","jiwe","v","4","html-keyboard-response","974","j","siagi","false","",""
"2695.800000011921","","","","","4","html-slider-response","975","","","","3",""
"5180","rose","singizi,mwanake,amani,paghalad","paghalad","n","4","html-keyboard-response","976","v","mwanake","false","",""
"2304.5","","","","","4","html-slider-response","977","","","","2",""
"1974","bridge","daima,ngono,sahani,panya","sahani","j","4","html-keyboard-response","978","j","sahani","true","",""
"2359.5","","","","","4","html-slider-response","979","","","","4",""
"2331","hill","kushoto,kukimba,matumbo,sweta","matumbo","j","4","html-keyboard-response","980","j","matumbo","true","",""
"2854.800000011921","","","","","4","html-slider-response","981","","","","5",""
"5132","letter","kifua,filimbi,chuma,uhuru","kifua","f","4","html-keyboard-response","982","f","kifua","true","",""
"2743.7999999523163","","","","","4","html-slider-response","983","","","","2",""
"2486","sock","ndoora,kimysa,mamba,mtirka","mamba","j","4","html-keyboard-response","984","j","mamba","true","",""
"2391.7999999523163","","","","","4","html-slider-response","985","","","","5",""
"3972","fork","baboy,mgonjwa,paghago,gorisi","mgonjwa","v","4","html-keyboard-response","986","v","mgonjwa","true","",""
"1510.699999988079","","","","","4","html-slider-response","987","","","","4",""
"4269","box","kuacha,rafiki,adui,kitande","adui","j","4","html-keyboard-response","988","j","adui","true","",""
"1920.5","","","","","4","html-slider-response","989","","","","1",""
"1757","gift","pagtawag,baba,nyange,baso","pagtawag","f","4","html-keyboard-response","990","f","pagtawag","true","",""
"1729.4000000357628","","","","","4","html-slider-response","991","","","","5",""
"6426","bucket","baga,kiatu,ijayo,init","kiatu","v","4","html-keyboard-response","992","v","kiatu","true","",""
"1916.199999988079","","","","","4","html-slider-response","993","","","","4",""
"3451","shop","nopya,samaki,kerida,ndezu","samaki","v","4","html-keyboard-response","994","v","samaki","true","",""
"1832.3999999761581","","","","","4","html-slider-response","995","","","","2",""
"3429","puppet","napulo,mazishi,lamok,godoro","mazishi","v","4","html-keyboard-response","996","v","mazishi","true","",""
"2719.699999988079","","","","","4","html-slider-response","997","","","","4",""
"4785","nose","gubat,kopa,kidole,sehemu","sehemu","n","4","html-keyboard-response","998","v","kopa","false","",""
"1596.2000000476837","","","","","4","html-slider-response","999","","","","2",""
"2598","music","mraba,mageho,tumbo,baiski","baiski","n","4","html-keyboard-response","1000","j","tumbo","false","",""
"3130.599999964237","","","","","4","html-slider-response","1001","","","","3",""
"4232","dog","lubi,bahari,washia,kalamu","bahari","v","4","html-keyboard-response","1002","n","kalamu","false","",""
"2772.5","","","","","4","html-slider-response","1003","","","","2",""
"2222","eel","ishara,kunywa,kabuang,msumari","msumari","n","4","html-keyboard-response","1004","f","ishara","false","",""
"2190.100000023842","","","","","4","html-slider-response","1005","","","","4",""
"5964","number","mundamo,shule,kengele,choori","mundamo","f","4","html-keyboard-response","1006","f","mundamo","true","",""
"2006","","","","","4","html-slider-response","1007","","","","2",""
"4195","tomato","chupi,chupa,mvua,takatak","mvua","j","4","html-keyboard-response","1008","f","chupi","false","",""
"2569","","","","","4","html-slider-response","1009","","","","4",""
"1878","coffin","barua,tubag,hulma,kioo","kioo","n","4","html-keyboard-response","1010","n","kioo","true","",""
"1824.199999988079","","","","","4","html-slider-response","1011","","","","5",""
"3525","knee","mvuke,kubale,bili,duka","duka","n","4","html-keyboard-response","1012","n","duka","true","",""
"1700.4000000357628","","","","","4","html-slider-response","1013","","","","4",""
"3006","woman","bandari,pagtabon,bituin,kovuli","pagtabon","v","4","html-keyboard-response","1014","v","pagtabon","true","",""
"2004.800000011921","","","","","4","html-slider-response","1015","","","","5",""
"2754","stone","ulimwengu,mkasi,wingi,asili","wingi","j","4","html-keyboard-response","1016","j","wingi","true","",""
"2115","","","","","4","html-slider-response","1017","","","","4",""
"4642","bread","kaili,dari,dizeli,bugas","dari","v","4","html-keyboard-response","1018","v","dari","true","",""
"2305.900000035763","","","","","4","html-slider-response","1019","","","","3",""
"3930","triangle","kihozi,bentaha,liog,kasadpan","kasadpan","n","4","html-keyboard-response","1020","n","kasadpan","true","",""
"2217.399999976158","","","","","4","html-slider-response","1021","","","","3",""
"4800","scissors","duga,tanuri,mtawa,suga","tanuri","v","4","html-keyboard-response","1022","j","mtawa","false","",""
"2596.399999976158","","","","","4","html-slider-response","1023","","","","2",""
"5168","giraffe","daraja,jumatu,mahitabo,hangyo","mahitabo","j","4","html-keyboard-response","1024","j","mahitabo","true","",""
"2039.7999999523163","","","","","4","html-slider-response","1025","","","","3",""
"6391","flower","tamasha,lobo,bega,usiku","bega","j","4","html-keyboard-response","1026","j","bega","true","",""
"2917.699999988079","","","","","4","html-slider-response","1027","","","","2",""
"4209","candle","gabi,farasi,geza,kupanda","geza","j","4","html-keyboard-response","1028","j","geza","true","",""
"1636","","","","","4","html-slider-response","1029","","","","2",""
"1857","mother","babaye,kahawa,mbuzi,jokofu","babaye","f","4","html-keyboard-response","1030","f","babaye","true","",""
"2213.400000035763","","","","","4","html-slider-response","1031","","","","5",""
"5522","towel","tembo,pagpalit,funzi,pito","pagpalit","v","4","html-keyboard-response","1032","v","pagpalit","true","",""
"2053.100000023842","","","","","4","html-slider-response","1033","","","","2",""
"4326","elephant","petye,pagduol,suka,kito","kito","n","4","html-keyboard-response","1034","n","kito","true","",""
"1671.199999988079","","","","","4","html-slider-response","1035","","","","4",""
"4973","shelf","pamahaw,bungtod,kadaot,awit","pamahaw","f","4","html-keyboard-response","1036","f","pamahaw","true","",""
"2868.2999999523163","","","","","4","html-slider-response","1037","","","","3",""
"1914","mosquito","isda,taras,martilyo,gutom","martilyo","j","4","html-keyboard-response","1038","j","martilyo","true","",""
"1703.300000011921","","","","","4","html-slider-response","1039","","","","5",""
"2994","column","pundok,ufagio,dila,pala","ufagio","v","4","html-keyboard-response","1040","v","ufagio","true","",""
"1835.800000011921","","","","","4","html-slider-response","1041","","","","5",""
"3266","pants","pintal,chuki,haki,hari","haki","j","4","html-keyboard-response","1042","j","haki","true","",""
"2010","","","","","4","html-slider-response","1043","","","","1",""
"2281","list","alizeti,kuzama,wingu,kaso","wingu","j","4","html-keyboard-response","1044","j","wingu","true","",""
"1914.5999999642372","","","","","4","html-slider-response","1045","","","","4",""
"5314","bank","kudhibi,tualya,ofisi,silingan","silingan","n","4","html-keyboard-response","1046","n","silingan","true","",""
"1936.5","","","","","4","html-slider-response","1047","","","","2",""
"4977","clock","mbwa,kartasi,abang,osha","mbwa","f","4","html-keyboard-response","1048","v","kartasi","false","",""
"2084.099999964237","","","","","4","html-slider-response","1049","","","","2",""
"3313","ceiling","maua,kugita,kawaida,rayna","maua","f","4","html-keyboard-response","1050","j","kawaida","false","",""
"1977.800000011921","","","","","4","html-slider-response","1051","","","","2",""
"3832","train","itik,dakika,mungu,sayari","sayari","n","4","html-keyboard-response","1052","n","sayari","true","",""
"1419.5999999642372","","","","","4","html-slider-response","1053","","","","4",""
"3990","magazine","gundi,mchawi,bahandi,kiti","kiti","n","4","html-keyboard-response","1054","v","mchawi","false","",""
"2351.600000023842","","","","","4","html-slider-response","1055","","","","2",""
"4844","office","hazini,leso,yatima,kuna","leso","v","4","html-keyboard-response","1056","v","leso","true","",""
"2591.099999964237","","","","","4","html-slider-response","1057","","","","2",""
"3189","wheel","punda,bafuni,tawo,baadaye","bafuni","v","4","html-keyboard-response","1058","v","bafuni","true","",""
"3206.300000011921","","","","","4","html-slider-response","1059","","","","3",""
"2924","spoon","betri,nzuri,pagsulod,ngazi","pagsulod","j","4","html-keyboard-response","1060","j","pagsulod","true","",""
"2690.5","","","","","4","html-slider-response","1061","","","","2",""
"4469","hammer","mekno,kitovu,layag,napakyas","napakyas","n","4","html-keyboard-response","1062","v","kitovu","false","",""
"1558.8999999761581","","","","","4","html-slider-response","1063","","","","2",""
"5513","cigar","ndugu,kuta,adhabu,mlango","adhabu","j","4","html-keyboard-response","1064","n","mlango","false","",""
"1855.1000000238419","","","","","4","html-slider-response","1065","","","","2",""
"4502","shoe","nyeusi,uyoga,hatua,kama","uyoga","v","4","html-keyboard-response","1066","v","uyoga","true","",""
"2361.2000000476837","","","","","4","html-slider-response","1067","","","","4",""
"3537","list","alizeti,kuzama,kaso,wingu","wingu","n","5","html-keyboard-response","1069","n","wingu","true","",""
"2164","","","","","5","html-slider-response","1070","","","","4",""
"5007","number","mundamo,shule,kengele,choori","mundamo","f","5","html-keyboard-response","1071","f","mundamo","true","",""
"2444.900000035763","","","","","5","html-slider-response","1072","","","","2",""
"4555","apple","ukame,estante,kisu,edad","kisu","j","5","html-keyboard-response","1073","f","ukame","false","",""
"2671.400000035763","","","","","5","html-slider-response","1074","","","","3",""
"2181","knee","duka,mvuke,kubale,bili","duka","f","5","html-keyboard-response","1075","f","duka","true","",""
"1806.5","","","","","5","html-slider-response","1076","","","","4",""
"2035","tooth","kijiko,uadui,pahiyum,kabalaka","kabalaka","n","5","html-keyboard-response","1077","n","kabalaka","true","",""
"1833","","","","","5","html-slider-response","1078","","","","4",""
"1506","berry","kofia,abogado,nogozi,kinywa","kofia","f","5","html-keyboard-response","1079","f","kofia","true","",""
"1847","","","","","5","html-slider-response","1080","","","","5",""
"2172","bridge","daima,ngono,panya,sahani","sahani","n","5","html-keyboard-response","1081","n","sahani","true","",""
"1617.4000000357628","","","","","5","html-slider-response","1082","","","","4",""
"4330","perfume","katuyoan,bino,sungura,ndogo","katuyoan","f","5","html-keyboard-response","1083","f","katuyoan","true","",""
"1913.699999988079","","","","","5","html-slider-response","1084","","","","2",""
"2846","ladder","mashua,mwanga,pangalan,kamba","pangalan","j","5","html-keyboard-response","1085","j","pangalan","true","",""
"2434.400000035763","","","","","5","html-slider-response","1086","","","","2",""
"2456","pants","pintal,chuki,hari,haki","haki","n","5","html-keyboard-response","1087","n","haki","true","",""
"1681.9000000357628","","","","","5","html-slider-response","1088","","","","2",""
"2172","salmon","mzungu,sensilyo,seri,baharia","sensilyo","v","5","html-keyboard-response","1089","v","sensilyo","true","",""
"1627.7000000476837","","","","","5","html-slider-response","1090","","","","4",""
"2417","coffin","barua,tubag,kioo,hulma","kioo","j","5","html-keyboard-response","1091","j","kioo","true","",""
"2294.5","","","","","5","html-slider-response","1092","","","","4",""
"3408","park","tambok,pwani,bunifu,ihalas","bunifu","j","5","html-keyboard-response","1093","j","bunifu","true","",""
"3982.600000023842","","","","","5","html-slider-response","1094","","","","5",""
"5489","giraffe","mahitabo,daraja,jumatu,hangyo","mahitabo","f","5","html-keyboard-response","1095","f","mahitabo","true","",""
"3510.699999988079","","","","","5","html-slider-response","1096","","","","3",""
"4781","mirror","sulagma,rangi,kanding,furaha","sulagma","f","5","html-keyboard-response","1097","f","sulagma","true","",""
"2140.7999999523163","","","","","5","html-slider-response","1098","","","","2",""
"6884","ceiling","kugita,kawaida,rayna,maua","maua","n","5","html-keyboard-response","1099","v","kawaida","false","",""
"1975.6000000238419","","","","","5","html-slider-response","1100","","","","2",""
"8187","marker","mapafu,maji,salita,atay","maji","v","5","html-keyboard-response","1101","v","maji","true","",""
"1687.7999999523163","","","","","5","html-slider-response","1102","","","","2",""
"1797","sock","ndoora,kimysa,mamba,mtirka","mamba","j","5","html-keyboard-response","1103","j","mamba","true","",""
"1801","","","","","5","html-slider-response","1104","","","","5",""
"3188","cop","bustani,jikoni,mechezo,bakus","mechezo","j","5","html-keyboard-response","1105","j","mechezo","true","",""
"2007.8999999761581","","","","","5","html-slider-response","1106","","","","5",""
"1581","gift","pagtawag,baba,nyange,baso","pagtawag","f","5","html-keyboard-response","1107","f","pagtawag","true","",""
"2858.7999999523163","","","","","5","html-slider-response","1108","","","","5",""
"6071","notebook","msitu,kila,mdudu,kemia","kemia","n","5","html-keyboard-response","1109","n","kemia","true","",""
"2359.800000011921","","","","","5","html-slider-response","1110","","","","2",""
"4211","bank","kudhibi,tualya,ofisi,silingan","silingan","n","5","html-keyboard-response","1111","n","silingan","true","",""
"2883.199999988079","","","","","5","html-slider-response","1112","","","","3",""
"3036","letter","kifua,filimbi,chuma,uhuru","kifua","f","5","html-keyboard-response","1113","f","kifua","true","",""
"1438.1000000238419","","","","","5","html-slider-response","1114","","","","2",""
"1696","candle","gabi,farasi,kupanda,geza","geza","n","5","html-keyboard-response","1115","n","geza","true","",""
"2926.5","","","","","5","html-slider-response","1116","","","","3",""
"4928","bread","kaili,dari,dizeli,bugas","dari","v","5","html-keyboard-response","1117","v","dari","true","",""
"3012.399999976158","","","","","5","html-slider-response","1118","","","","3",""
"2901","snake","jansa,pagtukod,karon,mvringo","pagtukod","v","5","html-keyboard-response","1119","v","pagtukod","true","",""
"2329.599999964237","","","","","5","html-slider-response","1120","","","","4",""
"5139","rose","singizi,mwanake,paghalad,amani","paghalad","j","5","html-keyboard-response","1121","v","mwanake","false","",""
"2370.099999964237","","","","","5","html-slider-response","1122","","","","2",""
"1703","hill","kushoto,kukimba,matumbo,sweta","matumbo","j","5","html-keyboard-response","1123","j","matumbo","true","",""
"2532.5","","","","","5","html-slider-response","1124","","","","4",""
"2293","train","itik,sayari,dakika,mungu","sayari","v","5","html-keyboard-response","1125","v","sayari","true","",""
"1681.199999988079","","","","","5","html-slider-response","1126","","","","4",""
"4732","shop","nopya,kerida,ndezu,samaki","samaki","n","5","html-keyboard-response","1127","n","samaki","true","",""
"2032.3999999761581","","","","","5","html-slider-response","1128","","","","2",""
"2846","nose","gubat,kopa,sehemu,kidole","sehemu","j","5","html-keyboard-response","1129","v","kopa","false","",""
"2522.5","","","","","5","html-slider-response","1130","","","","3",""
"5215","boat","hamsi,agalon,pombe,kitanda","agalon","v","5","html-keyboard-response","1131","v","agalon","true","",""
"1656.800000011921","","","","","5","html-slider-response","1132","","","","4",""
"1909","body","nyundu,jibini,kununa,tindashan","tindashan","n","5","html-keyboard-response","1133","n","tindashan","true","",""
"1883.8999999761581","","","","","5","html-slider-response","1134","","","","5",""
"4393","bed","kalipay,mapintas,haraka,starehe","mapintas","v","5","html-keyboard-response","1135","v","mapintas","true","",""
"3307.400000035763","","","","","5","html-slider-response","1136","","","","2",""
"9804","squirrel","mahugaw,ukweli,hofu,kichwa","hofu","j","5","html-keyboard-response","1137","j","hofu","true","",""
"1828.800000011921","","","","","5","html-slider-response","1138","","","","4",""
"2406","window","nanga,kujenga,umaga,kweli","kweli","n","5","html-keyboard-response","1139","v","kujenga","false","",""
"2435","","","","","5","html-slider-response","1140","","","","3",""
"3001","bonfire","mwezi,mfuko,kusanya,goti","goti","n","5","html-keyboard-response","1141","j","kusanya","false","",""
"1897.199999988079","","","","","5","html-slider-response","1142","","","","2",""
"2241","fish","buli,bala,baho,imani","buli","f","5","html-keyboard-response","1143","f","buli","true","",""
"1915.8999999761581","","","","","5","html-slider-response","1144","","","","5",""
"4523","cat","neyemba,baki,paghukom,akili","paghukom","j","5","html-keyboard-response","1145","j","paghukom","true","",""
"2330.300000011921","","","","","5","html-slider-response","1146","","","","3",""
"7061","spider","bunyag,mkboa,atop,kamwe","kamwe","n","5","html-keyboard-response","1147","v","mkboa","false","",""
"1784.5","","","","","5","html-slider-response","1148","","","","2",""
"2469","eel","ishara,kunywa,kabuang,msumari","msumari","n","5","html-keyboard-response","1149","f","ishara","false","",""
"1843","","","","","5","html-slider-response","1150","","","","4",""
"1954","woman","pagtabon,bandari,bituin,kovuli","pagtabon","f","5","html-keyboard-response","1151","f","pagtabon","true","",""
"2322.5","","","","","5","html-slider-response","1152","","","","5",""
"3064","magazine","kiti,gundi,mchawi,bahandi","kiti","f","5","html-keyboard-response","1153","j","mchawi","false","",""
"1625","","","","","5","html-slider-response","1154","","","","2",""
"5992","pudding","abug,aibu,mpishi,iring","aibu","v","5","html-keyboard-response","1155","j","mpishi","false","",""
"1945.2999999523163","","","","","5","html-slider-response","1156","","","","1",""
"4578","lamp","afya,daub,bilaska,mbolea","afya","f","5","html-keyboard-response","1157","f","afya","true","",""
"2725.300000011921","","","","","5","html-slider-response","1158","","","","3",""
"4302","cave","kesho,ganti,maisha,nyundo","kesho","f","5","html-keyboard-response","1159","j","maisha","false","",""
"1661.0999999642372","","","","","5","html-slider-response","1160","","","","2",""
"2832","shoulder","mkuu,kelele,ndaniya,guruwe","mkuu","f","5","html-keyboard-response","1161","f","mkuu","true","",""
"2041.699999988079","","","","","5","html-slider-response","1162","","","","4",""
"1894","stone","ulimwengu,mkasi,wingi,asili","wingi","j","5","html-keyboard-response","1163","j","wingi","true","",""
"1749.5","","","","","5","html-slider-response","1164","","","","5",""
"2405","column","pundok,dila,ufagio,pala","ufagio","j","5","html-keyboard-response","1165","j","ufagio","true","",""
"1751.6000000238419","","","","","5","html-slider-response","1166","","","","5",""
"6433","page","wakala,ishiri,wimbo,skina","wimbo","j","5","html-keyboard-response","1167","v","ishiri","false","",""
"2028.699999988079","","","","","5","html-slider-response","1168","","","","2",""
"3580","shoe","nyeusi,hatua,uyoga,kama","uyoga","j","5","html-keyboard-response","1169","j","uyoga","true","",""
"1649.9000000357628","","","","","5","html-slider-response","1170","","","","4",""
"2069","clock","mbwa,kartasi,abang,osha","mbwa","f","5","html-keyboard-response","1171","f","mbwa","true","",""
"1460.699999988079","","","","","5","html-slider-response","1172","","","","2",""
"4235","towel","tembo,pagpalit,funzi,pito","pagpalit","v","5","html-keyboard-response","1173","v","pagpalit","true","",""
"2194.699999988079","","","","","5","html-slider-response","1174","","","","2",""
"3496","tomato","chupi,chupa,mvua,takatak","mvua","j","5","html-keyboard-response","1175","v","chupa","false","",""
"3026.100000023842","","","","","5","html-slider-response","1176","","","","2",""
"5590","bucket","baga,kiatu,ijayo,init","kiatu","v","5","html-keyboard-response","1177","v","kiatu","true","",""
"1877.699999988079","","","","","5","html-slider-response","1178","","","","2",""
"1612","finger","moyo,simu,sufuria,lima","moyo","f","5","html-keyboard-response","1179","f","moyo","true","",""
"1644","","","","","5","html-slider-response","1180","","","","5",""
"1866","mother","kahawa,mbuzi,babaye,jokofu","babaye","j","5","html-keyboard-response","1181","j","babaye","true","",""
"1587.5","","","","","5","html-slider-response","1182","","","","5",""
"1548","human","tinapay,bado,kikapu,punguza","tinapay","f","5","html-keyboard-response","1183","f","tinapay","true","",""
"1902.8999999761581","","","","","5","html-slider-response","1184","","","","5",""
"2798","sun","bendi,basi,luha,uongo","basi","v","5","html-keyboard-response","1185","v","basi","true","",""
"1762","","","","","5","html-slider-response","1186","","","","5",""
"3505","fork","baboy,paghago,mgonjwa,gorisi","mgonjwa","j","5","html-keyboard-response","1187","j","mgonjwa","true","",""
"1661.199999988079","","","","","5","html-slider-response","1188","","","","4",""
"1626","donkey","elfu,bloke,lalake,rombus","elfu","f","5","html-keyboard-response","1189","f","elfu","true","",""
"1564.9000000357628","","","","","5","html-slider-response","1190","","","","5",""
"2327","wolf","kaburi,ndizi,mchuzi,lugha","lugha","n","5","html-keyboard-response","1191","n","lugha","true","",""
"2144.900000035763","","","","","5","html-slider-response","1192","","","","3",""
"2037","cigar","ndugu,kuta,mlango,adhabu","adhabu","n","5","html-keyboard-response","1193","j","mlango","false","",""
"1603.300000011921","","","","","5","html-slider-response","1194","","","","2",""
"1856","olive","jiwe,bata,siagi,welder","jiwe","f","5","html-keyboard-response","1195","v","bata","false","",""
"1561.199999988079","","","","","5","html-slider-response","1196","","","","2",""
"4554","key","miaka,goma,ahos,chombo","chombo","n","5","html-keyboard-response","1197","n","chombo","true","",""
"2211.900000035763","","","","","5","html-slider-response","1198","","","","4",""
"3933","door","surali,tena,soko,nyota","surali","f","5","html-keyboard-response","1199","f","surali","true","",""
"1494.9000000357628","","","","","5","html-slider-response","1200","","","","2",""
"2754","wheel","bafuni,punda,tawo,baadaye","bafuni","f","5","html-keyboard-response","1201","f","bafuni","true","",""
"1508","","","","","5","html-slider-response","1202","","","","2",""
"2978","basket","kumba,kumbuka,utepe,hasira","kumba","f","5","html-keyboard-response","1203","j","utepe","false","",""
"2574.699999988079","","","","","5","html-slider-response","1204","","","","2",""
"1656","elephant","petye,pagduol,suka,kito","kito","n","5","html-keyboard-response","1205","n","kito","true","",""
"1497.9000000357628","","","","","5","html-slider-response","1206","","","","4",""
"2717","office","hazini,yatima,kuna,leso","leso","n","5","html-keyboard-response","1207","f","hazini","false","",""
"2387.100000023842","","","","","5","html-slider-response","1208","","","","3",""
"1802","music","mraba,mageho,tumbo,baiski","baiski","n","5","html-keyboard-response","1209","f","mraba","false","",""
"2283.699999988079","","","","","5","html-slider-response","1210","","","","2",""
"3031","tissue","lamigas,kisiwa,ugomvi,katika","ugomvi","j","5","html-keyboard-response","1211","j","ugomvi","true","",""
"1920.3999999761581","","","","","5","html-slider-response","1212","","","","2",""
"2675","curtain","lisud,mchanga,bulwawan,chubani","mchanga","v","5","html-keyboard-response","1213","v","mchanga","true","",""
"1611.9000000357628","","","","","5","html-slider-response","1214","","","","4",""
"2093","flag","ndege,mkate,kawa,trekta","trekta","n","5","html-keyboard-response","1215","n","trekta","true","",""
"3659.300000011921","","","","","5","html-slider-response","1216","","","","5",""
"2763","dog","lubi,bahari,washia,kalamu","bahari","v","5","html-keyboard-response","1217","v","bahari","true","",""
"1564.5","","","","","5","html-slider-response","1218","","","","2",""
"3856","cup","dagat,shimoni,jeraha,matumai","matumai","n","5","html-keyboard-response","1219","n","matumai","true","",""
"1646.3999999761581","","","","","5","html-slider-response","1220","","","","2",""
"2800","sheet","juuya,watu,kamantis,bililhon","bililhon","n","5","html-keyboard-response","1221","n","bililhon","true","",""
"1635","","","","","5","html-slider-response","1222","","","","2",""
"3819","spoon","betri,pagsulod,nzuri,ngazi","pagsulod","v","5","html-keyboard-response","1223","v","pagsulod","true","",""
"3064.800000011921","","","","","5","html-slider-response","1224","","","","3",""
"2912","flower","bega,tamasha,lobo,usiku","bega","f","5","html-keyboard-response","1225","f","bega","true","",""
"1928.300000011921","","","","","5","html-slider-response","1226","","","","2",""
"2923","picture","silya,kubwa,chaki,asin","kubwa","v","5","html-keyboard-response","1227","f","silya","false","",""
"1841.6000000238419","","","","","5","html-slider-response","1228","","","","2",""
"1614","puppet","napulo,mazishi,lamok,godoro","mazishi","v","5","html-keyboard-response","1229","v","mazishi","true","",""
"2087.600000023842","","","","","5","html-slider-response","1230","","","","4",""
"1565","banana","kazi,kasamok,hagdan,twai","kazi","f","5","html-keyboard-response","1231","f","kazi","true","",""
"1863.199999988079","","","","","5","html-slider-response","1232","","","","5",""
"2630","book","kuhesa,picha,mara,mali","mali","n","5","html-keyboard-response","1233","n","mali","true","",""
"1443.800000011921","","","","","5","html-slider-response","1234","","","","2",""
"3762","triangle","kihozi,bentaha,kasadpan,liog","kasadpan","j","5","html-keyboard-response","1235","v","bentaha","false","",""
"2380.199999988079","","","","","5","html-slider-response","1236","","","","3",""
"1851","poster","nchi,fedha,madungog,kasuko","madungog","j","5","html-keyboard-response","1237","n","kasuko","false","",""
"1600.699999988079","","","","","5","html-slider-response","1238","","","","2",""
"3163","box","adui,kuacha,rafiki,kitande","adui","f","5","html-keyboard-response","1239","v","kuacha","false","",""
"1517.199999988079","","","","","5","html-slider-response","1240","","","","2",""
"1544","mosquito","martilyo,isda,taras,gutom","martilyo","f","5","html-keyboard-response","1241","f","martilyo","true","",""
"2344.600000023842","","","","","5","html-slider-response","1242","","","","5",""
"2553","shelf","bungtod,kadaot,pamahaw,awit","pamahaw","j","5","html-keyboard-response","1243","v","kadaot","false","",""
"1600.1000000238419","","","","","5","html-slider-response","1244","","","","2",""
"1733","scissors","duga,mtawa,suga,tanuri","tanuri","n","5","html-keyboard-response","1245","v","mtawa","false","",""
"3197.5","","","","","5","html-slider-response","1246","","","","3",""
"3315","hammer","mekno,napakyas,kitovu,layag","napakyas","v","5","html-keyboard-response","1247","f","mekno","false","",""
"1919.7000000476837","","","","","5","html-slider-response","1248","","","","2",""
