"rt","en_word","options","swa_word","correct_answer","phase","trial_type","trial_index","input_answer","input_word","accuracy","certainty","amt_choices"
"12110","bonfire","goti,mwezi,mfuko,kusanya","goti","f","2","html-keyboard-response","106","f","goti","true","",""
"3023.9000000001397","","","","","2","html-slider-response","107","","","","4",""
"6521","flower","tamasha,lobo,bega,usiku","bega","j","2","html-keyboard-response","108","j","bega","true","",""
"2081.0549999987707","","","","","2","html-slider-response","109","","","","4",""
"5574","column","pundok,dila,ufagio,pala","ufagio","j","2","html-keyboard-response","110","v","dila","false","",""
"2159.4850000001607","","","","","2","html-slider-response","111","","","","2",""
"5956","music","mraba,mageho,tumbo,baiski","baiski","n","2","html-keyboard-response","112","n","baiski","true","",""
"3660.794999999751","","","","","2","html-slider-response","113","","","","3",""
"7503","spider","bunyag,mkboa,kamwe,atop","kamwe","j","2","html-keyboard-response","114","j","kamwe","true","",""
"3588.325000000652","","","","","2","html-slider-response","115","","","","2",""
"7696","fork","baboy,mgonjwa,paghago,gorisi","mgonjwa","v","2","html-keyboard-response","116","j","paghago","false","",""
"2581.399999999092","","","","","2","html-slider-response","117","","","","2",""
"9295","mosquito","martilyo,isda,taras,gutom","martilyo","f","2","html-keyboard-response","118","n","gutom","false","",""
"1876.1150000027847","","","","","2","html-slider-response","119","","","","4",""
"8190","banana","kasamok,hagdan,kazi,twai","kazi","j","2","html-keyboard-response","120","f","kasamok","false","",""
"4519.939999998314","","","","","2","html-slider-response","121","","","","2",""
"5549","cup","dagat,shimoni,matumai,jeraha","matumai","j","2","html-keyboard-response","122","j","matumai","true","",""
"2493.304999999935","","","","","2","html-slider-response","123","","","","4",""
"5764","shop","nopya,kerida,ndezu,samaki","samaki","n","2","html-keyboard-response","124","n","samaki","true","",""
"2681.63999999885","","","","","2","html-slider-response","125","","","","2",""
"3693","elephant","petye,kito,pagduol,suka","kito","v","2","html-keyboard-response","126","v","kito","true","",""
"3622.7749999997905","","","","","2","html-slider-response","127","","","","5",""
"9406","bucket","baga,kiatu,ijayo,init","kiatu","v","2","html-keyboard-response","128","f","baga","false","",""
"2603.704999997746","","","","","2","html-slider-response","129","","","","2",""
"7527","book","kuhesa,mali,picha,mara","mali","v","2","html-keyboard-response","130","v","mali","true","",""
"2062.515000001411","","","","","2","html-slider-response","131","","","","4",""
"7325","mirror","rangi,kanding,furaha,sulagma","sulagma","n","2","html-keyboard-response","132","n","sulagma","true","",""
"2697.0650000002934","","","","","2","html-slider-response","133","","","","2",""
"3812","office","hazini,yatima,leso,kuna","leso","j","2","html-keyboard-response","134","f","hazini","false","",""
"1923.6949999976205","","","","","2","html-slider-response","135","","","","2",""
"3868","body","nyundu,jibini,tindashan,kununa","tindashan","j","2","html-keyboard-response","136","n","kununa","false","",""
"2080.8300000026356","","","","","2","html-slider-response","137","","","","2",""
"8074","perfume","bino,katuyoan,sungura,ndogo","katuyoan","v","2","html-keyboard-response","138","n","ndogo","false","",""
"3000.3900000010617","","","","","2","html-slider-response","139","","","","3",""
"10281","olive","jiwe,bata,siagi,welder","jiwe","f","2","html-keyboard-response","140","f","jiwe","true","",""
"3039.554999999469","","","","","2","html-slider-response","141","","","","3",""
"7674","magazine","gundi,mchawi,kiti,bahandi","kiti","j","2","html-keyboard-response","142","j","kiti","true","",""
"2093.6299999994226","","","","","2","html-slider-response","143","","","","2",""
"3611","bread","kaili,dari,dizeli,bugas","dari","v","2","html-keyboard-response","144","n","bugas","false","",""
"1875.035000000964","","","","","2","html-slider-response","145","","","","2",""
"2748","cave","ganti,maisha,kesho,nyundo","kesho","j","2","html-keyboard-response","146","j","kesho","true","",""
"1798.8699999987148","","","","","2","html-slider-response","147","","","","2",""
"3797","ladder","mashua,mwanga,pangalan,kamba","pangalan","j","2","html-keyboard-response","148","v","mwanga","false","",""
"1795.1350000002421","","","","","2","html-slider-response","149","","","","2",""
"4824","human","bado,tinapay,kikapu,punguza","tinapay","v","2","html-keyboard-response","150","n","punguza","false","",""
"1600.994999997085","","","","","2","html-slider-response","151","","","","2",""
"3841","clock","kartasi,abang,mbwa,osha","mbwa","j","2","html-keyboard-response","152","n","osha","false","",""
"1873.534999998752","","","","","2","html-slider-response","153","","","","2",""
"7552","shelf","bungtod,kadaot,awit,pamahaw","pamahaw","n","2","html-keyboard-response","154","f","bungtod","false","",""
"1982.1300000002375","","","","","2","html-slider-response","155","","","","2",""
"7114","salmon","mzungu,sensilyo,seri,baharia","sensilyo","v","2","html-keyboard-response","156","j","seri","false","",""
"2228.1550000007264","","","","","2","html-slider-response","157","","","","2",""
"3865","coffin","kioo,barua,tubag,hulma","kioo","f","2","html-keyboard-response","158","n","hulma","false","",""
"1556.4100000010803","","","","","2","html-slider-response","159","","","","2",""
"4075","notebook","kemia,msitu,kila,mdudu","kemia","f","2","html-keyboard-response","160","v","msitu","false","",""
"1749.039999998873","","","","","2","html-slider-response","161","","","","2",""
"3576","shoulder","kelele,ndaniya,mkuu,guruwe","mkuu","j","2","html-keyboard-response","162","v","ndaniya","false","",""
"2059.23999999871","","","","","2","html-slider-response","163","","","","2",""
"4698","park","tambok,pwani,bunifu,ihalas","bunifu","j","2","html-keyboard-response","164","v","pwani","false","",""
"1729.0150000008289","","","","","2","html-slider-response","165","","","","2",""
"3837","number","shule,kengele,mundamo,choori","mundamo","j","2","html-keyboard-response","166","j","mundamo","true","",""
"1715.2949999981793","","","","","2","html-slider-response","167","","","","2",""
"3802","apple","kisu,ukame,estante,edad","kisu","f","2","html-keyboard-response","168","f","kisu","true","",""
"2967.9500000019325","","","","","2","html-slider-response","169","","","","3",""
"7338","letter","filimbi,chuma,uhuru,kifua","kifua","n","2","html-keyboard-response","170","v","chuma","false","",""
"1861.0000000006985","","","","","2","html-slider-response","171","","","","2",""
"8436","eel","msumari,ishara,kunywa,kabuang","msumari","f","2","html-keyboard-response","172","j","kunywa","false","",""
"1805.8999999993248","","","","","2","html-slider-response","173","","","","4",""
"2882","cop","bustani,jikoni,bakus,mechezo","mechezo","n","2","html-keyboard-response","174","j","bakus","false","",""
"1827.0950000005541","","","","","2","html-slider-response","175","","","","2",""
"2677","wolf","lugha,kaburi,ndizi,mchuzi","lugha","f","2","html-keyboard-response","176","j","ndizi","false","",""
"1839.6800000009825","","","","","2","html-slider-response","177","","","","2",""
"3849","squirrel","mahugaw,ukweli,kichwa,hofu","hofu","n","2","html-keyboard-response","178","v","ukweli","false","",""
"2721.8399999983376","","","","","2","html-slider-response","179","","","","3",""
"3280","nose","gubat,kopa,sehemu,kidole","sehemu","j","2","html-keyboard-response","180","v","kopa","false","",""
"2782.259999999893","","","","","2","html-slider-response","181","","","","3",""
"6672","sock","ndoora,kimysa,mamba,mtirka","mamba","j","2","html-keyboard-response","182","f","ndoora","false","",""
"3679.4849999969592","","","","","2","html-slider-response","183","","","","3",""
"3781","bank","silingan,kudhibi,tualya,ofisi","silingan","f","2","html-keyboard-response","184","v","kudhibi","false","",""
"1723.8050000014482","","","","","2","html-slider-response","185","","","","2",""
"6939","donkey","bloke,elfu,lalake,rombus","elfu","v","2","html-keyboard-response","186","j","lalake","false","",""
"1851.0700000006473","","","","","2","html-slider-response","187","","","","4",""
"3046","poster","nchi,madungog,fedha,kasuko","madungog","v","2","html-keyboard-response","188","n","kasuko","false","",""
"1720.9100000000326","","","","","2","html-slider-response","189","","","","2",""
"3813","puppet","mazishi,napulo,lamok,godoro","mazishi","f","2","html-keyboard-response","190","f","mazishi","true","",""
"1774.8599999976577","","","","","2","html-slider-response","191","","","","2",""
"2614","hill","kushoto,kukimba,sweta,matumbo","matumbo","n","2","html-keyboard-response","192","j","sweta","false","",""
"1743.1749999996973","","","","","2","html-slider-response","193","","","","2",""
"5399","tooth","kabalaka,kijiko,uadui,pahiyum","kabalaka","f","2","html-keyboard-response","194","f","kabalaka","true","",""
"1665.485000001383","","","","","2","html-slider-response","195","","","","4",""
"4087","woman","bandari,pagtabon,bituin,kovuli","pagtabon","v","2","html-keyboard-response","196","n","kovuli","false","",""
"2564.679999999469","","","","","2","html-slider-response","197","","","","3",""
"6755","wheel","punda,tawo,bafuni,baadaye","bafuni","j","2","html-keyboard-response","198","j","bafuni","true","",""
"2656.750000001979","","","","","2","html-slider-response","199","","","","3",""
"4167","mother","kahawa,babaye,mbuzi,jokofu","babaye","v","2","html-keyboard-response","200","j","mbuzi","false","",""
"4299.9200000013225","","","","","2","html-slider-response","201","","","","3",""
"7825","bed","kalipay,mapintas,haraka,starehe","mapintas","v","2","html-keyboard-response","202","n","starehe","false","",""
"2445.110000000568","","","","","2","html-slider-response","203","","","","3",""
"4218","key","miaka,goma,chombo,ahos","chombo","j","2","html-keyboard-response","204","f","miaka","false","",""
"2403.029999997583","","","","","2","html-slider-response","205","","","","3",""
"2718","page","wimbo,wakala,ishiri,skina","wimbo","f","2","html-keyboard-response","206","j","ishiri","false","",""
"2312.2149999979883","","","","","2","html-slider-response","207","","","","3",""
"3282","pants","pintal,haki,chuki,hari","haki","v","2","html-keyboard-response","208","v","haki","true","",""
"2514.340000001597","","","","","2","html-slider-response","209","","","","3",""
"2682","sun","basi,bendi,luha,uongo","basi","f","2","html-keyboard-response","210","j","luha","false","",""
"2305.3450000006706","","","","","2","html-slider-response","211","","","","3",""
"2770","finger","simu,sufuria,lima,moyo","moyo","n","2","html-keyboard-response","212","n","moyo","true","",""
"2558.444999998668","","","","","2","html-slider-response","213","","","","3",""
"3015","shoe","nyeusi,hatua,kama,uyoga","uyoga","n","2","html-keyboard-response","214","v","hatua","false","",""
"2558.665000000503","","","","","2","html-slider-response","215","","","","3",""
"3441","giraffe","daraja,jumatu,hangyo,mahitabo","mahitabo","n","2","html-keyboard-response","216","f","daraja","false","",""
"2590.6900000008754","","","","","2","html-slider-response","217","","","","3",""
"3975","dog","lubi,washia,kalamu,bahari","bahari","n","2","html-keyboard-response","218","n","bahari","true","",""
"2818.31500000041","","","","","2","html-slider-response","219","","","","3",""
"2943","box","adui,kuacha,rafiki,kitande","adui","f","2","html-keyboard-response","220","v","kuacha","false","",""
"2427.799999997602","","","","","2","html-slider-response","221","","","","3",""
"3511","scissors","tanuri,duga,mtawa,suga","tanuri","f","2","html-keyboard-response","222","n","suga","false","",""
"2605.439999999362","","","","","2","html-slider-response","223","","","","3",""
"3732","cat","neyemba,baki,akili,paghukom","paghukom","n","2","html-keyboard-response","224","f","neyemba","false","",""
"2692.399999999907","","","","","2","html-slider-response","225","","","","3",""
"2449","basket","kumba,kumbuka,utepe,hasira","kumba","f","2","html-keyboard-response","226","f","kumba","true","",""
"2536.544999998994","","","","","2","html-slider-response","227","","","","3",""
"2546","snake","jansa,pagtukod,karon,mvringo","pagtukod","v","2","html-keyboard-response","228","j","karon","false","",""
"2412.730000000098","","","","","2","html-slider-response","229","","","","3",""
"13263","gift","baba,nyange,baso,pagtawag","pagtawag","n","2","html-keyboard-response","230","v","nyange","false","",""
"2800.5049999991897","","","","","2","html-slider-response","231","","","","3",""
"3873","train","itik,dakika,mungu,sayari","sayari","n","2","html-keyboard-response","232","j","mungu","false","",""
"2592.014999998384","","","","","2","html-slider-response","233","","","","3",""
"2933","pudding","abug,aibu,mpishi,iring","aibu","v","2","html-keyboard-response","234","f","abug","false","",""
"2604.9699999967124","","","","","2","html-slider-response","235","","","","3",""
"3965","tomato","mvua,chupi,chupa,takatak","mvua","f","2","html-keyboard-response","236","n","takatak","false","",""
"2660.429999999935","","","","","2","html-slider-response","237","","","","3",""
"2511","stone","ulimwengu,mkasi,asili,wingi","wingi","n","2","html-keyboard-response","238","v","mkasi","false","",""
"2297.6999999991385","","","","","2","html-slider-response","239","","","","3",""
"3416","hammer","mekno,kitovu,napakyas,layag","napakyas","j","2","html-keyboard-response","240","f","mekno","false","",""
"2383.079999999609","","","","","2","html-slider-response","241","","","","3",""
"4524","knee","mvuke,duka,kubale,bili","duka","v","2","html-keyboard-response","242","j","kubale","false","",""
"2562.7149999999674","","","","","2","html-slider-response","243","","","","3",""
"2864","ceiling","kugita,kawaida,rayna,maua","maua","n","2","html-keyboard-response","244","j","rayna","false","",""
"2445.8449999984587","","","","","2","html-slider-response","245","","","","3",""
"3159","spoon","betri,pagsulod,nzuri,ngazi","pagsulod","v","2","html-keyboard-response","246","v","pagsulod","true","",""
"2460.979999999865","","","","","2","html-slider-response","247","","","","3",""
"3802","marker","mapafu,salita,maji,atay","maji","j","2","html-keyboard-response","248","v","salita","false","",""
"2410.4200000001583","","","","","2","html-slider-response","249","","","","3",""
"4566","candle","gabi,farasi,kupanda,geza","geza","n","2","html-keyboard-response","250","j","kupanda","false","",""
"2493.9749999976484","","","","","2","html-slider-response","251","","","","3",""
"2446","tissue","ugomvi,lamigas,kisiwa,katika","ugomvi","f","2","html-keyboard-response","252","j","kisiwa","false","",""
"4115.46499999892","","","","","2","html-slider-response","253","","","","3",""
"2822","bridge","daima,ngono,panya,sahani","sahani","n","2","html-keyboard-response","254","n","sahani","true","",""
"2504.6849999999395","","","","","2","html-slider-response","255","","","","3",""
"2279","berry","abogado,kofia,nogozi,kinywa","kofia","v","2","html-keyboard-response","256","f","abogado","false","",""
"2579.8900000009453","","","","","2","html-slider-response","257","","","","3",""
"2157","triangle","kihozi,bentaha,kasadpan,liog","kasadpan","j","2","html-keyboard-response","258","j","kasadpan","true","",""
"2356.534999998985","","","","","2","html-slider-response","259","","","","3",""
"2842","door","tena,soko,surali,nyota","surali","j","2","html-keyboard-response","260","v","soko","false","",""
"2227.4750000033528","","","","","2","html-slider-response","261","","","","3",""
"2950","fish","bala,baho,imani,buli","buli","n","2","html-keyboard-response","262","j","imani","false","",""
"2543.184999998659","","","","","2","html-slider-response","263","","","","3",""
"2506","curtain","lisud,mchanga,bulwawan,chubani","mchanga","v","2","html-keyboard-response","264","n","chubani","false","",""
"2556.7300000003306","","","","","2","html-slider-response","265","","","","3",""
"2731","flag","trekta,ndege,mkate,kawa","trekta","f","2","html-keyboard-response","266","v","ndege","false","",""
"2600.119999999064","","","","","2","html-slider-response","267","","","","3",""
"2313","boat","agalon,hamsi,pombe,kitanda","agalon","f","2","html-keyboard-response","268","v","hamsi","false","",""
"2450.679999998072","","","","","2","html-slider-response","269","","","","3",""
"2178","rose","singizi,mwanake,amani,paghalad","paghalad","n","2","html-keyboard-response","270","j","amani","false","",""
"2587.559999999823","","","","","2","html-slider-response","271","","","","3",""
"2160","lamp","daub,bilaska,mbolea,afya","afya","n","2","html-keyboard-response","272","j","mbolea","false","",""
"2446.429999999935","","","","","2","html-slider-response","273","","","","3",""
"2641","cigar","ndugu,kuta,adhabu,mlango","adhabu","j","2","html-keyboard-response","274","f","ndugu","false","",""
"2700.2299999985844","","","","","2","html-slider-response","275","","","","3",""
"6862","list","wingu,alizeti,kuzama,kaso","wingu","f","2","html-keyboard-response","276","n","kaso","false","",""
"2546.3549999985844","","","","","2","html-slider-response","277","","","","3",""
"3680","sheet","juuya,watu,bililhon,kamantis","bililhon","j","2","html-keyboard-response","278","n","kamantis","false","",""
"1753.7450000017416","","","","","2","html-slider-response","279","","","","2",""
"2193","picture","silya,chaki,kubwa,asin","kubwa","j","2","html-keyboard-response","280","v","chaki","false","",""
"1395.7450000015087","","","","","2","html-slider-response","281","","","","2",""
"2477","towel","tembo,pagpalit,funzi,pito","pagpalit","v","2","html-keyboard-response","282","f","tembo","false","",""
"1372.3849999987287","","","","","2","html-slider-response","283","","","","2",""
"2251","window","nanga,kweli,kujenga,umaga","kweli","v","2","html-keyboard-response","284","j","kujenga","false","",""
"2062.8299999990268","","","","","2","html-slider-response","285","","","","2",""
"11208","box","adui,kuacha,rafiki,kitande","adui","f","3","html-keyboard-response","293","j","rafiki","false","","4"
"2680.5149999998976","","","","","3","html-slider-response","294","","","","2",""
"3568","","","","","3","html-keyboard-response","295","","","","",""
"7212","pants","pintal,chuki,haki,hari","haki","j","3","html-keyboard-response","296","v","chuki","false","","4"
"2797.510000000242","","","","","3","html-slider-response","297","","","","2",""
"3610","","","","","3","html-keyboard-response","298","","","","",""
"6026","cup","dagat,matumai,shimoni,jeraha","matumai","v","3","html-keyboard-response","299","v","matumai","true","","4"
"2326.704999999609","","","","","3","html-slider-response","300","","","","2",""
"2097","","","","","3","html-keyboard-response","301","","","","",""
"8070","triangle","kihozi,kasadpan,bentaha,liog","kasadpan","v","3","html-keyboard-response","302","f","kihozi","false","","4"
"1777.880000001518","","","","","3","html-slider-response","303","","","","2",""
"1526","","","","","3","html-keyboard-response","304","","","","",""
"3652","curtain","lisud,mchanga,bulwawan,chubani","mchanga","v","3","html-keyboard-response","305","f","lisud","false","","4"
"1528.7400000013877","","","","","3","html-slider-response","306","","","","2",""
"1395","","","","","3","html-keyboard-response","307","","","","",""
"19174","clock","mbwa,kartasi,abang,osha","mbwa","f","3","html-keyboard-response","308","j","abang","false","","4"
"1941.0449999994598","","","","","3","html-slider-response","309","","","","2",""
"1523","","","","","3","html-keyboard-response","310","","","","",""
"2439","mirror","rangi,kanding,furaha,sulagma","sulagma","n","3","html-keyboard-response","311","v","kanding","false","","4"
"1650.4050000002608","","","","","3","html-slider-response","312","","","","2",""
"1267","","","","","3","html-keyboard-response","313","","","","",""
"2626","coffin","kioo,barua,tubag,hulma","kioo","f","3","html-keyboard-response","314","f","kioo","true","","1"
"2850.8199999998324","","","","","3","html-slider-response","315","","","","5",""
"1565","","","","","3","html-keyboard-response","316","","","","",""
"3805","magazine","gundi,mchawi,bahandi,kiti","kiti","n","3","html-keyboard-response","317","n","kiti","true","","4"
"3012.8599999989383","","","","","3","html-slider-response","318","","","","3",""
"1850","","","","","3","html-keyboard-response","319","","","","",""
"2306","column","pundok,dila,pala,ufagio","ufagio","n","3","html-keyboard-response","320","n","ufagio","true","","1"
"2046.2600000028033","","","","","3","html-slider-response","321","","","","5",""
"1349","","","","","3","html-keyboard-response","322","","","","",""
"5389","number","mundamo,shule,kengele,choori","mundamo","f","3","html-keyboard-response","323","j","kengele","false","","4"
"2835.7500000020955","","","","","3","html-slider-response","324","","","","3",""
"1390","","","","","3","html-keyboard-response","325","","","","",""
"5796","rose","singizi,paghalad,mwanake,amani","paghalad","v","3","html-keyboard-response","326","j","mwanake","false","","4"
"1999.1099999970756","","","","","3","html-slider-response","327","","","","2",""
"1369","","","","","3","html-keyboard-response","328","","","","",""
"6147","eel","ishara,kunywa,kabuang,msumari","msumari","n","3","html-keyboard-response","329","n","msumari","true","","4"
"2628.4950000008103","","","","","3","html-slider-response","330","","","","3",""
"1738","","","","","3","html-keyboard-response","331","","","","",""
"9532","gift","baba,nyange,pagtawag,baso","pagtawag","j","3","html-keyboard-response","332","j","pagtawag","true","","4"
"3699.2099999987986","","","","","3","html-slider-response","333","","","","3",""
"1365","","","","","3","html-keyboard-response","334","","","","",""
"2950","apple","kisu,ukame,estante,edad","kisu","f","3","html-keyboard-response","335","f","kisu","true","","1"
"3359.250000001164","","","","","3","html-slider-response","336","","","","5",""
"1785","","","","","3","html-keyboard-response","337","","","","",""
"1969","wheel","bafuni,punda,tawo,baadaye","bafuni","f","3","html-keyboard-response","338","f","bafuni","true","","1"
"2113.125","","","","","3","html-slider-response","339","","","","5",""
"1671","","","","","3","html-keyboard-response","340","","","","",""
"4929","knee","duka,mvuke,kubale,bili","duka","f","3","html-keyboard-response","341","j","kubale","false","","4"
"3199.004999998724","","","","","3","html-slider-response","342","","","","3",""
"1263","","","","","3","html-keyboard-response","343","","","","",""
"2089","basket","kumbuka,utepe,hasira,kumba","kumba","n","3","html-keyboard-response","344","n","kumba","true","","1"
"2284.2049999998417","","","","","3","html-slider-response","345","","","","5",""
"1371","","","","","3","html-keyboard-response","346","","","","",""
"4381","park","bunifu,tambok,pwani,ihalas","bunifu","f","3","html-keyboard-response","347","j","pwani","false","","4"
"1965.1400000003632","","","","","3","html-slider-response","348","","","","2",""
"1321","","","","","3","html-keyboard-response","349","","","","",""
"3706","finger","simu,moyo,sufuria,lima","moyo","v","3","html-keyboard-response","350","n","lima","false","","4"
"1928.0949999992736","","","","","3","html-slider-response","351","","","","2",""
"1376","","","","","3","html-keyboard-response","352","","","","",""
"3378","boat","hamsi,pombe,agalon,kitanda","agalon","j","3","html-keyboard-response","353","n","kitanda","false","","4"
"1854.8650000011548","","","","","3","html-slider-response","354","","","","2",""
"1403","","","","","3","html-keyboard-response","355","","","","",""
"5524","hill","kushoto,matumbo,kukimba,sweta","matumbo","v","3","html-keyboard-response","356","v","matumbo","true","","4"
"1637.8550000009127","","","","","3","html-slider-response","357","","","","2",""
"1464","","","","","3","html-keyboard-response","358","","","","",""
"3729","train","itik,dakika,sayari,mungu","sayari","j","3","html-keyboard-response","359","j","sayari","true","","4"
"1830.355000001844","","","","","3","html-slider-response","360","","","","2",""
"1411","","","","","3","html-keyboard-response","361","","","","",""
"3961","wolf","kaburi,ndizi,mchuzi,lugha","lugha","n","3","html-keyboard-response","362","v","ndizi","false","","4"
"1671.4300000020303","","","","","3","html-slider-response","363","","","","2",""
"1234","","","","","3","html-keyboard-response","364","","","","",""
"4740","snake","pagtukod,jansa,karon,mvringo","pagtukod","f","3","html-keyboard-response","365","j","karon","false","","4"
"1572.3900000012945","","","","","3","html-slider-response","366","","","","2",""
"1334","","","","","3","html-keyboard-response","367","","","","",""
"3725","tooth","kijiko,uadui,pahiyum,kabalaka","kabalaka","n","3","html-keyboard-response","368","n","kabalaka","true","","4"
"1829.9299999999348","","","","","3","html-slider-response","369","","","","2",""
"1366","","","","","3","html-keyboard-response","370","","","","",""
"4828","notebook","msitu,kila,kemia,mdudu","kemia","j","3","html-keyboard-response","371","v","kila","false","","4"
"1582.8000000000466","","","","","3","html-slider-response","372","","","","2",""
"1543","","","","","3","html-keyboard-response","373","","","","",""
"2708","flag","ndege,mkate,trekta,kawa","trekta","j","3","html-keyboard-response","374","n","kawa","false","","4"
"1748.8700000031386","","","","","3","html-slider-response","375","","","","2",""
"1293","","","","","3","html-keyboard-response","376","","","","",""
"4927","squirrel","mahugaw,ukweli,hofu,kichwa","hofu","j","3","html-keyboard-response","377","f","mahugaw","false","","4"
"1953.9199999999255","","","","","3","html-slider-response","378","","","","4",""
"1439","","","","","3","html-keyboard-response","379","","","","",""
"4383","door","tena,soko,nyota,surali","surali","n","3","html-keyboard-response","380","f","tena","false","","4"
"1958.129999998957","","","","","3","html-slider-response","381","","","","2",""
"1216","","","","","3","html-keyboard-response","382","","","","",""
"3601","salmon","mzungu,seri,sensilyo,baharia","sensilyo","j","3","html-keyboard-response","383","f","mzungu","false","","4"
"1791.0999999984633","","","","","3","html-slider-response","384","","","","4",""
"1497","","","","","3","html-keyboard-response","385","","","","",""
"3286","shoulder","kelele,ndaniya,mkuu,guruwe","mkuu","j","3","html-keyboard-response","386","j","mkuu","true","","4"
"1998.1399999996647","","","","","3","html-slider-response","387","","","","2",""
"1460","","","","","3","html-keyboard-response","388","","","","",""
"2777","lamp","afya,daub,bilaska,mbolea","afya","f","3","html-keyboard-response","389","n","mbolea","false","","4"
"1603.0649999992456","","","","","3","html-slider-response","390","","","","2",""
"3720","","","","","3","html-keyboard-response","391","","","","",""
"1968","shelf","bungtod,pamahaw,kadaot,awit","pamahaw","v","3","html-keyboard-response","392","v","pamahaw","true","","1"
"1991.7150000000838","","","","","3","html-slider-response","393","","","","5",""
"1454","","","","","3","html-keyboard-response","394","","","","",""
"5029","human","bado,kikapu,tinapay,punguza","tinapay","j","3","html-keyboard-response","395","n","punguza","false","","4"
"1981.110000000568","","","","","3","html-slider-response","396","","","","2",""
"1375","","","","","3","html-keyboard-response","397","","","","",""
"2339","towel","tembo,pagpalit,funzi,pito","pagpalit","v","3","html-keyboard-response","398","j","funzi","false","","4"
"1667.7249999993946","","","","","3","html-slider-response","399","","","","2",""
"1755","","","","","3","html-keyboard-response","400","","","","",""
"5206","cat","neyemba,baki,akili,paghukom","paghukom","n","3","html-keyboard-response","401","n","paghukom","true","","4"
"1490.4549999991432","","","","","3","html-slider-response","402","","","","2",""
"1364","","","","","3","html-keyboard-response","403","","","","",""
"4201","spider","bunyag,mkboa,atop,kamwe","kamwe","n","3","html-keyboard-response","404","f","bunyag","false","","4"
"2296.124999997206","","","","","3","html-slider-response","405","","","","2",""
"1440","","","","","3","html-keyboard-response","406","","","","",""
"3018","window","nanga,kweli,kujenga,umaga","kweli","v","3","html-keyboard-response","407","n","umaga","false","","4"
"1955.0350000027101","","","","","3","html-slider-response","408","","","","2",""
"1384","","","","","3","html-keyboard-response","409","","","","",""
"5076","woman","bandari,pagtabon,bituin,kovuli","pagtabon","v","3","html-keyboard-response","410","v","pagtabon","true","","1"
"3843.1200000015087","","","","","3","html-slider-response","411","","","","5",""
"2553","","","","","3","html-keyboard-response","412","","","","",""
"5318","giraffe","daraja,mahitabo,jumatu,hangyo","mahitabo","v","3","html-keyboard-response","413","f","daraja","false","","4"
"2073.8649999985937","","","","","3","html-slider-response","414","","","","2",""
"1664","","","","","3","html-keyboard-response","415","","","","",""
"2247","elephant","petye,pagduol,suka,kito","kito","n","3","html-keyboard-response","416","v","pagduol","false","","4"
"1860.5699999970384","","","","","3","html-slider-response","417","","","","2",""
"5401","","","","","3","html-keyboard-response","418","","","","",""
"2610","cave","ganti,kesho,maisha,nyundo","kesho","v","3","html-keyboard-response","419","n","nyundo","false","","4"
"1884.8599999982398","","","","","3","html-slider-response","420","","","","2",""
"1476","","","","","3","html-keyboard-response","421","","","","",""
"10631","bread","dari,kaili,dizeli,bugas","dari","f","3","html-keyboard-response","422","f","dari","true","","4"
"1751.8649999983609","","","","","3","html-slider-response","423","","","","2",""
"1457","","","","","3","html-keyboard-response","424","","","","",""
"2847","stone","ulimwengu,wingi,mkasi,asili","wingi","v","3","html-keyboard-response","425","n","asili","false","","4"
"2178.0550000001676","","","","","3","html-slider-response","426","","","","2",""
"1436","","","","","3","html-keyboard-response","427","","","","",""
"1578","donkey","bloke,lalake,elfu,rombus","elfu","j","3","html-keyboard-response","428","f","bloke","false","","4"
"1991.2049999984447","","","","","3","html-slider-response","429","","","","2",""
"2227","","","","","3","html-keyboard-response","430","","","","",""
"1900","bridge","daima,ngono,panya,sahani","sahani","n","3","html-keyboard-response","431","f","daima","false","","4"
"1822.6250000004657","","","","","3","html-slider-response","432","","","","2",""
"1421","","","","","3","html-keyboard-response","433","","","","",""
"1827","bonfire","mwezi,goti,mfuko,kusanya","goti","v","3","html-keyboard-response","434","v","goti","true","","4"
"6804.735000001499","","","","","3","html-slider-response","435","","","","2",""
"2535","","","","","3","html-keyboard-response","436","","","","",""
"8292","book","kuhesa,picha,mali,mara","mali","j","3","html-keyboard-response","437","v","picha","false","","4"
"1968.4100000013132","","","","","3","html-slider-response","438","","","","2",""
"1786","","","","","3","html-keyboard-response","439","","","","",""
"2383","fish","bala,baho,imani,buli","buli","n","3","html-keyboard-response","440","j","imani","false","","4"
"1832.985000000801","","","","","3","html-slider-response","441","","","","2",""
"1642","","","","","3","html-keyboard-response","442","","","","",""
"2309","spoon","betri,nzuri,pagsulod,ngazi","pagsulod","j","3","html-keyboard-response","443","n","ngazi","false","","4"
"1693.3399999979883","","","","","3","html-slider-response","444","","","","2",""
"1257","","","","","3","html-keyboard-response","445","","","","",""
"3685","scissors","duga,mtawa,suga,tanuri","tanuri","n","3","html-keyboard-response","446","v","mtawa","false","","4"
"1769.510000001872","","","","","3","html-slider-response","447","","","","4",""
"1313","","","","","3","html-keyboard-response","448","","","","",""
"4899","page","wakala,ishiri,wimbo,skina","wimbo","j","3","html-keyboard-response","449","f","wakala","false","","4"
"2177.7800000018906","","","","","3","html-slider-response","450","","","","4",""
"1380","","","","","3","html-keyboard-response","451","","","","",""
"2737","nose","gubat,kopa,kidole,sehemu","sehemu","n","3","html-keyboard-response","452","n","sehemu","true","","1"
"2498.090000001015","","","","","3","html-slider-response","453","","","","5",""
"1646","","","","","3","html-keyboard-response","454","","","","",""
"7464","ceiling","kugita,kawaida,maua,rayna","maua","j","3","html-keyboard-response","455","f","kugita","false","","4"
"2668.4949999980163","","","","","3","html-slider-response","456","","","","2",""
"2492","","","","","3","html-keyboard-response","457","","","","",""
"5960","bucket","kiatu,baga,ijayo,init","kiatu","f","3","html-keyboard-response","458","f","kiatu","true","","4"
"1896.5149999968708","","","","","3","html-slider-response","459","","","","2",""
"1749","","","","","3","html-keyboard-response","460","","","","",""
"2617","berry","kofia,abogado,nogozi,kinywa","kofia","f","3","html-keyboard-response","461","f","kofia","true","","1"
"2111.4799999995157","","","","","3","html-slider-response","462","","","","5",""
"1580","","","","","3","html-keyboard-response","463","","","","",""
"2284","mother","kahawa,babaye,mbuzi,jokofu","babaye","v","3","html-keyboard-response","464","v","babaye","true","","1"
"1841.7750000008382","","","","","3","html-slider-response","465","","","","5",""
"1280","","","","","3","html-keyboard-response","466","","","","",""
"6491","mosquito","isda,taras,gutom,martilyo","martilyo","n","3","html-keyboard-response","467","n","martilyo","true","","4"
"1675.9149999998044","","","","","3","html-slider-response","468","","","","4",""
"1465","","","","","3","html-keyboard-response","469","","","","",""
"8721","perfume","bino,sungura,ndogo,katuyoan","katuyoan","n","3","html-keyboard-response","470","v","sungura","false","","4"
"1637.2999999984168","","","","","3","html-slider-response","471","","","","4",""
"1803","","","","","3","html-keyboard-response","472","","","","",""
"9842","sheet","juuya,watu,kamantis,bililhon","bililhon","n","3","html-keyboard-response","473","v","watu","false","","4"
"2586.0700000012293","","","","","3","html-slider-response","474","","","","2",""
"1788","","","","","3","html-keyboard-response","475","","","","",""
"2343","puppet","napulo,mazishi,lamok,godoro","mazishi","v","3","html-keyboard-response","476","v","mazishi","true","","1"
"2936.720000001602","","","","","3","html-slider-response","477","","","","5",""
"1741","","","","","3","html-keyboard-response","478","","","","",""
"5972","poster","nchi,madungog,fedha,kasuko","madungog","v","3","html-keyboard-response","479","n","kasuko","false","","4"
"3437.8250000008848","","","","","3","html-slider-response","480","","","","2",""
"1572","","","","","3","html-keyboard-response","481","","","","",""
"3193","music","baiski,mraba,mageho,tumbo","baiski","f","3","html-keyboard-response","482","n","tumbo","false","","4"
"1750.4899999985937","","","","","3","html-slider-response","483","","","","2",""
"1602","","","","","3","html-keyboard-response","484","","","","",""
"5438","key","miaka,chombo,goma,ahos","chombo","v","3","html-keyboard-response","485","j","goma","false","","4"
"1922.0000000020955","","","","","3","html-slider-response","486","","","","4",""
"1299","","","","","3","html-keyboard-response","487","","","","",""
"5156","sock","ndoora,mamba,kimysa,mtirka","mamba","v","3","html-keyboard-response","488","j","kimysa","false","","4"
"1637.950000000419","","","","","3","html-slider-response","489","","","","4",""
"1384","","","","","3","html-keyboard-response","490","","","","",""
"5017","marker","maji,mapafu,salita,atay","maji","f","3","html-keyboard-response","491","v","mapafu","false","","4"
"1464.6950000023935","","","","","3","html-slider-response","492","","","","4",""
"1431","","","","","3","html-keyboard-response","493","","","","",""
"4670","office","leso,hazini,yatima,kuna","leso","f","3","html-keyboard-response","494","f","leso","true","","4"
"2072.1349999986123","","","","","3","html-slider-response","495","","","","4",""
"1475","","","","","3","html-keyboard-response","496","","","","",""
"6666","shoe","nyeusi,hatua,uyoga,kama","uyoga","j","3","html-keyboard-response","497","v","hatua","false","","4"
"1627.1750000012107","","","","","3","html-slider-response","498","","","","2",""
"1544","","","","","3","html-keyboard-response","499","","","","",""
"4666","cop","mechezo,bustani,jikoni,bakus","mechezo","f","3","html-keyboard-response","500","j","jikoni","false","","4"
"2910.0249999973457","","","","","3","html-slider-response","501","","","","4",""
"1318","","","","","3","html-keyboard-response","502","","","","",""
"2911","bank","kudhibi,tualya,ofisi,silingan","silingan","n","3","html-keyboard-response","503","v","tualya","false","","4"
"1988.8549999997485","","","","","3","html-slider-response","504","","","","2",""
"1577","","","","","3","html-keyboard-response","505","","","","",""
"2142","letter","kifua,filimbi,chuma,uhuru","kifua","f","3","html-keyboard-response","506","f","kifua","true","","1"
"2781.9000000017695","","","","","3","html-slider-response","507","","","","5",""
"1624","","","","","3","html-keyboard-response","508","","","","",""
"2149","dog","lubi,washia,bahari,kalamu","bahari","j","3","html-keyboard-response","509","j","bahari","true","","1"
"2293.994999999879","","","","","3","html-slider-response","510","","","","5",""
"1689","","","","","3","html-keyboard-response","511","","","","",""
"3232","shop","nopya,samaki,kerida,ndezu","samaki","v","3","html-keyboard-response","512","j","kerida","false","","4"
"2499.285000001546","","","","","3","html-slider-response","513","","","","2",""
"1347","","","","","3","html-keyboard-response","514","","","","",""
"2422","flower","tamasha,bega,lobo,usiku","bega","v","3","html-keyboard-response","515","v","bega","true","","4"
"1795.3750000016298","","","","","3","html-slider-response","516","","","","2",""
"1370","","","","","3","html-keyboard-response","517","","","","",""
"2149","cigar","ndugu,kuta,mlango,adhabu","adhabu","n","3","html-keyboard-response","518","n","adhabu","true","","1"
"1820.6450000032783","","","","","3","html-slider-response","519","","","","5",""
"1277","","","","","3","html-keyboard-response","520","","","","",""
"2619","hammer","napakyas,mekno,kitovu,layag","napakyas","f","3","html-keyboard-response","521","j","kitovu","false","","4"
"2095.8299999984447","","","","","3","html-slider-response","522","","","","2",""
"2143","","","","","3","html-keyboard-response","523","","","","",""
"2155","fork","baboy,paghago,gorisi,mgonjwa","mgonjwa","n","3","html-keyboard-response","524","v","paghago","false","","4"
"1743.95999999973","","","","","3","html-slider-response","525","","","","2",""
"1436","","","","","3","html-keyboard-response","526","","","","",""
"2078","sun","bendi,basi,luha,uongo","basi","v","3","html-keyboard-response","527","v","basi","true","","1"
"2399.3899999985006","","","","","3","html-slider-response","528","","","","5",""
"1478","","","","","3","html-keyboard-response","529","","","","",""
"4133","ladder","mashua,mwanga,pangalan,kamba","pangalan","j","3","html-keyboard-response","530","n","kamba","false","","4"
"3987.935000000987","","","","","3","html-slider-response","531","","","","3",""
"1420","","","","","3","html-keyboard-response","532","","","","",""
"2130","banana","kasamok,kazi,hagdan,twai","kazi","v","3","html-keyboard-response","533","v","kazi","true","","1"
"2270.609999999637","","","","","3","html-slider-response","534","","","","5",""
"1295","","","","","3","html-keyboard-response","535","","","","",""
"5169","pudding","abug,aibu,mpishi,iring","aibu","v","3","html-keyboard-response","536","v","aibu","true","","4"
"1964.8000000016764","","","","","3","html-slider-response","537","","","","2",""
"1218","","","","","3","html-keyboard-response","538","","","","",""
"7967","body","nyundu,jibini,kununa,tindashan","tindashan","n","3","html-keyboard-response","539","j","kununa","false","","4"
"1615.1300000019837","","","","","3","html-slider-response","540","","","","2",""
"1431","","","","","3","html-keyboard-response","541","","","","",""
"3730","bed","kalipay,haraka,mapintas,starehe","mapintas","j","3","html-keyboard-response","542","v","haraka","false","","4"
"1933.9099999999162","","","","","3","html-slider-response","543","","","","2",""
"1517","","","","","3","html-keyboard-response","544","","","","",""
"2515","tissue","ugomvi,lamigas,kisiwa,katika","ugomvi","f","3","html-keyboard-response","545","j","kisiwa","false","","4"
"3895.055000000866","","","","","3","html-slider-response","546","","","","2",""
"1442","","","","","3","html-keyboard-response","547","","","","",""
"3258","candle","gabi,geza,farasi,kupanda","geza","v","3","html-keyboard-response","548","n","kupanda","false","","4"
"1957.7299999983516","","","","","3","html-slider-response","549","","","","2",""
"2280","","","","","3","html-keyboard-response","550","","","","",""
"2281","tomato","mvua,chupi,chupa,takatak","mvua","f","3","html-keyboard-response","551","f","mvua","true","","1"
"2861.625000001397","","","","","3","html-slider-response","552","","","","5",""
"1289","","","","","3","html-keyboard-response","553","","","","",""
"7629","list","wingu,alizeti,kuzama,kaso","wingu","f","3","html-keyboard-response","554","j","kuzama","false","","4"
"1544.074999997858","","","","","3","html-slider-response","555","","","","4",""
"1454","","","","","3","html-keyboard-response","556","","","","",""
"4801","olive","bata,siagi,welder,jiwe","jiwe","n","3","html-keyboard-response","557","v","siagi","false","","4"
"1868.9449999982025","","","","","3","html-slider-response","558","","","","2",""
"1539","","","","","3","html-keyboard-response","559","","","","",""
"2308","picture","kubwa,silya,chaki,asin","kubwa","f","3","html-keyboard-response","560","f","kubwa","true","","1"
"2325.6299999994226","","","","","3","html-slider-response","561","","","","5",""
"1760","","","","","3","html-keyboard-response","562","","","","",""
"7006","page","wakala,ishiri,skina,wimbo","wimbo","n","4","html-keyboard-response","888","f","wakala","false","",""
"2456.579999998212","","","","","4","html-slider-response","889","","","","2",""
"7049","sheet","juuya,bililhon,watu,kamantis","bililhon","v","4","html-keyboard-response","890","j","watu","false","",""
"1553.5299999974668","","","","","4","html-slider-response","891","","","","2",""
"4359","ladder","pangalan,mashua,mwanga,kamba","pangalan","f","4","html-keyboard-response","892","n","kamba","false","",""
"1434.085000000894","","","","","4","html-slider-response","893","","","","2",""
"8434","door","tena,soko,nyota,surali","surali","n","4","html-keyboard-response","894","f","tena","false","",""
"2884.1449999962933","","","","","4","html-slider-response","895","","","","3",""
"6197","spider","bunyag,mkboa,atop,kamwe","kamwe","n","4","html-keyboard-response","896","n","kamwe","true","",""
"1920.7050000042655","","","","","4","html-slider-response","897","","","","2",""
"6340","picture","silya,kubwa,chaki,asin","kubwa","v","4","html-keyboard-response","898","n","asin","false","",""
"1533.3699999973178","","","","","4","html-slider-response","899","","","","4",""
"4491","boat","hamsi,agalon,pombe,kitanda","agalon","v","4","html-keyboard-response","900","n","kitanda","false","",""
"2007.5749999959953","","","","","4","html-slider-response","901","","","","4",""
"5541","donkey","bloke,elfu,lalake,rombus","elfu","v","4","html-keyboard-response","902","j","lalake","false","",""
"2034.090000001248","","","","","4","html-slider-response","903","","","","2",""
"8624","book","kuhesa,mali,picha,mara","mali","v","4","html-keyboard-response","904","f","kuhesa","false","",""
"1685.1150000002235","","","","","4","html-slider-response","905","","","","2",""
"5865","cup","dagat,shimoni,matumai,jeraha","matumai","j","4","html-keyboard-response","906","j","matumai","true","",""
"1438.7050000005402","","","","","4","html-slider-response","907","","","","2",""
"2834","sun","bendi,luha,uongo,basi","basi","n","4","html-keyboard-response","908","n","basi","true","",""
"1377.800000002142","","","","","4","html-slider-response","909","","","","2",""
"5238","pudding","aibu,abug,mpishi,iring","aibu","f","4","html-keyboard-response","910","v","abug","false","",""
"1524.1500000045635","","","","","4","html-slider-response","911","","","","2",""
"4489","human","bado,kikapu,tinapay,punguza","tinapay","j","4","html-keyboard-response","912","n","punguza","false","",""
"1677.3650000030175","","","","","4","html-slider-response","913","","","","2",""
"8606","squirrel","mahugaw,ukweli,kichwa,hofu","hofu","n","4","html-keyboard-response","914","f","mahugaw","false","",""
"1732.5899999993853","","","","","4","html-slider-response","915","","","","4",""
"5899","park","tambok,bunifu,pwani,ihalas","bunifu","v","4","html-keyboard-response","916","v","bunifu","true","",""
"1852.1600000020117","","","","","4","html-slider-response","917","","","","2",""
"13640","poster","madungog,nchi,fedha,kasuko","madungog","f","4","html-keyboard-response","918","f","madungog","true","",""
"2842.279999997001","","","","","4","html-slider-response","919","","","","4",""
"4423","wolf","kaburi,ndizi,mchuzi,lugha","lugha","n","4","html-keyboard-response","920","n","lugha","true","",""
"1782.619999998249","","","","","4","html-slider-response","921","","","","4",""
"4323","cat","neyemba,baki,akili,paghukom","paghukom","n","4","html-keyboard-response","922","n","paghukom","true","",""
"1722.050000003539","","","","","4","html-slider-response","923","","","","5",""
"7666","fish","bala,buli,baho,imani","buli","v","4","html-keyboard-response","924","f","bala","false","",""
"1644.6549999965355","","","","","4","html-slider-response","925","","","","2",""
"6387","tooth","kabalaka,kijiko,uadui,pahiyum","kabalaka","f","4","html-keyboard-response","926","j","uadui","false","",""
"1621.0700000007637","","","","","4","html-slider-response","927","","","","2",""
"3377","cave","ganti,maisha,kesho,nyundo","kesho","j","4","html-keyboard-response","928","v","maisha","false","",""
"1400.5150000010617","","","","","4","html-slider-response","929","","","","2",""
"2368","lamp","daub,bilaska,mbolea,afya","afya","n","4","html-keyboard-response","930","n","afya","true","",""
"3279.804999998305","","","","","4","html-slider-response","931","","","","2",""
"8227","banana","kazi,kasamok,hagdan,twai","kazi","f","4","html-keyboard-response","932","f","kazi","true","",""
"1589.4499999997206","","","","","4","html-slider-response","933","","","","2",""
"2807","bonfire","mwezi,mfuko,goti,kusanya","goti","j","4","html-keyboard-response","934","n","kusanya","false","",""
"3317.9000000017695","","","","","4","html-slider-response","935","","","","2",""
"8176","cop","bustani,jikoni,bakus,mechezo","mechezo","n","4","html-keyboard-response","936","j","bakus","false","",""
"1782.619999998249","","","","","4","html-slider-response","937","","","","2",""
"9848","marker","mapafu,salita,atay,maji","maji","n","4","html-keyboard-response","938","n","maji","true","",""
"1720.9000000003725","","","","","4","html-slider-response","939","","","","2",""
"2465","window","nanga,kujenga,kweli,umaga","kweli","j","4","html-keyboard-response","940","j","kweli","true","",""
"4901.400000002701","","","","","4","html-slider-response","941","","","","2",""
"5444","body","nyundu,jibini,kununa,tindashan","tindashan","n","4","html-keyboard-response","942","n","tindashan","true","",""
"1638.7600000016391","","","","","4","html-slider-response","943","","","","4",""
"5195","apple","kisu,ukame,estante,edad","kisu","f","4","html-keyboard-response","944","f","kisu","true","",""
"1626.3099999995902","","","","","4","html-slider-response","945","","","","4",""
"3604","salmon","mzungu,seri,baharia,sensilyo","sensilyo","n","4","html-keyboard-response","946","n","sensilyo","true","",""
"1658.0849999957718","","","","","4","html-slider-response","947","","","","2",""
"5305","bed","kalipay,haraka,starehe,mapintas","mapintas","n","4","html-keyboard-response","948","j","starehe","false","",""
"1518.570000000298","","","","","4","html-slider-response","949","","","","2",""
"2759","berry","abogado,kofia,nogozi,kinywa","kofia","v","4","html-keyboard-response","950","v","kofia","true","",""
"1502.85499999905","","","","","4","html-slider-response","951","","","","2",""
"2740","mirror","sulagma,rangi,kanding,furaha","sulagma","f","4","html-keyboard-response","952","n","furaha","false","",""
"1503.095000000205","","","","","4","html-slider-response","953","","","","2",""
"2522","flag","ndege,mkate,kawa,trekta","trekta","n","4","html-keyboard-response","954","j","kawa","false","",""
"1606.390000000596","","","","","4","html-slider-response","955","","","","2",""
"2359","shoulder","kelele,mkuu,ndaniya,guruwe","mkuu","v","4","html-keyboard-response","956","v","mkuu","true","",""
"1378.2099999953061","","","","","4","html-slider-response","957","","","","2",""
"2376","tissue","lamigas,ugomvi,kisiwa,katika","ugomvi","v","4","html-keyboard-response","958","j","kisiwa","false","",""
"1475.2999999984168","","","","","4","html-slider-response","959","","","","2",""
"6141","notebook","msitu,kila,kemia,mdudu","kemia","j","4","html-keyboard-response","960","f","msitu","false","",""
"1496.4400000022724","","","","","4","html-slider-response","961","","","","4",""
"5367","snake","jansa,pagtukod,karon,mvringo","pagtukod","v","4","html-keyboard-response","962","v","pagtukod","true","",""
"2041.6250000051223","","","","","4","html-slider-response","963","","","","4",""
"2765","finger","simu,sufuria,moyo,lima","moyo","j","4","html-keyboard-response","964","j","moyo","true","",""
"1573.375","","","","","4","html-slider-response","965","","","","2",""
"9180","basket","kumbuka,utepe,hasira,kumba","kumba","n","4","html-keyboard-response","966","n","kumba","true","",""
"1448.4950000043027","","","","","4","html-slider-response","967","","","","2",""
"4185","curtain","lisud,bulwawan,chubani,mchanga","mchanga","n","4","html-keyboard-response","968","n","mchanga","true","",""
"1428.0450000003912","","","","","4","html-slider-response","969","","","","2",""
"3939","perfume","bino,katuyoan,sungura,ndogo","katuyoan","v","4","html-keyboard-response","970","v","katuyoan","true","",""
"1721.2849999996834","","","","","4","html-slider-response","971","","","","5",""
"3916","key","miaka,goma,ahos,chombo","chombo","n","4","html-keyboard-response","972","v","goma","false","",""
"1503.274999995716","","","","","4","html-slider-response","973","","","","2",""
"7038","olive","jiwe,bata,siagi,welder","jiwe","f","4","html-keyboard-response","974","f","jiwe","true","",""
"1692.0299999983981","","","","","4","html-slider-response","975","","","","4",""
"6433","rose","singizi,mwanake,paghalad,amani","paghalad","j","4","html-keyboard-response","976","v","mwanake","false","",""
"2242.6249999990687","","","","","4","html-slider-response","977","","","","3",""
"3380","bridge","sahani,daima,ngono,panya","sahani","f","4","html-keyboard-response","978","n","panya","false","",""
"1336.7150000045076","","","","","4","html-slider-response","979","","","","2",""
"3638","hill","kushoto,kukimba,matumbo,sweta","matumbo","j","4","html-keyboard-response","980","j","matumbo","true","",""
"1709.7750000027008","","","","","4","html-slider-response","981","","","","4",""
"5199","letter","filimbi,kifua,chuma,uhuru","kifua","v","4","html-keyboard-response","982","v","kifua","true","",""
"2499.8449999983422","","","","","4","html-slider-response","983","","","","3",""
"2541","sock","ndoora,kimysa,mtirka,mamba","mamba","n","4","html-keyboard-response","984","v","kimysa","false","",""
"2207.4599999976344","","","","","4","html-slider-response","985","","","","3",""
"5911","fork","mgonjwa,baboy,paghago,gorisi","mgonjwa","f","4","html-keyboard-response","986","f","mgonjwa","true","",""
"1965.6899999976158","","","","","4","html-slider-response","987","","","","2",""
"2852","box","kuacha,rafiki,adui,kitande","adui","j","4","html-keyboard-response","988","n","kitande","false","",""
"1927.5099999941885","","","","","4","html-slider-response","989","","","","2",""
"5765","gift","baba,pagtawag,nyange,baso","pagtawag","v","4","html-keyboard-response","990","v","pagtawag","true","",""
"1664.434999998659","","","","","4","html-slider-response","991","","","","4",""
"4265","bucket","kiatu,baga,ijayo,init","kiatu","f","4","html-keyboard-response","992","v","baga","false","",""
"1602.7749999994412","","","","","4","html-slider-response","993","","","","4",""
"2493","shop","samaki,nopya,kerida,ndezu","samaki","f","4","html-keyboard-response","994","j","kerida","false","",""
"1499.4100000038743","","","","","4","html-slider-response","995","","","","2",""
"5646","puppet","napulo,lamok,mazishi,godoro","mazishi","j","4","html-keyboard-response","996","n","godoro","false","",""
"1650.429999994114","","","","","4","html-slider-response","997","","","","2",""
"5109","nose","gubat,kopa,kidole,sehemu","sehemu","n","4","html-keyboard-response","998","j","kidole","false","",""
"1500.9999999962747","","","","","4","html-slider-response","999","","","","2",""
"3092","music","mraba,baiski,mageho,tumbo","baiski","v","4","html-keyboard-response","1000","n","tumbo","false","",""
"2880.4099999978207","","","","","4","html-slider-response","1001","","","","3",""
"3572","dog","bahari,lubi,washia,kalamu","bahari","f","4","html-keyboard-response","1002","f","bahari","true","",""
"1464.5600000005215","","","","","4","html-slider-response","1003","","","","2",""
"5676","eel","ishara,kunywa,msumari,kabuang","msumari","j","4","html-keyboard-response","1004","j","msumari","true","",""
"1559.554999999702","","","","","4","html-slider-response","1005","","","","4",""
"3355","number","mundamo,shule,kengele,choori","mundamo","f","4","html-keyboard-response","1006","j","kengele","false","",""
"1391.2449999987148","","","","","4","html-slider-response","1007","","","","2",""
"2713","tomato","chupi,chupa,takatak,mvua","mvua","n","4","html-keyboard-response","1008","v","chupa","false","",""
"1502.3549999967217","","","","","4","html-slider-response","1009","","","","2",""
"4908","coffin","barua,tubag,hulma,kioo","kioo","n","4","html-keyboard-response","1010","j","hulma","false","",""
"1457.4449999998324","","","","","4","html-slider-response","1011","","","","2",""
"3106","knee","mvuke,duka,kubale,bili","duka","v","4","html-keyboard-response","1012","j","kubale","false","",""
"3053.7450000047684","","","","","4","html-slider-response","1013","","","","2",""
"3090","woman","bandari,pagtabon,bituin,kovuli","pagtabon","v","4","html-keyboard-response","1014","n","kovuli","false","",""
"2191.3400000045076","","","","","4","html-slider-response","1015","","","","2",""
"3878","stone","wingi,ulimwengu,mkasi,asili","wingi","f","4","html-keyboard-response","1016","f","wingi","true","",""
"2100.439999994822","","","","","4","html-slider-response","1017","","","","2",""
"2586","bread","kaili,dari,dizeli,bugas","dari","v","4","html-keyboard-response","1018","j","dizeli","false","",""
"1648.8749999990687","","","","","4","html-slider-response","1019","","","","2",""
"3876","triangle","kihozi,bentaha,liog,kasadpan","kasadpan","n","4","html-keyboard-response","1020","n","kasadpan","true","",""
"1431.1850000009872","","","","","4","html-slider-response","1021","","","","2",""
"3816","scissors","duga,mtawa,suga,tanuri","tanuri","n","4","html-keyboard-response","1022","f","duga","false","",""
"1805.9749999959022","","","","","4","html-slider-response","1023","","","","2",""
"2638","giraffe","mahitabo,daraja,jumatu,hangyo","mahitabo","f","4","html-keyboard-response","1024","n","hangyo","false","",""
"1559.404999999795","","","","","4","html-slider-response","1025","","","","2",""
"2555","flower","bega,tamasha,lobo,usiku","bega","f","4","html-keyboard-response","1026","j","lobo","false","",""
"1563.129999994766","","","","","4","html-slider-response","1027","","","","2",""
"3447","candle","gabi,farasi,kupanda,geza","geza","n","4","html-keyboard-response","1028","n","geza","true","",""
"1457.0400000009686","","","","","4","html-slider-response","1029","","","","2",""
"4826","mother","babaye,kahawa,mbuzi,jokofu","babaye","f","4","html-keyboard-response","1030","v","kahawa","false","",""
"2040.4599999967031","","","","","4","html-slider-response","1031","","","","4",""
"4356","towel","pagpalit,tembo,funzi,pito","pagpalit","f","4","html-keyboard-response","1032","n","pito","false","",""
"1583.995000001043","","","","","4","html-slider-response","1033","","","","2",""
"7323","elephant","petye,pagduol,kito,suka","kito","j","4","html-keyboard-response","1034","j","kito","true","",""
"1767.7150000017136","","","","","4","html-slider-response","1035","","","","5",""
"3088","shelf","bungtod,kadaot,pamahaw,awit","pamahaw","j","4","html-keyboard-response","1036","v","kadaot","false","",""
"1554.375","","","","","4","html-slider-response","1037","","","","2",""
"6566","mosquito","isda,taras,martilyo,gutom","martilyo","j","4","html-keyboard-response","1038","j","martilyo","true","",""
"1691.5649999938905","","","","","4","html-slider-response","1039","","","","4",""
"2730","column","pundok,ufagio,dila,pala","ufagio","v","4","html-keyboard-response","1040","v","ufagio","true","",""
"1455.3599999998696","","","","","4","html-slider-response","1041","","","","2",""
"2474","pants","haki,pintal,chuki,hari","haki","f","4","html-keyboard-response","1042","n","hari","false","",""
"1649.4799999999814","","","","","4","html-slider-response","1043","","","","2",""
"2646","list","wingu,alizeti,kuzama,kaso","wingu","f","4","html-keyboard-response","1044","j","kuzama","false","",""
"1471.680000002496","","","","","4","html-slider-response","1045","","","","2",""
"2596","bank","kudhibi,silingan,tualya,ofisi","silingan","v","4","html-keyboard-response","1046","n","ofisi","false","",""
"1579.2399999992922","","","","","4","html-slider-response","1047","","","","2",""
"2109","clock","kartasi,mbwa,abang,osha","mbwa","v","4","html-keyboard-response","1048","j","abang","false","",""
"1638.4900000048801","","","","","4","html-slider-response","1049","","","","2",""
"2999","ceiling","kugita,kawaida,maua,rayna","maua","j","4","html-keyboard-response","1050","j","maua","true","",""
"1618.8699999987148","","","","","4","html-slider-response","1051","","","","2",""
"2425","train","itik,dakika,mungu,sayari","sayari","n","4","html-keyboard-response","1052","v","dakika","false","",""
"1454.87999999756","","","","","4","html-slider-response","1053","","","","2",""
"5730","magazine","kiti,gundi,mchawi,bahandi","kiti","f","4","html-keyboard-response","1054","j","mchawi","false","",""
"1824.7350000017323","","","","","4","html-slider-response","1055","","","","4",""
"4361","office","leso,hazini,yatima,kuna","leso","f","4","html-keyboard-response","1056","f","leso","true","",""
"1675.469999994617","","","","","4","html-slider-response","1057","","","","4",""
"4015","wheel","bafuni,punda,tawo,baadaye","bafuni","f","4","html-keyboard-response","1058","j","tawo","false","",""
"1634.8950000028126","","","","","4","html-slider-response","1059","","","","2",""
"3768","spoon","pagsulod,betri,nzuri,ngazi","pagsulod","f","4","html-keyboard-response","1060","f","pagsulod","true","",""
"1787.1749999974854","","","","","4","html-slider-response","1061","","","","2",""
"2660","hammer","mekno,kitovu,napakyas,layag","napakyas","j","4","html-keyboard-response","1062","v","kitovu","false","",""
"1861.27000000095","","","","","4","html-slider-response","1063","","","","2",""
"10987","cigar","ndugu,kuta,mlango,adhabu","adhabu","n","4","html-keyboard-response","1064","v","kuta","false","",""
"1817.4549999968149","","","","","4","html-slider-response","1065","","","","2",""
"4523","shoe","nyeusi,hatua,kama,uyoga","uyoga","n","4","html-keyboard-response","1066","j","kama","false","",""
"1712.605000000447","","","","","4","html-slider-response","1067","","","","2",""
"3660","list","alizeti,wingu,kuzama,kaso","wingu","v","5","html-keyboard-response","1069","n","kaso","false","",""
"2720.274999999441","","","","","5","html-slider-response","1070","","","","2",""
"3519","number","shule,kengele,mundamo,choori","mundamo","j","5","html-keyboard-response","1071","j","mundamo","true","",""
"1767.8749999976717","","","","","5","html-slider-response","1072","","","","2",""
"5987","apple","ukame,kisu,estante,edad","kisu","v","5","html-keyboard-response","1073","v","kisu","true","",""
"2554.1599999996834","","","","","5","html-slider-response","1074","","","","4",""
"4573","knee","duka,mvuke,kubale,bili","duka","f","5","html-keyboard-response","1075","v","mvuke","false","",""
"1521.2400000020862","","","","","5","html-slider-response","1076","","","","2",""
"2298","tooth","kijiko,uadui,kabalaka,pahiyum","kabalaka","j","5","html-keyboard-response","1077","n","pahiyum","false","",""
"1406.269999999553","","","","","5","html-slider-response","1078","","","","2",""
"2054","berry","kofia,abogado,nogozi,kinywa","kofia","f","5","html-keyboard-response","1079","j","nogozi","false","",""
"1306.035000001546","","","","","5","html-slider-response","1080","","","","2",""
"2631","bridge","daima,sahani,ngono,panya","sahani","v","5","html-keyboard-response","1081","v","sahani","true","",""
"1511.7699999972247","","","","","5","html-slider-response","1082","","","","2",""
"4839","perfume","bino,katuyoan,sungura,ndogo","katuyoan","v","5","html-keyboard-response","1083","v","katuyoan","true","",""
"1712.1550000007264","","","","","5","html-slider-response","1084","","","","5",""
"3296","ladder","pangalan,mashua,mwanga,kamba","pangalan","f","5","html-keyboard-response","1085","n","kamba","false","",""
"1549.2599999997765","","","","","5","html-slider-response","1086","","","","4",""
"3272","pants","haki,pintal,chuki,hari","haki","f","5","html-keyboard-response","1087","v","pintal","false","",""
"2252.2050000042655","","","","","5","html-slider-response","1088","","","","2",""
"2005","salmon","mzungu,seri,baharia,sensilyo","sensilyo","n","5","html-keyboard-response","1089","j","baharia","false","",""
"1348.4549999991432","","","","","5","html-slider-response","1090","","","","2",""
"3935","coffin","barua,tubag,kioo,hulma","kioo","j","5","html-keyboard-response","1091","f","barua","false","",""
"1621.964999998454","","","","","5","html-slider-response","1092","","","","2",""
"2364","park","tambok,pwani,bunifu,ihalas","bunifu","j","5","html-keyboard-response","1093","j","bunifu","true","",""
"1437.7399999937043","","","","","5","html-slider-response","1094","","","","2",""
"3061","giraffe","daraja,mahitabo,jumatu,hangyo","mahitabo","v","5","html-keyboard-response","1095","v","mahitabo","true","",""
"1374.5699999998324","","","","","5","html-slider-response","1096","","","","2",""
"3558","mirror","rangi,kanding,sulagma,furaha","sulagma","j","5","html-keyboard-response","1097","f","rangi","false","",""
"1418.0199999972247","","","","","5","html-slider-response","1098","","","","2",""
"2288","ceiling","kugita,maua,kawaida,rayna","maua","v","5","html-keyboard-response","1099","v","maua","true","",""
"1372.2100000013597","","","","","5","html-slider-response","1100","","","","2",""
"2512","marker","mapafu,salita,atay,maji","maji","n","5","html-keyboard-response","1101","f","mapafu","false","",""
"1546.480000004638","","","","","5","html-slider-response","1102","","","","2",""
"2358","sock","mamba,ndoora,kimysa,mtirka","mamba","f","5","html-keyboard-response","1103","v","ndoora","false","",""
"1588.3699999973178","","","","","5","html-slider-response","1104","","","","2",""
"2527","cop","mechezo,bustani,jikoni,bakus","mechezo","f","5","html-keyboard-response","1105","n","bakus","false","",""
"1552.6650000028312","","","","","5","html-slider-response","1106","","","","2",""
"1893","gift","baba,nyange,pagtawag,baso","pagtawag","j","5","html-keyboard-response","1107","j","pagtawag","true","",""
"3069.1599999992177","","","","","5","html-slider-response","1108","","","","4",""
"3746","notebook","msitu,kemia,kila,mdudu","kemia","v","5","html-keyboard-response","1109","j","kila","false","",""
"1470.3300000037998","","","","","5","html-slider-response","1110","","","","2",""
"2505","bank","kudhibi,tualya,ofisi,silingan","silingan","n","5","html-keyboard-response","1111","v","tualya","false","",""
"1366.3849999941885","","","","","5","html-slider-response","1112","","","","2",""
"3796","letter","filimbi,chuma,kifua,uhuru","kifua","j","5","html-keyboard-response","1113","j","kifua","true","",""
"1387.0450000031851","","","","","5","html-slider-response","1114","","","","2",""
"2406","candle","gabi,farasi,geza,kupanda","geza","j","5","html-keyboard-response","1115","v","farasi","false","",""
"1395.5500000012107","","","","","5","html-slider-response","1116","","","","2",""
"2668","bread","kaili,dizeli,bugas,dari","dari","n","5","html-keyboard-response","1117","v","dizeli","false","",""
"1766.4149999981746","","","","","5","html-slider-response","1118","","","","2",""
"7725","snake","pagtukod,jansa,karon,mvringo","pagtukod","f","5","html-keyboard-response","1119","f","pagtukod","true","",""
"3342.6550000002608","","","","","5","html-slider-response","1120","","","","4",""
"5029","rose","singizi,mwanake,amani,paghalad","paghalad","n","5","html-keyboard-response","1121","n","paghalad","true","",""
"2421.7850000062026","","","","","5","html-slider-response","1122","","","","4",""
"3841","hill","kushoto,kukimba,matumbo,sweta","matumbo","j","5","html-keyboard-response","1123","j","matumbo","true","",""
"1736.2250000005588","","","","","5","html-slider-response","1124","","","","4",""
"3107","train","sayari,itik,dakika,mungu","sayari","f","5","html-keyboard-response","1125","v","itik","false","",""
"1584.429999995511","","","","","5","html-slider-response","1126","","","","2",""
"4210","shop","nopya,kerida,ndezu,samaki","samaki","n","5","html-keyboard-response","1127","f","nopya","false","",""
"1651.9050000063144","","","","","5","html-slider-response","1128","","","","2",""
"4984","nose","gubat,sehemu,kopa,kidole","sehemu","v","5","html-keyboard-response","1129","f","gubat","false","",""
"1645.7349999984726","","","","","5","html-slider-response","1130","","","","2",""
"4762","boat","hamsi,pombe,agalon,kitanda","agalon","j","5","html-keyboard-response","1131","n","kitanda","false","",""
"2132.0649999980815","","","","","5","html-slider-response","1132","","","","4",""
"3845","body","tindashan,nyundu,jibini,kununa","tindashan","f","5","html-keyboard-response","1133","j","jibini","false","",""
"1611.3800000022165","","","","","5","html-slider-response","1134","","","","2",""
"3211","bed","mapintas,kalipay,haraka,starehe","mapintas","f","5","html-keyboard-response","1135","n","starehe","false","",""
"1649.4400000008754","","","","","5","html-slider-response","1136","","","","2",""
"5334","squirrel","hofu,mahugaw,ukweli,kichwa","hofu","f","5","html-keyboard-response","1137","v","mahugaw","false","",""
"1855.4799999981187","","","","","5","html-slider-response","1138","","","","4",""
"4542","window","nanga,kujenga,kweli,umaga","kweli","j","5","html-keyboard-response","1139","v","kujenga","false","",""
"1620.8400000035763","","","","","5","html-slider-response","1140","","","","4",""
"5203","bonfire","goti,mwezi,mfuko,kusanya","goti","f","5","html-keyboard-response","1141","f","goti","true","",""
"2255.6899999980815","","","","","5","html-slider-response","1142","","","","5",""
"6268","fish","bala,baho,buli,imani","buli","j","5","html-keyboard-response","1143","n","imani","false","",""
"1623.9199999985285","","","","","5","html-slider-response","1144","","","","2",""
"3970","cat","neyemba,baki,akili,paghukom","paghukom","n","5","html-keyboard-response","1145","n","paghukom","true","",""
"1683.6799999945797","","","","","5","html-slider-response","1146","","","","4",""
"5279","spider","bunyag,mkboa,kamwe,atop","kamwe","j","5","html-keyboard-response","1147","j","kamwe","true","",""
"2918.1950000054203","","","","","5","html-slider-response","1148","","","","2",""
"7575","eel","ishara,kunywa,kabuang,msumari","msumari","n","5","html-keyboard-response","1149","n","msumari","true","",""
"1803.5499999970198","","","","","5","html-slider-response","1150","","","","4",""
"4812","woman","bandari,pagtabon,bituin,kovuli","pagtabon","v","5","html-keyboard-response","1151","j","bituin","false","",""
"1599.4499999941327","","","","","5","html-slider-response","1152","","","","2",""
"11082","magazine","gundi,mchawi,kiti,bahandi","kiti","j","5","html-keyboard-response","1153","f","gundi","false","",""
"1579.2700000018813","","","","","5","html-slider-response","1154","","","","2",""
"2466","pudding","aibu,abug,mpishi,iring","aibu","f","5","html-keyboard-response","1155","v","abug","false","",""
"1433.4149999995716","","","","","5","html-slider-response","1156","","","","2",""
"2897","lamp","daub,bilaska,afya,mbolea","afya","j","5","html-keyboard-response","1157","n","mbolea","false","",""
"1420.7999999998137","","","","","5","html-slider-response","1158","","","","2",""
"2501","cave","ganti,maisha,kesho,nyundo","kesho","j","5","html-keyboard-response","1159","j","kesho","true","",""
"1623.72999999905","","","","","5","html-slider-response","1160","","","","2",""
"2258","shoulder","mkuu,kelele,ndaniya,guruwe","mkuu","f","5","html-keyboard-response","1161","v","kelele","false","",""
"1391.7799999983981","","","","","5","html-slider-response","1162","","","","2",""
"3526","stone","ulimwengu,mkasi,wingi,asili","wingi","j","5","html-keyboard-response","1163","n","asili","false","",""
"1508.4749999954365","","","","","5","html-slider-response","1164","","","","2",""
"2147","column","pundok,dila,pala,ufagio","ufagio","n","5","html-keyboard-response","1165","j","pala","false","",""
"1502.0700000021607","","","","","5","html-slider-response","1166","","","","2",""
"4538","page","wakala,ishiri,skina,wimbo","wimbo","n","5","html-keyboard-response","1167","v","ishiri","false","",""
"1829.5549999964423","","","","","5","html-slider-response","1168","","","","2",""
"4774","shoe","nyeusi,hatua,uyoga,kama","uyoga","j","5","html-keyboard-response","1169","n","kama","false","",""
"1957.5099999997765","","","","","5","html-slider-response","1170","","","","2",""
"2334","clock","kartasi,abang,mbwa,osha","mbwa","j","5","html-keyboard-response","1171","n","osha","false","",""
"1628.469999996014","","","","","5","html-slider-response","1172","","","","2",""
"2277","towel","tembo,funzi,pito,pagpalit","pagpalit","n","5","html-keyboard-response","1173","v","funzi","false","",""
"1489.9950000033714","","","","","5","html-slider-response","1174","","","","2",""
"2325","tomato","chupi,chupa,takatak,mvua","mvua","n","5","html-keyboard-response","1175","j","takatak","false","",""
"1417.379999998957","","","","","5","html-slider-response","1176","","","","2",""
"5249","bucket","kiatu,baga,ijayo,init","kiatu","f","5","html-keyboard-response","1177","f","kiatu","true","",""
"1591.2000000025146","","","","","5","html-slider-response","1178","","","","4",""
"3603","finger","simu,sufuria,moyo,lima","moyo","j","5","html-keyboard-response","1179","n","lima","false","",""
"1735.5849999948405","","","","","5","html-slider-response","1180","","","","2",""
"7655","mother","kahawa,mbuzi,babaye,jokofu","babaye","j","5","html-keyboard-response","1181","v","mbuzi","false","",""
"1832.640000000596","","","","","5","html-slider-response","1182","","","","2",""
"6087","human","tinapay,bado,kikapu,punguza","tinapay","f","5","html-keyboard-response","1183","n","punguza","false","",""
"1822.4499999997206","","","","","5","html-slider-response","1184","","","","4",""
"3555","sun","bendi,luha,basi,uongo","basi","j","5","html-keyboard-response","1185","f","bendi","false","",""
"1804.624999997206","","","","","5","html-slider-response","1186","","","","2",""
"3109","fork","baboy,paghago,gorisi,mgonjwa","mgonjwa","n","5","html-keyboard-response","1187","v","paghago","false","",""
"2657.500000001397","","","","","5","html-slider-response","1188","","","","2",""
"2978","donkey","elfu,bloke,lalake,rombus","elfu","f","5","html-keyboard-response","1189","n","rombus","false","",""
"1890.964999998454","","","","","5","html-slider-response","1190","","","","2",""
"7169","wolf","lugha,kaburi,ndizi,mchuzi","lugha","f","5","html-keyboard-response","1191","v","kaburi","false","",""
"1772.6449999972247","","","","","5","html-slider-response","1192","","","","2",""
"2680","cigar","ndugu,kuta,adhabu,mlango","adhabu","j","5","html-keyboard-response","1193","n","mlango","false","",""
"1632.5349999968894","","","","","5","html-slider-response","1194","","","","2",""
"4196","olive","bata,jiwe,siagi,welder","jiwe","v","5","html-keyboard-response","1195","v","jiwe","true","",""
"1639.3900000043213","","","","","5","html-slider-response","1196","","","","4",""
"7036","key","miaka,chombo,goma,ahos","chombo","v","5","html-keyboard-response","1197","f","miaka","false","",""
"1876.624999997206","","","","","5","html-slider-response","1198","","","","2",""
"3557","door","tena,soko,nyota,surali","surali","n","5","html-keyboard-response","1199","j","nyota","false","",""
"1845.5400000023656","","","","","5","html-slider-response","1200","","","","2",""
"9933","wheel","punda,tawo,bafuni,baadaye","bafuni","j","5","html-keyboard-response","1201","f","punda","false","",""
"1702.530000002589","","","","","5","html-slider-response","1202","","","","2",""
"2301","basket","kumbuka,utepe,hasira,kumba","kumba","n","5","html-keyboard-response","1203","v","utepe","false","",""
"1546.0000000023283","","","","","5","html-slider-response","1204","","","","2",""
"2293","elephant","kito,petye,pagduol,suka","kito","f","5","html-keyboard-response","1205","v","petye","false","",""
"1769.6799999973737","","","","","5","html-slider-response","1206","","","","2",""
"13810","office","hazini,yatima,leso,kuna","leso","j","5","html-keyboard-response","1207","j","leso","true","",""
"2193.3549999957904","","","","","5","html-slider-response","1208","","","","4",""
"2365","music","mraba,mageho,baiski,tumbo","baiski","j","5","html-keyboard-response","1209","n","tumbo","false","",""
"3096.1850000019185","","","","","5","html-slider-response","1210","","","","3",""
"2606","tissue","ugomvi,lamigas,kisiwa,katika","ugomvi","f","5","html-keyboard-response","1211","j","kisiwa","false","",""
"1305.7399999960326","","","","","5","html-slider-response","1212","","","","2",""
"4691","curtain","lisud,bulwawan,mchanga,chubani","mchanga","j","5","html-keyboard-response","1213","v","bulwawan","false","",""
"2599.1099999956787","","","","","5","html-slider-response","1214","","","","2",""
"3555","flag","ndege,mkate,kawa,trekta","trekta","n","5","html-keyboard-response","1215","n","trekta","true","",""
"1491.6400000001304","","","","","5","html-slider-response","1216","","","","2",""
"3020","dog","lubi,washia,bahari,kalamu","bahari","j","5","html-keyboard-response","1217","n","kalamu","false","",""
"1640.0100000025705","","","","","5","html-slider-response","1218","","","","2",""
"2628","cup","matumai,dagat,shimoni,jeraha","matumai","f","5","html-keyboard-response","1219","j","shimoni","false","",""
"1657.9950000015087","","","","","5","html-slider-response","1220","","","","2",""
"5977","sheet","juuya,bililhon,watu,kamantis","bililhon","v","5","html-keyboard-response","1221","f","juuya","false","",""
"1756.3850000007078","","","","","5","html-slider-response","1222","","","","2",""
"2609","spoon","betri,pagsulod,nzuri,ngazi","pagsulod","v","5","html-keyboard-response","1223","j","nzuri","false","",""
"1715.1349999983795","","","","","5","html-slider-response","1224","","","","2",""
"3078","flower","bega,tamasha,lobo,usiku","bega","f","5","html-keyboard-response","1225","f","bega","true","",""
"1645.519999998156","","","","","5","html-slider-response","1226","","","","2",""
"3689","picture","kubwa,silya,chaki,asin","kubwa","f","5","html-keyboard-response","1227","f","kubwa","true","",""
"1489.0249999952503","","","","","5","html-slider-response","1228","","","","2",""
"2348","puppet","napulo,mazishi,lamok,godoro","mazishi","v","5","html-keyboard-response","1229","j","lamok","false","",""
"1571.3949999990873","","","","","5","html-slider-response","1230","","","","2",""
"2166","banana","kazi,kasamok,hagdan,twai","kazi","f","5","html-keyboard-response","1231","n","twai","false","",""
"1575.7199999936856","","","","","5","html-slider-response","1232","","","","2",""
"3142","book","mali,kuhesa,picha,mara","mali","f","5","html-keyboard-response","1233","v","kuhesa","false","",""
"1619.6450000060722","","","","","5","html-slider-response","1234","","","","2",""
"3183","triangle","kasadpan,kihozi,bentaha,liog","kasadpan","f","5","html-keyboard-response","1235","f","kasadpan","true","",""
"1565.750000001397","","","","","5","html-slider-response","1236","","","","2",""
"2377","poster","madungog,nchi,fedha,kasuko","madungog","f","5","html-keyboard-response","1237","n","kasuko","false","",""
"1703.7600000039674","","","","","5","html-slider-response","1238","","","","2",""
"4814","box","kuacha,adui,rafiki,kitande","adui","v","5","html-keyboard-response","1239","j","rafiki","false","",""
"1615.1649999958463","","","","","5","html-slider-response","1240","","","","2",""
"8267","mosquito","martilyo,isda,taras,gutom","martilyo","f","5","html-keyboard-response","1241","n","gutom","false","",""
"1898.9049999946728","","","","","5","html-slider-response","1242","","","","4",""
"4304","shelf","bungtod,pamahaw,kadaot,awit","pamahaw","v","5","html-keyboard-response","1243","f","bungtod","false","",""
"1623.4849999961443","","","","","5","html-slider-response","1244","","","","2",""
"3905","scissors","duga,mtawa,suga,tanuri","tanuri","n","5","html-keyboard-response","1245","v","mtawa","false","",""
"1547.0950000016019","","","","","5","html-slider-response","1246","","","","2",""
"26592","hammer","mekno,kitovu,layag,napakyas","napakyas","n","5","html-keyboard-response","1247","v","kitovu","false","",""
"1859.450000003446","","","","","5","html-slider-response","1248","","","","2",""
