"rt","en_word","options","swa_word","correct_answer","phase","trial_type","trial_index","input_answer","input_word","accuracy","certainty","amt_choices"
"5120","bonfire","mwezi,mfuko,kusanya,goti","goti","n","2","html-keyboard-response","106","v","mfuko","false","",""
"4977","","","","","2","html-slider-response","107","","","","4",""
"5595","flower","tamasha,lobo,bega,usiku","bega","j","2","html-keyboard-response","108","j","bega","true","",""
"2444","","","","","2","html-slider-response","109","","","","4",""
"4569","column","pundok,ufagio,dila,pala","ufagio","v","2","html-keyboard-response","110","v","ufagio","true","",""
"1736","","","","","2","html-slider-response","111","","","","4",""
"3550","music","mraba,mageho,tumbo,baiski","baiski","n","2","html-keyboard-response","112","n","baiski","true","",""
"1811","","","","","2","html-slider-response","113","","","","5",""
"4944","spider","bunyag,mkboa,atop,kamwe","kamwe","n","2","html-keyboard-response","114","n","kamwe","true","",""
"2201","","","","","2","html-slider-response","115","","","","4",""
"5988","fork","mgonjwa,baboy,paghago,gorisi","mgonjwa","f","2","html-keyboard-response","116","n","gorisi","false","",""
"1973","","","","","2","html-slider-response","117","","","","2",""
"2972","mosquito","martilyo,isda,taras,gutom","martilyo","f","2","html-keyboard-response","118","f","martilyo","true","",""
"1870","","","","","2","html-slider-response","119","","","","5",""
"12787","banana","kasamok,hagdan,twai,kazi","kazi","n","2","html-keyboard-response","120","n","kazi","true","",""
"1576","","","","","2","html-slider-response","121","","","","2",""
"3754","cup","dagat,matumai,shimoni,jeraha","matumai","v","2","html-keyboard-response","122","v","matumai","true","",""
"4813","","","","","2","html-slider-response","123","","","","3",""
"3772","shop","nopya,samaki,kerida,ndezu","samaki","v","2","html-keyboard-response","124","v","samaki","true","",""
"1593","","","","","2","html-slider-response","125","","","","2",""
"2997","elephant","petye,pagduol,suka,kito","kito","n","2","html-keyboard-response","126","n","kito","true","",""
"1991","","","","","2","html-slider-response","127","","","","5",""
"3308","bucket","baga,ijayo,init,kiatu","kiatu","n","2","html-keyboard-response","128","v","ijayo","false","",""
"2926","","","","","2","html-slider-response","129","","","","1",""
"3280","book","mali,kuhesa,picha,mara","mali","f","2","html-keyboard-response","130","f","mali","true","",""
"1724","","","","","2","html-slider-response","131","","","","5",""
"5562","mirror","rangi,kanding,sulagma,furaha","sulagma","j","2","html-keyboard-response","132","j","sulagma","true","",""
"2121","","","","","2","html-slider-response","133","","","","1",""
"3173","office","hazini,yatima,leso,kuna","leso","j","2","html-keyboard-response","134","f","hazini","false","",""
"1722","","","","","2","html-slider-response","135","","","","1",""
"3028","body","nyundu,jibini,kununa,tindashan","tindashan","n","2","html-keyboard-response","136","n","tindashan","true","",""
"1564","","","","","2","html-slider-response","137","","","","4",""
"4202","perfume","bino,sungura,katuyoan,ndogo","katuyoan","j","2","html-keyboard-response","138","v","sungura","false","",""
"2348","","","","","2","html-slider-response","139","","","","3",""
"4162","olive","bata,siagi,welder,jiwe","jiwe","n","2","html-keyboard-response","140","n","jiwe","true","",""
"1700","","","","","2","html-slider-response","141","","","","5",""
"3883","magazine","gundi,mchawi,bahandi,kiti","kiti","n","2","html-keyboard-response","142","v","mchawi","false","",""
"1695","","","","","2","html-slider-response","143","","","","2",""
"4196","bread","dari,kaili,dizeli,bugas","dari","f","2","html-keyboard-response","144","f","dari","true","",""
"2100","","","","","2","html-slider-response","145","","","","4",""
"4353","cave","ganti,maisha,nyundo,kesho","kesho","n","2","html-keyboard-response","146","n","kesho","true","",""
"1950","","","","","2","html-slider-response","147","","","","2",""
"3790","ladder","mashua,pangalan,mwanga,kamba","pangalan","v","2","html-keyboard-response","148","v","pangalan","true","",""
"1487","","","","","2","html-slider-response","149","","","","4",""
"4141","human","bado,tinapay,kikapu,punguza","tinapay","v","2","html-keyboard-response","150","v","tinapay","true","",""
"1757","","","","","2","html-slider-response","151","","","","4",""
"4438","clock","mbwa,kartasi,abang,osha","mbwa","f","2","html-keyboard-response","152","f","mbwa","true","",""
"2314","","","","","2","html-slider-response","153","","","","5",""
"4311","shelf","pamahaw,bungtod,kadaot,awit","pamahaw","f","2","html-keyboard-response","154","f","pamahaw","true","",""
"2108","","","","","2","html-slider-response","155","","","","2",""
"3740","salmon","mzungu,seri,sensilyo,baharia","sensilyo","j","2","html-keyboard-response","156","j","sensilyo","true","",""
"2772","","","","","2","html-slider-response","157","","","","5",""
"2937","coffin","barua,tubag,kioo,hulma","kioo","j","2","html-keyboard-response","158","j","kioo","true","",""
"1637","","","","","2","html-slider-response","159","","","","5",""
"7727","notebook","msitu,kila,kemia,mdudu","kemia","j","2","html-keyboard-response","160","v","kila","false","",""
"1826","","","","","2","html-slider-response","161","","","","1",""
"4018","shoulder","kelele,ndaniya,mkuu,guruwe","mkuu","j","2","html-keyboard-response","162","j","mkuu","true","",""
"1967","","","","","2","html-slider-response","163","","","","5",""
"7454","park","tambok,pwani,ihalas,bunifu","bunifu","n","2","html-keyboard-response","164","n","bunifu","true","",""
"1717","","","","","2","html-slider-response","165","","","","1",""
"3139","number","mundamo,shule,kengele,choori","mundamo","f","2","html-keyboard-response","166","f","mundamo","true","",""
"1724","","","","","2","html-slider-response","167","","","","5",""
"4047","apple","ukame,kisu,estante,edad","kisu","v","2","html-keyboard-response","168","v","kisu","true","",""
"2038","","","","","2","html-slider-response","169","","","","2",""
"8124","letter","filimbi,chuma,kifua,uhuru","kifua","j","2","html-keyboard-response","170","f","filimbi","false","",""
"1980","","","","","2","html-slider-response","171","","","","3",""
"6947","eel","ishara,msumari,kunywa,kabuang","msumari","v","2","html-keyboard-response","172","f","ishara","false","",""
"2110","","","","","2","html-slider-response","173","","","","1",""
"3891","cop","bustani,mechezo,jikoni,bakus","mechezo","v","2","html-keyboard-response","174","f","bustani","false","",""
"1354","","","","","2","html-slider-response","175","","","","2",""
"3615","wolf","kaburi,lugha,ndizi,mchuzi","lugha","v","2","html-keyboard-response","176","v","lugha","true","",""
"1442","","","","","2","html-slider-response","177","","","","5",""
"5560","squirrel","mahugaw,ukweli,kichwa,hofu","hofu","n","2","html-keyboard-response","178","j","kichwa","false","",""
"1874","","","","","2","html-slider-response","179","","","","1",""
"3482","nose","gubat,kopa,kidole,sehemu","sehemu","n","2","html-keyboard-response","180","n","sehemu","true","",""
"1763","","","","","2","html-slider-response","181","","","","1",""
"2953","sock","mamba,ndoora,kimysa,mtirka","mamba","f","2","html-keyboard-response","182","f","mamba","true","",""
"2402","","","","","2","html-slider-response","183","","","","5",""
"4262","bank","kudhibi,silingan,tualya,ofisi","silingan","v","2","html-keyboard-response","184","v","silingan","true","",""
"1738","","","","","2","html-slider-response","185","","","","2",""
"3502","donkey","elfu,bloke,lalake,rombus","elfu","f","2","html-keyboard-response","186","f","elfu","true","",""
"1749","","","","","2","html-slider-response","187","","","","1",""
"5585","poster","nchi,madungog,fedha,kasuko","madungog","v","2","html-keyboard-response","188","v","madungog","true","",""
"1790","","","","","2","html-slider-response","189","","","","1",""
"4178","puppet","napulo,lamok,mazishi,godoro","mazishi","j","2","html-keyboard-response","190","n","godoro","false","",""
"1643","","","","","2","html-slider-response","191","","","","1",""
"6846","hill","matumbo,kushoto,kukimba,sweta","matumbo","f","2","html-keyboard-response","192","n","sweta","false","",""
"1713","","","","","2","html-slider-response","193","","","","1",""
"3972","tooth","kijiko,uadui,pahiyum,kabalaka","kabalaka","n","2","html-keyboard-response","194","n","kabalaka","true","",""
"1474","","","","","2","html-slider-response","195","","","","2",""
"4969","woman","bandari,bituin,kovuli,pagtabon","pagtabon","n","2","html-keyboard-response","196","n","pagtabon","true","",""
"1792","","","","","2","html-slider-response","197","","","","4",""
"4257","wheel","punda,tawo,bafuni,baadaye","bafuni","j","2","html-keyboard-response","198","v","tawo","false","",""
"1881","","","","","2","html-slider-response","199","","","","1",""
"4765","mother","kahawa,mbuzi,jokofu,babaye","babaye","n","2","html-keyboard-response","200","n","babaye","true","",""
"1934","","","","","2","html-slider-response","201","","","","1",""
"3845","bed","kalipay,haraka,mapintas,starehe","mapintas","j","2","html-keyboard-response","202","j","mapintas","true","",""
"1569","","","","","2","html-slider-response","203","","","","2",""
"4457","key","miaka,goma,ahos,chombo","chombo","n","2","html-keyboard-response","204","v","goma","false","",""
"1425","","","","","2","html-slider-response","205","","","","1",""
"3383","page","wimbo,wakala,ishiri,skina","wimbo","f","2","html-keyboard-response","206","f","wimbo","true","",""
"2204","","","","","2","html-slider-response","207","","","","1",""
"4088","pants","haki,pintal,chuki,hari","haki","f","2","html-keyboard-response","208","j","chuki","false","",""
"1972","","","","","2","html-slider-response","209","","","","1",""
"5501","sun","bendi,luha,basi,uongo","basi","j","2","html-keyboard-response","210","j","basi","true","",""
"1805","","","","","2","html-slider-response","211","","","","4",""
"3648","finger","simu,sufuria,moyo,lima","moyo","j","2","html-keyboard-response","212","j","moyo","true","",""
"1426","","","","","2","html-slider-response","213","","","","1",""
"5432","shoe","nyeusi,uyoga,hatua,kama","uyoga","v","2","html-keyboard-response","214","v","uyoga","true","",""
"1583","","","","","2","html-slider-response","215","","","","1",""
"6031","giraffe","daraja,jumatu,hangyo,mahitabo","mahitabo","n","2","html-keyboard-response","216","v","jumatu","false","",""
"2114","","","","","2","html-slider-response","217","","","","1",""
"6803","dog","lubi,washia,kalamu,bahari","bahari","n","2","html-keyboard-response","218","n","bahari","true","",""
"1978","","","","","2","html-slider-response","219","","","","5",""
"2740","box","kuacha,adui,rafiki,kitande","adui","v","2","html-keyboard-response","220","v","adui","true","",""
"1635","","","","","2","html-slider-response","221","","","","1",""
"3522","scissors","tanuri,duga,mtawa,suga","tanuri","f","2","html-keyboard-response","222","f","tanuri","true","",""
"1405","","","","","2","html-slider-response","223","","","","2",""
"5672","cat","neyemba,baki,akili,paghukom","paghukom","n","2","html-keyboard-response","224","j","akili","false","",""
"1605","","","","","2","html-slider-response","225","","","","1",""
"5244","basket","kumbuka,utepe,kumba,hasira","kumba","j","2","html-keyboard-response","226","f","kumbuka","false","",""
"1672","","","","","2","html-slider-response","227","","","","1",""
"4020","snake","pagtukod,jansa,karon,mvringo","pagtukod","f","2","html-keyboard-response","228","n","mvringo","false","",""
"1731","","","","","2","html-slider-response","229","","","","1",""
"5017","gift","baba,pagtawag,nyange,baso","pagtawag","v","2","html-keyboard-response","230","v","pagtawag","true","",""
"1687","","","","","2","html-slider-response","231","","","","2",""
"3870","train","sayari,itik,dakika,mungu","sayari","f","2","html-keyboard-response","232","n","mungu","false","",""
"1626","","","","","2","html-slider-response","233","","","","1",""
"5233","pudding","abug,aibu,mpishi,iring","aibu","v","2","html-keyboard-response","234","v","aibu","true","",""
"1580","","","","","2","html-slider-response","235","","","","2",""
"5801","tomato","chupi,mvua,chupa,takatak","mvua","v","2","html-keyboard-response","236","j","chupa","false","",""
"1722","","","","","2","html-slider-response","237","","","","1",""
"4418","stone","ulimwengu,wingi,mkasi,asili","wingi","v","2","html-keyboard-response","238","j","mkasi","false","",""
"1805","","","","","2","html-slider-response","239","","","","1",""
"3250","hammer","napakyas,mekno,kitovu,layag","napakyas","f","2","html-keyboard-response","240","f","napakyas","true","",""
"1737","","","","","2","html-slider-response","241","","","","1",""
"4031","knee","duka,mvuke,kubale,bili","duka","f","2","html-keyboard-response","242","n","bili","false","",""
"1789","","","","","2","html-slider-response","243","","","","1",""
"3347","ceiling","kugita,maua,kawaida,rayna","maua","v","2","html-keyboard-response","244","v","maua","true","",""
"1759","","","","","2","html-slider-response","245","","","","1",""
"6411","spoon","betri,nzuri,pagsulod,ngazi","pagsulod","j","2","html-keyboard-response","246","n","ngazi","false","",""
"1514","","","","","2","html-slider-response","247","","","","1",""
"2687","marker","mapafu,salita,maji,atay","maji","j","2","html-keyboard-response","248","j","maji","true","",""
"1763","","","","","2","html-slider-response","249","","","","1",""
"4454","candle","gabi,farasi,kupanda,geza","geza","n","2","html-keyboard-response","250","n","geza","true","",""
"1845","","","","","2","html-slider-response","251","","","","1",""
"3183","tissue","lamigas,kisiwa,katika,ugomvi","ugomvi","n","2","html-keyboard-response","252","v","kisiwa","false","",""
"1426","","","","","2","html-slider-response","253","","","","1",""
"3902","bridge","daima,ngono,panya,sahani","sahani","n","2","html-keyboard-response","254","f","daima","false","",""
"1643","","","","","2","html-slider-response","255","","","","1",""
"2851","berry","abogado,nogozi,kofia,kinywa","kofia","j","2","html-keyboard-response","256","n","kinywa","false","",""
"1450","","","","","2","html-slider-response","257","","","","1",""
"2939","triangle","kihozi,bentaha,kasadpan,liog","kasadpan","j","2","html-keyboard-response","258","j","kasadpan","true","",""
"1505","","","","","2","html-slider-response","259","","","","1",""
"2799","door","tena,surali,soko,nyota","surali","v","2","html-keyboard-response","260","f","tena","false","",""
"1714","","","","","2","html-slider-response","261","","","","1",""
"4132","fish","buli,bala,baho,imani","buli","f","2","html-keyboard-response","262","n","imani","false","",""
"1883","","","","","2","html-slider-response","263","","","","2",""
"2717","curtain","lisud,mchanga,bulwawan,chubani","mchanga","v","2","html-keyboard-response","264","f","lisud","false","",""
"1571","","","","","2","html-slider-response","265","","","","1",""
"3882","flag","ndege,trekta,mkate,kawa","trekta","v","2","html-keyboard-response","266","n","kawa","false","",""
"1751","","","","","2","html-slider-response","267","","","","1",""
"13915","boat","agalon,hamsi,pombe,kitanda","agalon","f","2","html-keyboard-response","268","j","pombe","false","",""
"1760","","","","","2","html-slider-response","269","","","","1",""
"2443","rose","singizi,paghalad,mwanake,amani","paghalad","v","2","html-keyboard-response","270","n","amani","false","",""
"1510","","","","","2","html-slider-response","271","","","","1",""
"2777","lamp","daub,bilaska,mbolea,afya","afya","n","2","html-keyboard-response","272","f","daub","false","",""
"1674","","","","","2","html-slider-response","273","","","","1",""
"3015","cigar","adhabu,ndugu,kuta,mlango","adhabu","f","2","html-keyboard-response","274","j","kuta","false","",""
"1660","","","","","2","html-slider-response","275","","","","1",""
"3968","list","alizeti,wingu,kuzama,kaso","wingu","v","2","html-keyboard-response","276","v","wingu","true","",""
"1781","","","","","2","html-slider-response","277","","","","1",""
"42332","sheet","juuya,watu,kamantis,bililhon","bililhon","n","2","html-keyboard-response","278","n","bililhon","true","",""
"1739","","","","","2","html-slider-response","279","","","","1",""
"2587","picture","kubwa,silya,chaki,asin","kubwa","f","2","html-keyboard-response","280","v","silya","false","",""
"2127","","","","","2","html-slider-response","281","","","","1",""
"2345","towel","tembo,funzi,pito,pagpalit","pagpalit","n","2","html-keyboard-response","282","j","pito","false","",""
"1638","","","","","2","html-slider-response","283","","","","1",""
"2296","window","nanga,kujenga,kweli,umaga","kweli","j","2","html-keyboard-response","284","n","umaga","false","",""
"1566","","","","","2","html-slider-response","285","","","","1",""
"4350","box","kuacha,adui,rafiki,kitande","adui","v","3","html-keyboard-response","293","f","kuacha","false","","4"
"1986","","","","","3","html-slider-response","294","","","","1",""
"5440","","","","","3","html-keyboard-response","295","","","","",""
"2805","pants","pintal,chuki,haki,hari","haki","j","3","html-keyboard-response","296","f","pintal","false","","4"
"1923","","","","","3","html-slider-response","297","","","","1",""
"5005","","","","","3","html-keyboard-response","298","","","","",""
"3778","cup","dagat,shimoni,jeraha,matumai","matumai","n","3","html-keyboard-response","299","n","matumai","true","","4"
"1854","","","","","3","html-slider-response","300","","","","1",""
"3517","","","","","3","html-keyboard-response","301","","","","",""
"2660","triangle","kihozi,bentaha,kasadpan,liog","kasadpan","j","3","html-keyboard-response","302","f","kihozi","false","","4"
"2035","","","","","3","html-slider-response","303","","","","1",""
"3773","","","","","3","html-keyboard-response","304","","","","",""
"2538","curtain","mchanga,lisud,bulwawan,chubani","mchanga","f","3","html-keyboard-response","305","j","bulwawan","false","","4"
"1886","","","","","3","html-slider-response","306","","","","1",""
"4411","","","","","3","html-keyboard-response","307","","","","",""
"4600","clock","kartasi,abang,osha,mbwa","mbwa","n","3","html-keyboard-response","308","n","mbwa","true","","4"
"1721","","","","","3","html-slider-response","309","","","","5",""
"1955","","","","","3","html-keyboard-response","310","","","","",""
"3358","mirror","rangi,kanding,furaha,sulagma","sulagma","n","3","html-keyboard-response","311","f","rangi","false","","4"
"1951","","","","","3","html-slider-response","312","","","","1",""
"3416","","","","","3","html-keyboard-response","313","","","","",""
"2307","coffin","barua,kioo,tubag,hulma","kioo","v","3","html-keyboard-response","314","v","kioo","true","","1"
"1936","","","","","3","html-slider-response","315","","","","5",""
"1126","","","","","3","html-keyboard-response","316","","","","",""
"2834","magazine","gundi,mchawi,bahandi,kiti","kiti","n","3","html-keyboard-response","317","n","kiti","true","","4"
"2014","","","","","3","html-slider-response","318","","","","1",""
"2888","","","","","3","html-keyboard-response","319","","","","",""
"2585","column","pundok,dila,pala,ufagio","ufagio","n","3","html-keyboard-response","320","n","ufagio","true","","1"
"1743","","","","","3","html-slider-response","321","","","","5",""
"1733","","","","","3","html-keyboard-response","322","","","","",""
"2863","number","mundamo,shule,kengele,choori","mundamo","f","3","html-keyboard-response","323","f","mundamo","true","","4"
"1837","","","","","3","html-slider-response","324","","","","5",""
"1820","","","","","3","html-keyboard-response","325","","","","",""
"3406","rose","singizi,paghalad,mwanake,amani","paghalad","v","3","html-keyboard-response","326","n","amani","false","","4"
"2040","","","","","3","html-slider-response","327","","","","1",""
"5522","","","","","3","html-keyboard-response","328","","","","",""
"2281","eel","ishara,kunywa,kabuang,msumari","msumari","n","3","html-keyboard-response","329","f","ishara","false","","4"
"1801","","","","","3","html-slider-response","330","","","","1",""
"4432","","","","","3","html-keyboard-response","331","","","","",""
"2710","gift","baba,nyange,pagtawag,baso","pagtawag","j","3","html-keyboard-response","332","j","pagtawag","true","","4"
"1420","","","","","3","html-slider-response","333","","","","2",""
"3564","","","","","3","html-keyboard-response","334","","","","",""
"2900","apple","ukame,estante,edad,kisu","kisu","n","3","html-keyboard-response","335","n","kisu","true","","1"
"1672","","","","","3","html-slider-response","336","","","","5",""
"1183","","","","","3","html-keyboard-response","337","","","","",""
"6008","wheel","punda,bafuni,tawo,baadaye","bafuni","v","3","html-keyboard-response","338","v","bafuni","true","","1"
"2310","","","","","3","html-slider-response","339","","","","5",""
"1290","","","","","3","html-keyboard-response","340","","","","",""
"2803","knee","mvuke,kubale,bili,duka","duka","n","3","html-keyboard-response","341","n","duka","true","","4"
"1765","","","","","3","html-slider-response","342","","","","1",""
"4850","","","","","3","html-keyboard-response","343","","","","",""
"3511","basket","kumbuka,utepe,kumba,hasira","kumba","j","3","html-keyboard-response","344","j","kumba","true","","1"
"2129","","","","","3","html-slider-response","345","","","","5",""
"1903","","","","","3","html-keyboard-response","346","","","","",""
"3387","park","tambok,pwani,ihalas,bunifu","bunifu","n","3","html-keyboard-response","347","n","bunifu","true","","4"
"1639","","","","","3","html-slider-response","348","","","","1",""
"3096","","","","","3","html-keyboard-response","349","","","","",""
"3250","finger","simu,sufuria,lima,moyo","moyo","n","3","html-keyboard-response","350","v","sufuria","false","","4"
"1837","","","","","3","html-slider-response","351","","","","1",""
"5844","","","","","3","html-keyboard-response","352","","","","",""
"3253","boat","hamsi,pombe,agalon,kitanda","agalon","j","3","html-keyboard-response","353","v","pombe","false","","4"
"1574","","","","","3","html-slider-response","354","","","","1",""
"6194","","","","","3","html-keyboard-response","355","","","","",""
"4192","hill","kushoto,kukimba,sweta,matumbo","matumbo","n","3","html-keyboard-response","356","v","kukimba","false","","4"
"2019","","","","","3","html-slider-response","357","","","","1",""
"8227","","","","","3","html-keyboard-response","358","","","","",""
"2560","train","itik,sayari,dakika,mungu","sayari","v","3","html-keyboard-response","359","f","itik","false","","4"
"1772","","","","","3","html-slider-response","360","","","","1",""
"7393","","","","","3","html-keyboard-response","361","","","","",""
"2899","wolf","lugha,kaburi,ndizi,mchuzi","lugha","f","3","html-keyboard-response","362","f","lugha","true","","4"
"1546","","","","","3","html-slider-response","363","","","","5",""
"1420","","","","","3","html-keyboard-response","364","","","","",""
"3880","snake","jansa,pagtukod,karon,mvringo","pagtukod","v","3","html-keyboard-response","365","v","pagtukod","true","","4"
"1814","","","","","3","html-slider-response","366","","","","1",""
"3369","","","","","3","html-keyboard-response","367","","","","",""
"3294","tooth","kijiko,uadui,kabalaka,pahiyum","kabalaka","j","3","html-keyboard-response","368","f","kijiko","false","","4"
"1676","","","","","3","html-slider-response","369","","","","1",""
"10709","","","","","3","html-keyboard-response","370","","","","",""
"3794","notebook","kemia,msitu,kila,mdudu","kemia","f","3","html-keyboard-response","371","j","kila","false","","4"
"2079","","","","","3","html-slider-response","372","","","","1",""
"5135","","","","","3","html-keyboard-response","373","","","","",""
"2334","flag","ndege,trekta,mkate,kawa","trekta","v","3","html-keyboard-response","374","v","trekta","true","","4"
"2057","","","","","3","html-slider-response","375","","","","1",""
"6527","","","","","3","html-keyboard-response","376","","","","",""
"2559","squirrel","mahugaw,ukweli,kichwa,hofu","hofu","n","3","html-keyboard-response","377","f","mahugaw","false","","4"
"1585","","","","","3","html-slider-response","378","","","","1",""
"5275","","","","","3","html-keyboard-response","379","","","","",""
"2859","door","tena,soko,surali,nyota","surali","j","3","html-keyboard-response","380","v","soko","false","","4"
"1799","","","","","3","html-slider-response","381","","","","1",""
"3656","","","","","3","html-keyboard-response","382","","","","",""
"2945","salmon","mzungu,seri,baharia,sensilyo","sensilyo","n","3","html-keyboard-response","383","n","sensilyo","true","","4"
"2033","","","","","3","html-slider-response","384","","","","5",""
"1233","","","","","3","html-keyboard-response","385","","","","",""
"2986","shoulder","mkuu,kelele,ndaniya,guruwe","mkuu","f","3","html-keyboard-response","386","f","mkuu","true","","4"
"1559","","","","","3","html-slider-response","387","","","","4",""
"1374","","","","","3","html-keyboard-response","388","","","","",""
"2225","lamp","daub,bilaska,afya,mbolea","afya","j","3","html-keyboard-response","389","n","mbolea","false","","4"
"1490","","","","","3","html-slider-response","390","","","","1",""
"5998","","","","","3","html-keyboard-response","391","","","","",""
"8368","shelf","bungtod,kadaot,pamahaw,awit","pamahaw","j","3","html-keyboard-response","392","j","pamahaw","true","","1"
"1865","","","","","3","html-slider-response","393","","","","5",""
"1690","","","","","3","html-keyboard-response","394","","","","",""
"4053","human","tinapay,bado,kikapu,punguza","tinapay","f","3","html-keyboard-response","395","f","tinapay","true","","4"
"1575","","","","","3","html-slider-response","396","","","","4",""
"3101","","","","","3","html-keyboard-response","397","","","","",""
"2730","towel","tembo,funzi,pito,pagpalit","pagpalit","n","3","html-keyboard-response","398","f","tembo","false","","4"
"1682","","","","","3","html-slider-response","399","","","","1",""
"6939","","","","","3","html-keyboard-response","400","","","","",""
"10465","cat","neyemba,paghukom,baki,akili","paghukom","v","3","html-keyboard-response","401","f","neyemba","false","","4"
"1644","","","","","3","html-slider-response","402","","","","1",""
"7550","","","","","3","html-keyboard-response","403","","","","",""
"4997","spider","bunyag,mkboa,kamwe,atop","kamwe","j","3","html-keyboard-response","404","v","mkboa","false","","4"
"1637","","","","","3","html-slider-response","405","","","","2",""
"4458","","","","","3","html-keyboard-response","406","","","","",""
"3893","window","kweli,nanga,kujenga,umaga","kweli","f","3","html-keyboard-response","407","v","nanga","false","","4"
"2260","","","","","3","html-slider-response","408","","","","1",""
"8824","","","","","3","html-keyboard-response","409","","","","",""
"2748","woman","pagtabon,bandari,bituin,kovuli","pagtabon","f","3","html-keyboard-response","410","f","pagtabon","true","","1"
"2159","","","","","3","html-slider-response","411","","","","5",""
"2953","","","","","3","html-keyboard-response","412","","","","",""
"1589","giraffe","daraja,jumatu,mahitabo,hangyo","mahitabo","j","3","html-keyboard-response","413","f","daraja","false","","4"
"1820","","","","","3","html-slider-response","414","","","","1",""
"7859","","","","","3","html-keyboard-response","415","","","","",""
"2779","elephant","kito,petye,pagduol,suka","kito","f","3","html-keyboard-response","416","f","kito","true","","4"
"1580","","","","","3","html-slider-response","417","","","","5",""
"1494","","","","","3","html-keyboard-response","418","","","","",""
"2983","cave","ganti,kesho,maisha,nyundo","kesho","v","3","html-keyboard-response","419","v","kesho","true","","4"
"2415","","","","","3","html-slider-response","420","","","","3",""
"1947","","","","","3","html-keyboard-response","421","","","","",""
"3686","bread","kaili,dari,dizeli,bugas","dari","v","3","html-keyboard-response","422","f","kaili","false","","4"
"1754","","","","","3","html-slider-response","423","","","","1",""
"9260","","","","","3","html-keyboard-response","424","","","","",""
"3948","stone","ulimwengu,mkasi,wingi,asili","wingi","j","3","html-keyboard-response","425","v","mkasi","false","","4"
"1686","","","","","3","html-slider-response","426","","","","1",""
"6708","","","","","3","html-keyboard-response","427","","","","",""
"2629","donkey","elfu,bloke,lalake,rombus","elfu","f","3","html-keyboard-response","428","f","elfu","true","","4"
"1491","","","","","3","html-slider-response","429","","","","1",""
"2047","","","","","3","html-keyboard-response","430","","","","",""
"2847","bridge","sahani,daima,ngono,panya","sahani","f","3","html-keyboard-response","431","n","panya","false","","4"
"1599","","","","","3","html-slider-response","432","","","","2",""
"9288","","","","","3","html-keyboard-response","433","","","","",""
"3914","bonfire","mwezi,goti,mfuko,kusanya","goti","v","3","html-keyboard-response","434","j","mfuko","false","","4"
"1492","","","","","3","html-slider-response","435","","","","2",""
"5890","","","","","3","html-keyboard-response","436","","","","",""
"6823","book","kuhesa,picha,mara,mali","mali","n","3","html-keyboard-response","437","n","mali","true","","4"
"1863","","","","","3","html-slider-response","438","","","","5",""
"1525","","","","","3","html-keyboard-response","439","","","","",""
"2790","fish","bala,buli,baho,imani","buli","v","3","html-keyboard-response","440","n","imani","false","","4"
"1508","","","","","3","html-slider-response","441","","","","2",""
"7028","","","","","3","html-keyboard-response","442","","","","",""
"4325","spoon","betri,pagsulod,nzuri,ngazi","pagsulod","v","3","html-keyboard-response","443","j","nzuri","false","","4"
"1621","","","","","3","html-slider-response","444","","","","1",""
"6863","","","","","3","html-keyboard-response","445","","","","",""
"2388","scissors","duga,mtawa,tanuri,suga","tanuri","j","3","html-keyboard-response","446","j","tanuri","true","","4"
"1524","","","","","3","html-slider-response","447","","","","1",""
"4228","","","","","3","html-keyboard-response","448","","","","",""
"3459","page","wakala,ishiri,wimbo,skina","wimbo","j","3","html-keyboard-response","449","j","wimbo","true","","4"
"1666","","","","","3","html-slider-response","450","","","","1",""
"2716","","","","","3","html-keyboard-response","451","","","","",""
"9317","nose","gubat,kopa,kidole,sehemu","sehemu","n","3","html-keyboard-response","452","n","sehemu","true","","1"
"1664","","","","","3","html-slider-response","453","","","","5",""
"1641","","","","","3","html-keyboard-response","454","","","","",""
"2195","ceiling","maua,kugita,kawaida,rayna","maua","f","3","html-keyboard-response","455","n","rayna","false","","4"
"1390","","","","","3","html-slider-response","456","","","","1",""
"6424","","","","","3","html-keyboard-response","457","","","","",""
"3832","bucket","baga,ijayo,kiatu,init","kiatu","j","3","html-keyboard-response","458","j","kiatu","true","","4"
"1500","","","","","3","html-slider-response","459","","","","2",""
"5005","","","","","3","html-keyboard-response","460","","","","",""
"2328","berry","abogado,nogozi,kinywa,kofia","kofia","n","3","html-keyboard-response","461","n","kofia","true","","1"
"2185","","","","","3","html-slider-response","462","","","","5",""
"3154","","","","","3","html-keyboard-response","463","","","","",""
"7013","mother","kahawa,mbuzi,jokofu,babaye","babaye","n","3","html-keyboard-response","464","n","babaye","true","","1"
"2326","","","","","3","html-slider-response","465","","","","5",""
"3105","","","","","3","html-keyboard-response","466","","","","",""
"2669","mosquito","martilyo,isda,taras,gutom","martilyo","f","3","html-keyboard-response","467","f","martilyo","true","","4"
"1642","","","","","3","html-slider-response","468","","","","5",""
"970","","","","","3","html-keyboard-response","469","","","","",""
"4485","perfume","katuyoan,bino,sungura,ndogo","katuyoan","f","3","html-keyboard-response","470","j","sungura","false","","4"
"1419","","","","","3","html-slider-response","471","","","","1",""
"5439","","","","","3","html-keyboard-response","472","","","","",""
"3174","sheet","juuya,bililhon,watu,kamantis","bililhon","v","3","html-keyboard-response","473","v","bililhon","true","","4"
"1425","","","","","3","html-slider-response","474","","","","2",""
"3774","","","","","3","html-keyboard-response","475","","","","",""
"1608","puppet","napulo,mazishi,lamok,godoro","mazishi","v","3","html-keyboard-response","476","v","mazishi","true","","1"
"1646","","","","","3","html-slider-response","477","","","","5",""
"8088","","","","","3","html-keyboard-response","478","","","","",""
"4024","poster","nchi,madungog,fedha,kasuko","madungog","v","3","html-keyboard-response","479","n","kasuko","false","","4"
"1414","","","","","3","html-slider-response","480","","","","1",""
"4212","","","","","3","html-keyboard-response","481","","","","",""
"2972","music","mraba,mageho,tumbo,baiski","baiski","n","3","html-keyboard-response","482","n","baiski","true","","4"
"1614","","","","","3","html-slider-response","483","","","","5",""
"948","","","","","3","html-keyboard-response","484","","","","",""
"1821","key","miaka,goma,ahos,chombo","chombo","n","3","html-keyboard-response","485","f","miaka","false","","4"
"1570","","","","","3","html-slider-response","486","","","","1",""
"29264","","","","","3","html-keyboard-response","487","","","","",""
"3204","sock","ndoora,kimysa,mtirka,mamba","mamba","n","3","html-keyboard-response","488","n","mamba","true","","4"
"1902","","","","","3","html-slider-response","489","","","","5",""
"1374","","","","","3","html-keyboard-response","490","","","","",""
"2156","marker","maji,mapafu,salita,atay","maji","f","3","html-keyboard-response","491","v","mapafu","false","","4"
"1952","","","","","3","html-slider-response","492","","","","1",""
"4724","","","","","3","html-keyboard-response","493","","","","",""
"2207","office","hazini,yatima,leso,kuna","leso","j","3","html-keyboard-response","494","f","hazini","false","","4"
"1744","","","","","3","html-slider-response","495","","","","1",""
"6485","","","","","3","html-keyboard-response","496","","","","",""
"2279","shoe","nyeusi,uyoga,hatua,kama","uyoga","v","3","html-keyboard-response","497","v","uyoga","true","","4"
"1596","","","","","3","html-slider-response","498","","","","1",""
"5520","","","","","3","html-keyboard-response","499","","","","",""
"2151","cop","mechezo,bustani,jikoni,bakus","mechezo","f","3","html-keyboard-response","500","f","mechezo","true","","4"
"1984","","","","","3","html-slider-response","501","","","","4",""
"1556","","","","","3","html-keyboard-response","502","","","","",""
"2657","bank","kudhibi,tualya,silingan,ofisi","silingan","j","3","html-keyboard-response","503","n","ofisi","false","","4"
"1418","","","","","3","html-slider-response","504","","","","1",""
"10475","","","","","3","html-keyboard-response","505","","","","",""
"2295","letter","filimbi,kifua,chuma,uhuru","kifua","v","3","html-keyboard-response","506","v","kifua","true","","1"
"2706","","","","","3","html-slider-response","507","","","","5",""
"3340","","","","","3","html-keyboard-response","508","","","","",""
"1931","dog","bahari,lubi,washia,kalamu","bahari","f","3","html-keyboard-response","509","f","bahari","true","","1"
"1819","","","","","3","html-slider-response","510","","","","5",""
"1019","","","","","3","html-keyboard-response","511","","","","",""
"2441","shop","nopya,samaki,kerida,ndezu","samaki","v","3","html-keyboard-response","512","n","ndezu","false","","4"
"1384","","","","","3","html-slider-response","513","","","","1",""
"4910","","","","","3","html-keyboard-response","514","","","","",""
"3111","flower","tamasha,lobo,usiku,bega","bega","n","3","html-keyboard-response","515","n","bega","true","","4"
"1666","","","","","3","html-slider-response","516","","","","4",""
"2428","","","","","3","html-keyboard-response","517","","","","",""
"1771","cigar","adhabu,ndugu,kuta,mlango","adhabu","f","3","html-keyboard-response","518","f","adhabu","true","","1"
"1803","","","","","3","html-slider-response","519","","","","5",""
"3384","","","","","3","html-keyboard-response","520","","","","",""
"1577","hammer","mekno,napakyas,kitovu,layag","napakyas","v","3","html-keyboard-response","521","f","mekno","false","","4"
"1616","","","","","3","html-slider-response","522","","","","1",""
"6781","","","","","3","html-keyboard-response","523","","","","",""
"3214","fork","baboy,paghago,mgonjwa,gorisi","mgonjwa","j","3","html-keyboard-response","524","f","baboy","false","","4"
"1524","","","","","3","html-slider-response","525","","","","1",""
"6265","","","","","3","html-keyboard-response","526","","","","",""
"1825","sun","bendi,basi,luha,uongo","basi","v","3","html-keyboard-response","527","v","basi","true","","1"
"1555","","","","","3","html-slider-response","528","","","","5",""
"1102","","","","","3","html-keyboard-response","529","","","","",""
"1351","ladder","pangalan,mashua,mwanga,kamba","pangalan","f","3","html-keyboard-response","530","f","pangalan","true","","4"
"2102","","","","","3","html-slider-response","531","","","","1",""
"4725","","","","","3","html-keyboard-response","532","","","","",""
"1873","banana","kazi,kasamok,hagdan,twai","kazi","f","3","html-keyboard-response","533","f","kazi","true","","1"
"1688","","","","","3","html-slider-response","534","","","","5",""
"1774","","","","","3","html-keyboard-response","535","","","","",""
"3658","pudding","abug,mpishi,iring,aibu","aibu","n","3","html-keyboard-response","536","f","abug","false","","4"
"1782","","","","","3","html-slider-response","537","","","","1",""
"4581","","","","","3","html-keyboard-response","538","","","","",""
"2720","body","nyundu,tindashan,jibini,kununa","tindashan","v","3","html-keyboard-response","539","v","tindashan","true","","4"
"1471","","","","","3","html-slider-response","540","","","","2",""
"2900","","","","","3","html-keyboard-response","541","","","","",""
"2594","bed","kalipay,haraka,mapintas,starehe","mapintas","j","3","html-keyboard-response","542","j","mapintas","true","","4"
"1385","","","","","3","html-slider-response","543","","","","2",""
"3196","","","","","3","html-keyboard-response","544","","","","",""
"2238","tissue","lamigas,kisiwa,ugomvi,katika","ugomvi","j","3","html-keyboard-response","545","f","lamigas","false","","4"
"1456","","","","","3","html-slider-response","546","","","","1",""
"11063","","","","","3","html-keyboard-response","547","","","","",""
"2545","candle","gabi,geza,farasi,kupanda","geza","v","3","html-keyboard-response","548","n","kupanda","false","","4"
"1948","","","","","3","html-slider-response","549","","","","2",""
"6698","","","","","3","html-keyboard-response","550","","","","",""
"2828","tomato","chupi,chupa,takatak,mvua","mvua","n","3","html-keyboard-response","551","n","mvua","true","","1"
"2080","","","","","3","html-slider-response","552","","","","5",""
"1790","","","","","3","html-keyboard-response","553","","","","",""
"2466","list","alizeti,kuzama,kaso,wingu","wingu","n","3","html-keyboard-response","554","f","alizeti","false","","4"
"1537","","","","","3","html-slider-response","555","","","","1",""
"5891","","","","","3","html-keyboard-response","556","","","","",""
"4841","olive","bata,siagi,welder,jiwe","jiwe","n","3","html-keyboard-response","557","n","jiwe","true","","4"
"1737","","","","","3","html-slider-response","558","","","","5",""
"1011","","","","","3","html-keyboard-response","559","","","","",""
"2900","picture","silya,chaki,asin,kubwa","kubwa","n","3","html-keyboard-response","560","n","kubwa","true","","1"
"2076","","","","","3","html-slider-response","561","","","","5",""
"2110","","","","","3","html-keyboard-response","562","","","","",""
"2969","page","wimbo,wakala,ishiri,skina","wimbo","f","4","html-keyboard-response","888","f","wimbo","true","",""
"1817","","","","","4","html-slider-response","889","","","","4",""
"3098","sheet","juuya,watu,bililhon,kamantis","bililhon","j","4","html-keyboard-response","890","j","bililhon","true","",""
"1511","","","","","4","html-slider-response","891","","","","5",""
"3036","ladder","mashua,mwanga,pangalan,kamba","pangalan","j","4","html-keyboard-response","892","j","pangalan","true","",""
"1894","","","","","4","html-slider-response","893","","","","4",""
"3233","door","tena,soko,surali,nyota","surali","j","4","html-keyboard-response","894","j","surali","true","",""
"1883","","","","","4","html-slider-response","895","","","","3",""
"2621","spider","kamwe,bunyag,mkboa,atop","kamwe","f","4","html-keyboard-response","896","f","kamwe","true","",""
"1647","","","","","4","html-slider-response","897","","","","5",""
"5408","picture","silya,chaki,kubwa,asin","kubwa","j","4","html-keyboard-response","898","f","silya","false","",""
"1472","","","","","4","html-slider-response","899","","","","1",""
"3774","boat","hamsi,pombe,agalon,kitanda","agalon","j","4","html-keyboard-response","900","j","agalon","true","",""
"2975","","","","","4","html-slider-response","901","","","","4",""
"2641","donkey","bloke,lalake,rombus,elfu","elfu","n","4","html-keyboard-response","902","n","elfu","true","",""
"2383","","","","","4","html-slider-response","903","","","","5",""
"3328","book","kuhesa,mali,picha,mara","mali","v","4","html-keyboard-response","904","v","mali","true","",""
"1309","","","","","4","html-slider-response","905","","","","5",""
"7548","cup","dagat,matumai,shimoni,jeraha","matumai","v","4","html-keyboard-response","906","v","matumai","true","",""
"1314","","","","","4","html-slider-response","907","","","","4",""
"1781","sun","bendi,luha,basi,uongo","basi","j","4","html-keyboard-response","908","j","basi","true","",""
"2425","","","","","4","html-slider-response","909","","","","5",""
"2212","pudding","aibu,abug,mpishi,iring","aibu","f","4","html-keyboard-response","910","f","aibu","true","",""
"1325","","","","","4","html-slider-response","911","","","","4",""
"2600","human","bado,kikapu,punguza,tinapay","tinapay","n","4","html-keyboard-response","912","n","tinapay","true","",""
"1644","","","","","4","html-slider-response","913","","","","5",""
"4759","squirrel","mahugaw,ukweli,kichwa,hofu","hofu","n","4","html-keyboard-response","914","n","hofu","true","",""
"1368","","","","","4","html-slider-response","915","","","","2",""
"4397","park","bunifu,tambok,pwani,ihalas","bunifu","f","4","html-keyboard-response","916","f","bunifu","true","",""
"1599","","","","","4","html-slider-response","917","","","","4",""
"2694","poster","madungog,nchi,fedha,kasuko","madungog","f","4","html-keyboard-response","918","f","madungog","true","",""
"1981","","","","","4","html-slider-response","919","","","","4",""
"2238","wolf","lugha,kaburi,ndizi,mchuzi","lugha","f","4","html-keyboard-response","920","f","lugha","true","",""
"1418","","","","","4","html-slider-response","921","","","","5",""
"3165","cat","neyemba,baki,paghukom,akili","paghukom","j","4","html-keyboard-response","922","j","paghukom","true","",""
"2689","","","","","4","html-slider-response","923","","","","4",""
"3633","fish","buli,bala,baho,imani","buli","f","4","html-keyboard-response","924","v","bala","false","",""
"1650","","","","","4","html-slider-response","925","","","","1",""
"3829","tooth","kabalaka,kijiko,uadui,pahiyum","kabalaka","f","4","html-keyboard-response","926","f","kabalaka","true","",""
"1558","","","","","4","html-slider-response","927","","","","4",""
"2274","cave","ganti,maisha,nyundo,kesho","kesho","n","4","html-keyboard-response","928","n","kesho","true","",""
"1893","","","","","4","html-slider-response","929","","","","5",""
"7138","lamp","daub,afya,bilaska,mbolea","afya","v","4","html-keyboard-response","930","v","afya","true","",""
"5510","","","","","4","html-slider-response","931","","","","2",""
"2940","banana","kasamok,kazi,hagdan,twai","kazi","v","4","html-keyboard-response","932","v","kazi","true","",""
"2340","","","","","4","html-slider-response","933","","","","5",""
"2719","bonfire","mwezi,mfuko,kusanya,goti","goti","n","4","html-keyboard-response","934","n","goti","true","",""
"2717","","","","","4","html-slider-response","935","","","","4",""
"2432","cop","bustani,jikoni,bakus,mechezo","mechezo","n","4","html-keyboard-response","936","n","mechezo","true","",""
"2592","","","","","4","html-slider-response","937","","","","5",""
"4189","marker","maji,mapafu,salita,atay","maji","f","4","html-keyboard-response","938","f","maji","true","",""
"2322","","","","","4","html-slider-response","939","","","","1",""
"4551","window","kweli,nanga,kujenga,umaga","kweli","f","4","html-keyboard-response","940","f","kweli","true","",""
"2383","","","","","4","html-slider-response","941","","","","2",""
"3253","body","nyundu,jibini,tindashan,kununa","tindashan","j","4","html-keyboard-response","942","j","tindashan","true","",""
"1724","","","","","4","html-slider-response","943","","","","5",""
"2816","apple","ukame,kisu,estante,edad","kisu","v","4","html-keyboard-response","944","v","kisu","true","",""
"1307","","","","","4","html-slider-response","945","","","","4",""
"3969","salmon","sensilyo,mzungu,seri,baharia","sensilyo","f","4","html-keyboard-response","946","f","sensilyo","true","",""
"1755","","","","","4","html-slider-response","947","","","","5",""
"1819","bed","mapintas,kalipay,haraka,starehe","mapintas","f","4","html-keyboard-response","948","f","mapintas","true","",""
"1263","","","","","4","html-slider-response","949","","","","5",""
"2819","berry","abogado,nogozi,kofia,kinywa","kofia","j","4","html-keyboard-response","950","v","nogozi","false","",""
"1512","","","","","4","html-slider-response","951","","","","2",""
"4604","mirror","rangi,sulagma,kanding,furaha","sulagma","v","4","html-keyboard-response","952","j","kanding","false","",""
"1422","","","","","4","html-slider-response","953","","","","1",""
"2880","flag","ndege,mkate,kawa,trekta","trekta","n","4","html-keyboard-response","954","n","trekta","true","",""
"1344","","","","","4","html-slider-response","955","","","","5",""
"1924","shoulder","kelele,ndaniya,guruwe,mkuu","mkuu","n","4","html-keyboard-response","956","n","mkuu","true","",""
"1397","","","","","4","html-slider-response","957","","","","5",""
"2891","tissue","lamigas,kisiwa,katika,ugomvi","ugomvi","n","4","html-keyboard-response","958","n","ugomvi","true","",""
"1161","","","","","4","html-slider-response","959","","","","4",""
"4114","notebook","msitu,kila,kemia,mdudu","kemia","j","4","html-keyboard-response","960","v","kila","false","",""
"2511","","","","","4","html-slider-response","961","","","","3",""
"5632","snake","pagtukod,jansa,karon,mvringo","pagtukod","f","4","html-keyboard-response","962","n","mvringo","false","",""
"1265","","","","","4","html-slider-response","963","","","","1",""
"2282","finger","moyo,simu,sufuria,lima","moyo","f","4","html-keyboard-response","964","f","moyo","true","",""
"1505","","","","","4","html-slider-response","965","","","","5",""
"3802","basket","kumbuka,utepe,kumba,hasira","kumba","j","4","html-keyboard-response","966","j","kumba","true","",""
"2239","","","","","4","html-slider-response","967","","","","3",""
"5069","curtain","lisud,mchanga,bulwawan,chubani","mchanga","v","4","html-keyboard-response","968","j","bulwawan","false","",""
"3638","","","","","4","html-slider-response","969","","","","2",""
"5295","perfume","katuyoan,bino,sungura,ndogo","katuyoan","f","4","html-keyboard-response","970","f","katuyoan","true","",""
"1205","","","","","4","html-slider-response","971","","","","2",""
"2256","key","miaka,goma,ahos,chombo","chombo","n","4","html-keyboard-response","972","n","chombo","true","",""
"1346","","","","","4","html-slider-response","973","","","","5",""
"1791","olive","bata,siagi,jiwe,welder","jiwe","j","4","html-keyboard-response","974","j","jiwe","true","",""
"1493","","","","","4","html-slider-response","975","","","","5",""
"2829","rose","singizi,paghalad,mwanake,amani","paghalad","v","4","html-keyboard-response","976","v","paghalad","true","",""
"1757","","","","","4","html-slider-response","977","","","","2",""
"12981","bridge","daima,sahani,ngono,panya","sahani","v","4","html-keyboard-response","978","v","sahani","true","",""
"1774","","","","","4","html-slider-response","979","","","","2",""
"1955","hill","kushoto,kukimba,sweta,matumbo","matumbo","n","4","html-keyboard-response","980","n","matumbo","true","",""
"1345","","","","","4","html-slider-response","981","","","","5",""
"4790","letter","filimbi,chuma,kifua,uhuru","kifua","j","4","html-keyboard-response","982","j","kifua","true","",""
"1247","","","","","4","html-slider-response","983","","","","4",""
"3655","sock","ndoora,kimysa,mamba,mtirka","mamba","j","4","html-keyboard-response","984","j","mamba","true","",""
"1828","","","","","4","html-slider-response","985","","","","5",""
"5415","fork","baboy,paghago,mgonjwa,gorisi","mgonjwa","j","4","html-keyboard-response","986","n","gorisi","false","",""
"2359","","","","","4","html-slider-response","987","","","","1",""
"3919","box","kuacha,rafiki,kitande,adui","adui","n","4","html-keyboard-response","988","n","adui","true","",""
"3560","","","","","4","html-slider-response","989","","","","3",""
"2476","gift","baba,nyange,pagtawag,baso","pagtawag","j","4","html-keyboard-response","990","j","pagtawag","true","",""
"2112","","","","","4","html-slider-response","991","","","","5",""
"4449","bucket","kiatu,baga,ijayo,init","kiatu","f","4","html-keyboard-response","992","f","kiatu","true","",""
"4749","","","","","4","html-slider-response","993","","","","3",""
"6449","shop","nopya,kerida,samaki,ndezu","samaki","j","4","html-keyboard-response","994","j","samaki","true","",""
"1606","","","","","4","html-slider-response","995","","","","4",""
"6463","puppet","napulo,mazishi,lamok,godoro","mazishi","v","4","html-keyboard-response","996","v","mazishi","true","",""
"1414","","","","","4","html-slider-response","997","","","","4",""
"5041","nose","gubat,kopa,kidole,sehemu","sehemu","n","4","html-keyboard-response","998","n","sehemu","true","",""
"1236","","","","","4","html-slider-response","999","","","","4",""
"2499","music","mraba,mageho,baiski,tumbo","baiski","j","4","html-keyboard-response","1000","j","baiski","true","",""
"1733","","","","","4","html-slider-response","1001","","","","5",""
"6054","dog","bahari,lubi,washia,kalamu","bahari","f","4","html-keyboard-response","1002","f","bahari","true","",""
"3400","","","","","4","html-slider-response","1003","","","","5",""
"3362","eel","msumari,ishara,kunywa,kabuang","msumari","f","4","html-keyboard-response","1004","f","msumari","true","",""
"1411","","","","","4","html-slider-response","1005","","","","4",""
"2551","number","shule,kengele,choori,mundamo","mundamo","n","4","html-keyboard-response","1006","n","mundamo","true","",""
"1572","","","","","4","html-slider-response","1007","","","","5",""
"3156","tomato","mvua,chupi,chupa,takatak","mvua","f","4","html-keyboard-response","1008","f","mvua","true","",""
"1259","","","","","4","html-slider-response","1009","","","","5",""
"2448","coffin","barua,kioo,tubag,hulma","kioo","v","4","html-keyboard-response","1010","v","kioo","true","",""
"1303","","","","","4","html-slider-response","1011","","","","5",""
"1990","knee","mvuke,kubale,bili,duka","duka","n","4","html-keyboard-response","1012","n","duka","true","",""
"1277","","","","","4","html-slider-response","1013","","","","5",""
"1901","woman","bandari,bituin,pagtabon,kovuli","pagtabon","j","4","html-keyboard-response","1014","j","pagtabon","true","",""
"1413","","","","","4","html-slider-response","1015","","","","5",""
"3241","stone","ulimwengu,mkasi,asili,wingi","wingi","n","4","html-keyboard-response","1016","n","wingi","true","",""
"1396","","","","","4","html-slider-response","1017","","","","5",""
"5081","bread","kaili,dizeli,bugas,dari","dari","n","4","html-keyboard-response","1018","n","dari","true","",""
"1589","","","","","4","html-slider-response","1019","","","","4",""
"5112","triangle","kihozi,bentaha,liog,kasadpan","kasadpan","n","4","html-keyboard-response","1020","v","bentaha","false","",""
"1303","","","","","4","html-slider-response","1021","","","","1",""
"3020","scissors","tanuri,duga,mtawa,suga","tanuri","f","4","html-keyboard-response","1022","f","tanuri","true","",""
"1211","","","","","4","html-slider-response","1023","","","","5",""
"11961","giraffe","daraja,jumatu,mahitabo,hangyo","mahitabo","j","4","html-keyboard-response","1024","j","mahitabo","true","",""
"1483","","","","","4","html-slider-response","1025","","","","2",""
"3226","flower","tamasha,lobo,usiku,bega","bega","n","4","html-keyboard-response","1026","n","bega","true","",""
"1117","","","","","4","html-slider-response","1027","","","","4",""
"2409","candle","gabi,farasi,kupanda,geza","geza","n","4","html-keyboard-response","1028","n","geza","true","",""
"1496","","","","","4","html-slider-response","1029","","","","5",""
"5426","mother","kahawa,mbuzi,babaye,jokofu","babaye","j","4","html-keyboard-response","1030","j","babaye","true","",""
"1455","","","","","4","html-slider-response","1031","","","","5",""
"5160","towel","tembo,pagpalit,funzi,pito","pagpalit","v","4","html-keyboard-response","1032","v","pagpalit","true","",""
"1597","","","","","4","html-slider-response","1033","","","","2",""
"2004","elephant","petye,pagduol,kito,suka","kito","j","4","html-keyboard-response","1034","j","kito","true","",""
"2383","","","","","4","html-slider-response","1035","","","","5",""
"3132","shelf","pamahaw,bungtod,kadaot,awit","pamahaw","f","4","html-keyboard-response","1036","f","pamahaw","true","",""
"1276","","","","","4","html-slider-response","1037","","","","5",""
"2257","mosquito","isda,taras,gutom,martilyo","martilyo","n","4","html-keyboard-response","1038","n","martilyo","true","",""
"1397","","","","","4","html-slider-response","1039","","","","5",""
"2087","column","ufagio,pundok,dila,pala","ufagio","f","4","html-keyboard-response","1040","f","ufagio","true","",""
"1375","","","","","4","html-slider-response","1041","","","","5",""
"6367","pants","pintal,chuki,haki,hari","haki","j","4","html-keyboard-response","1042","n","hari","false","",""
"1532","","","","","4","html-slider-response","1043","","","","1",""
"8222","list","alizeti,kuzama,kaso,wingu","wingu","n","4","html-keyboard-response","1044","j","kaso","false","",""
"2187","","","","","4","html-slider-response","1045","","","","1",""
"2947","bank","silingan,kudhibi,tualya,ofisi","silingan","f","4","html-keyboard-response","1046","f","silingan","true","",""
"1476","","","","","4","html-slider-response","1047","","","","5",""
"2908","clock","kartasi,mbwa,abang,osha","mbwa","v","4","html-keyboard-response","1048","v","mbwa","true","",""
"1299","","","","","4","html-slider-response","1049","","","","5",""
"6105","ceiling","kugita,maua,kawaida,rayna","maua","v","4","html-keyboard-response","1050","f","kugita","false","",""
"1435","","","","","4","html-slider-response","1051","","","","2",""
"3470","train","itik,dakika,mungu,sayari","sayari","n","4","html-keyboard-response","1052","n","sayari","true","",""
"1304","","","","","4","html-slider-response","1053","","","","4",""
"5685","magazine","kiti,gundi,mchawi,bahandi","kiti","f","4","html-keyboard-response","1054","n","bahandi","false","",""
"1436","","","","","4","html-slider-response","1055","","","","1",""
"3406","office","hazini,yatima,kuna,leso","leso","n","4","html-keyboard-response","1056","n","leso","true","",""
"1470","","","","","4","html-slider-response","1057","","","","5",""
"8189","wheel","punda,tawo,bafuni,baadaye","bafuni","j","4","html-keyboard-response","1058","j","bafuni","true","",""
"2067","","","","","4","html-slider-response","1059","","","","3",""
"4103","spoon","betri,nzuri,ngazi,pagsulod","pagsulod","n","4","html-keyboard-response","1060","n","pagsulod","true","",""
"2304","","","","","4","html-slider-response","1061","","","","3",""
"3762","hammer","mekno,kitovu,napakyas,layag","napakyas","j","4","html-keyboard-response","1062","j","napakyas","true","",""
"1625","","","","","4","html-slider-response","1063","","","","4",""
"4189","cigar","ndugu,adhabu,kuta,mlango","adhabu","v","4","html-keyboard-response","1064","v","adhabu","true","",""
"2437","","","","","4","html-slider-response","1065","","","","3",""
"6591","shoe","nyeusi,hatua,uyoga,kama","uyoga","j","4","html-keyboard-response","1066","j","uyoga","true","",""
"1687","","","","","4","html-slider-response","1067","","","","1",""
"4179","list","alizeti,wingu,kuzama,kaso","wingu","v","5","html-keyboard-response","1069","n","kaso","false","",""
"2366","","","","","5","html-slider-response","1070","","","","1",""
"1813","number","shule,kengele,choori,mundamo","mundamo","n","5","html-keyboard-response","1071","n","mundamo","true","",""
"2555","","","","","5","html-slider-response","1072","","","","5",""
"2806","apple","kisu,ukame,estante,edad","kisu","f","5","html-keyboard-response","1073","f","kisu","true","",""
"2651","","","","","5","html-slider-response","1074","","","","5",""
"1869","knee","duka,mvuke,kubale,bili","duka","f","5","html-keyboard-response","1075","f","duka","true","",""
"1623","","","","","5","html-slider-response","1076","","","","5",""
"2958","tooth","kijiko,uadui,pahiyum,kabalaka","kabalaka","n","5","html-keyboard-response","1077","n","kabalaka","true","",""
"1582","","","","","5","html-slider-response","1078","","","","4",""
"3321","berry","abogado,nogozi,kofia,kinywa","kofia","j","5","html-keyboard-response","1079","j","kofia","true","",""
"1855","","","","","5","html-slider-response","1080","","","","2",""
"4381","bridge","daima,ngono,sahani,panya","sahani","j","5","html-keyboard-response","1081","j","sahani","true","",""
"1771","","","","","5","html-slider-response","1082","","","","4",""
"3825","perfume","bino,sungura,ndogo,katuyoan","katuyoan","n","5","html-keyboard-response","1083","n","katuyoan","true","",""
"2004","","","","","5","html-slider-response","1084","","","","3",""
"6262","ladder","pangalan,mashua,mwanga,kamba","pangalan","f","5","html-keyboard-response","1085","f","pangalan","true","",""
"1694","","","","","5","html-slider-response","1086","","","","2",""
"3834","pants","pintal,chuki,hari,haki","haki","n","5","html-keyboard-response","1087","j","hari","false","",""
"1853","","","","","5","html-slider-response","1088","","","","1",""
"3279","salmon","sensilyo,mzungu,seri,baharia","sensilyo","f","5","html-keyboard-response","1089","f","sensilyo","true","",""
"2366","","","","","5","html-slider-response","1090","","","","5",""
"3894","coffin","barua,kioo,tubag,hulma","kioo","v","5","html-keyboard-response","1091","v","kioo","true","",""
"1988","","","","","5","html-slider-response","1092","","","","5",""
"2864","park","tambok,pwani,bunifu,ihalas","bunifu","j","5","html-keyboard-response","1093","j","bunifu","true","",""
"1411","","","","","5","html-slider-response","1094","","","","4",""
"5504","giraffe","daraja,jumatu,mahitabo,hangyo","mahitabo","j","5","html-keyboard-response","1095","j","mahitabo","true","",""
"1730","","","","","5","html-slider-response","1096","","","","4",""
"3535","mirror","rangi,sulagma,kanding,furaha","sulagma","v","5","html-keyboard-response","1097","v","sulagma","true","",""
"1643","","","","","5","html-slider-response","1098","","","","3",""
"3678","ceiling","kugita,kawaida,rayna,maua","maua","n","5","html-keyboard-response","1099","f","kugita","false","",""
"1382","","","","","5","html-slider-response","1100","","","","2",""
"3345","marker","mapafu,maji,salita,atay","maji","v","5","html-keyboard-response","1101","f","mapafu","false","",""
"1578","","","","","5","html-slider-response","1102","","","","1",""
"2954","sock","ndoora,kimysa,mtirka,mamba","mamba","n","5","html-keyboard-response","1103","n","mamba","true","",""
"1981","","","","","5","html-slider-response","1104","","","","5",""
"2526","cop","bustani,mechezo,jikoni,bakus","mechezo","v","5","html-keyboard-response","1105","v","mechezo","true","",""
"2007","","","","","5","html-slider-response","1106","","","","5",""
"1998","gift","baba,nyange,pagtawag,baso","pagtawag","j","5","html-keyboard-response","1107","j","pagtawag","true","",""
"1554","","","","","5","html-slider-response","1108","","","","5",""
"2860","notebook","msitu,kila,mdudu,kemia","kemia","n","5","html-keyboard-response","1109","n","kemia","true","",""
"1884","","","","","5","html-slider-response","1110","","","","3",""
"2088","bank","kudhibi,tualya,silingan,ofisi","silingan","j","5","html-keyboard-response","1111","j","silingan","true","",""
"2715","","","","","5","html-slider-response","1112","","","","5",""
"3788","letter","filimbi,chuma,kifua,uhuru","kifua","j","5","html-keyboard-response","1113","j","kifua","true","",""
"2898","","","","","5","html-slider-response","1114","","","","3",""
"1954","candle","gabi,farasi,geza,kupanda","geza","j","5","html-keyboard-response","1115","j","geza","true","",""
"2066","","","","","5","html-slider-response","1116","","","","5",""
"11132","bread","kaili,dizeli,bugas,dari","dari","n","5","html-keyboard-response","1117","n","dari","true","",""
"1996","","","","","5","html-slider-response","1118","","","","5",""
"7282","snake","pagtukod,jansa,karon,mvringo","pagtukod","f","5","html-keyboard-response","1119","f","pagtukod","true","",""
"1741","","","","","5","html-slider-response","1120","","","","2",""
"3012","rose","singizi,mwanake,amani,paghalad","paghalad","n","5","html-keyboard-response","1121","n","paghalad","true","",""
"1429","","","","","5","html-slider-response","1122","","","","3",""
"1838","hill","matumbo,kushoto,kukimba,sweta","matumbo","f","5","html-keyboard-response","1123","f","matumbo","true","",""
"1316","","","","","5","html-slider-response","1124","","","","5",""
"3617","train","sayari,itik,dakika,mungu","sayari","f","5","html-keyboard-response","1125","f","sayari","true","",""
"1328","","","","","5","html-slider-response","1126","","","","4",""
"2660","shop","nopya,kerida,ndezu,samaki","samaki","n","5","html-keyboard-response","1127","n","samaki","true","",""
"1740","","","","","5","html-slider-response","1128","","","","4",""
"3256","nose","gubat,kopa,sehemu,kidole","sehemu","j","5","html-keyboard-response","1129","j","sehemu","true","",""
"1497","","","","","5","html-slider-response","1130","","","","4",""
"2939","boat","hamsi,pombe,kitanda,agalon","agalon","n","5","html-keyboard-response","1131","n","agalon","true","",""
"1399","","","","","5","html-slider-response","1132","","","","4",""
"2568","body","tindashan,nyundu,jibini,kununa","tindashan","f","5","html-keyboard-response","1133","f","tindashan","true","",""
"1258","","","","","5","html-slider-response","1134","","","","5",""
"2084","bed","kalipay,mapintas,haraka,starehe","mapintas","v","5","html-keyboard-response","1135","v","mapintas","true","",""
"1246","","","","","5","html-slider-response","1136","","","","5",""
"2152","squirrel","mahugaw,hofu,ukweli,kichwa","hofu","v","5","html-keyboard-response","1137","v","hofu","true","",""
"1501","","","","","5","html-slider-response","1138","","","","2",""
"4174","window","nanga,kujenga,umaga,kweli","kweli","n","5","html-keyboard-response","1139","n","kweli","true","",""
"2363","","","","","5","html-slider-response","1140","","","","3",""
"4110","bonfire","mwezi,mfuko,goti,kusanya","goti","j","5","html-keyboard-response","1141","j","goti","true","",""
"1370","","","","","5","html-slider-response","1142","","","","4",""
"6743","fish","bala,buli,baho,imani","buli","v","5","html-keyboard-response","1143","f","bala","false","",""
"1587","","","","","5","html-slider-response","1144","","","","2",""
"3063","cat","paghukom,neyemba,baki,akili","paghukom","f","5","html-keyboard-response","1145","f","paghukom","true","",""
"1368","","","","","5","html-slider-response","1146","","","","4",""
"2560","spider","bunyag,kamwe,mkboa,atop","kamwe","v","5","html-keyboard-response","1147","v","kamwe","true","",""
"1350","","","","","5","html-slider-response","1148","","","","5",""
"3885","eel","ishara,kunywa,msumari,kabuang","msumari","j","5","html-keyboard-response","1149","j","msumari","true","",""
"1746","","","","","5","html-slider-response","1150","","","","3",""
"2787","woman","bandari,bituin,pagtabon,kovuli","pagtabon","j","5","html-keyboard-response","1151","j","pagtabon","true","",""
"1511","","","","","5","html-slider-response","1152","","","","5",""
"14420","magazine","gundi,mchawi,bahandi,kiti","kiti","n","5","html-keyboard-response","1153","j","bahandi","false","",""
"1893","","","","","5","html-slider-response","1154","","","","1",""
"1844","pudding","aibu,abug,mpishi,iring","aibu","f","5","html-keyboard-response","1155","f","aibu","true","",""
"1421","","","","","5","html-slider-response","1156","","","","5",""
"3887","lamp","afya,daub,bilaska,mbolea","afya","f","5","html-keyboard-response","1157","f","afya","true","",""
"1301","","","","","5","html-slider-response","1158","","","","2",""
"1835","cave","ganti,maisha,kesho,nyundo","kesho","j","5","html-keyboard-response","1159","j","kesho","true","",""
"2437","","","","","5","html-slider-response","1160","","","","5",""
"3110","shoulder","kelele,ndaniya,mkuu,guruwe","mkuu","j","5","html-keyboard-response","1161","j","mkuu","true","",""
"2426","","","","","5","html-slider-response","1162","","","","5",""
"1954","stone","ulimwengu,mkasi,asili,wingi","wingi","n","5","html-keyboard-response","1163","n","wingi","true","",""
"1355","","","","","5","html-slider-response","1164","","","","5",""
"2061","column","pundok,dila,ufagio,pala","ufagio","j","5","html-keyboard-response","1165","j","ufagio","true","",""
"2208","","","","","5","html-slider-response","1166","","","","5",""
"4653","page","wakala,ishiri,wimbo,skina","wimbo","j","5","html-keyboard-response","1167","j","wimbo","true","",""
"1600","","","","","5","html-slider-response","1168","","","","1",""
"5365","shoe","nyeusi,hatua,uyoga,kama","uyoga","j","5","html-keyboard-response","1169","n","kama","false","",""
"1705","","","","","5","html-slider-response","1170","","","","1",""
"3625","clock","mbwa,kartasi,abang,osha","mbwa","f","5","html-keyboard-response","1171","f","mbwa","true","",""
"1392","","","","","5","html-slider-response","1172","","","","5",""
"7873","towel","tembo,funzi,pagpalit,pito","pagpalit","j","5","html-keyboard-response","1173","j","pagpalit","true","",""
"2413","","","","","5","html-slider-response","1174","","","","5",""
"2424","tomato","chupi,chupa,takatak,mvua","mvua","n","5","html-keyboard-response","1175","n","mvua","true","",""
"1463","","","","","5","html-slider-response","1176","","","","5",""
"3402","bucket","baga,ijayo,init,kiatu","kiatu","n","5","html-keyboard-response","1177","n","kiatu","true","",""
"1643","","","","","5","html-slider-response","1178","","","","1",""
"2479","finger","simu,moyo,sufuria,lima","moyo","v","5","html-keyboard-response","1179","v","moyo","true","",""
"1343","","","","","5","html-slider-response","1180","","","","5",""
"2633","mother","kahawa,babaye,mbuzi,jokofu","babaye","v","5","html-keyboard-response","1181","v","babaye","true","",""
"1767","","","","","5","html-slider-response","1182","","","","5",""
"2462","human","bado,tinapay,kikapu,punguza","tinapay","v","5","html-keyboard-response","1183","v","tinapay","true","",""
"1977","","","","","5","html-slider-response","1184","","","","5",""
"1821","sun","bendi,luha,uongo,basi","basi","n","5","html-keyboard-response","1185","n","basi","true","",""
"1680","","","","","5","html-slider-response","1186","","","","5",""
"5289","fork","baboy,mgonjwa,paghago,gorisi","mgonjwa","v","5","html-keyboard-response","1187","n","gorisi","false","",""
"1386","","","","","5","html-slider-response","1188","","","","2",""
"3752","donkey","bloke,elfu,lalake,rombus","elfu","v","5","html-keyboard-response","1189","v","elfu","true","",""
"1840","","","","","5","html-slider-response","1190","","","","5",""
"2386","wolf","kaburi,lugha,ndizi,mchuzi","lugha","v","5","html-keyboard-response","1191","v","lugha","true","",""
"1368","","","","","5","html-slider-response","1192","","","","5",""
"3276","cigar","ndugu,kuta,adhabu,mlango","adhabu","j","5","html-keyboard-response","1193","j","adhabu","true","",""
"1289","","","","","5","html-slider-response","1194","","","","4",""
"19127","olive","bata,siagi,welder,jiwe","jiwe","n","5","html-keyboard-response","1195","n","jiwe","true","",""
"1692","","","","","5","html-slider-response","1196","","","","5",""
"2253","key","miaka,goma,ahos,chombo","chombo","n","5","html-keyboard-response","1197","n","chombo","true","",""
"1991","","","","","5","html-slider-response","1198","","","","5",""
"12241","door","tena,surali,soko,nyota","surali","v","5","html-keyboard-response","1199","v","surali","true","",""
"1896","","","","","5","html-slider-response","1200","","","","3",""
"3457","wheel","punda,tawo,baadaye,bafuni","bafuni","n","5","html-keyboard-response","1201","n","bafuni","true","",""
"1356","","","","","5","html-slider-response","1202","","","","2",""
"3315","basket","kumbuka,utepe,hasira,kumba","kumba","n","5","html-keyboard-response","1203","n","kumba","true","",""
"2299","","","","","5","html-slider-response","1204","","","","1",""
"2107","elephant","petye,kito,pagduol,suka","kito","v","5","html-keyboard-response","1205","v","kito","true","",""
"1765","","","","","5","html-slider-response","1206","","","","5",""
"2705","office","leso,hazini,yatima,kuna","leso","f","5","html-keyboard-response","1207","f","leso","true","",""
"2870","","","","","5","html-slider-response","1208","","","","5",""
"2501","music","mraba,baiski,mageho,tumbo","baiski","v","5","html-keyboard-response","1209","v","baiski","true","",""
"2484","","","","","5","html-slider-response","1210","","","","5",""
"5433","tissue","lamigas,kisiwa,katika,ugomvi","ugomvi","n","5","html-keyboard-response","1211","v","kisiwa","false","",""
"1733","","","","","5","html-slider-response","1212","","","","1",""
"4929","curtain","lisud,bulwawan,chubani,mchanga","mchanga","n","5","html-keyboard-response","1213","v","bulwawan","false","",""
"1459","","","","","5","html-slider-response","1214","","","","2",""
"2906","flag","ndege,mkate,kawa,trekta","trekta","n","5","html-keyboard-response","1215","n","trekta","true","",""
"1611","","","","","5","html-slider-response","1216","","","","5",""
"2222","dog","lubi,bahari,washia,kalamu","bahari","v","5","html-keyboard-response","1217","v","bahari","true","",""
"1830","","","","","5","html-slider-response","1218","","","","5",""
"2480","cup","dagat,shimoni,jeraha,matumai","matumai","n","5","html-keyboard-response","1219","n","matumai","true","",""
"1927","","","","","5","html-slider-response","1220","","","","4",""
"2141","sheet","bililhon,juuya,watu,kamantis","bililhon","f","5","html-keyboard-response","1221","f","bililhon","true","",""
"2004","","","","","5","html-slider-response","1222","","","","5",""
"3213","spoon","betri,nzuri,ngazi,pagsulod","pagsulod","n","5","html-keyboard-response","1223","n","pagsulod","true","",""
"1708","","","","","5","html-slider-response","1224","","","","2",""
"3490","flower","tamasha,lobo,bega,usiku","bega","j","5","html-keyboard-response","1225","j","bega","true","",""
"2803","","","","","5","html-slider-response","1226","","","","5",""
"4556","picture","silya,chaki,kubwa,asin","kubwa","j","5","html-keyboard-response","1227","j","kubwa","true","",""
"1763","","","","","5","html-slider-response","1228","","","","1",""
"6410","puppet","napulo,lamok,godoro,mazishi","mazishi","n","5","html-keyboard-response","1229","n","mazishi","true","",""
"1550","","","","","5","html-slider-response","1230","","","","2",""
"2697","banana","kasamok,kazi,hagdan,twai","kazi","v","5","html-keyboard-response","1231","v","kazi","true","",""
"2068","","","","","5","html-slider-response","1232","","","","5",""
"2349","book","kuhesa,mali,picha,mara","mali","v","5","html-keyboard-response","1233","v","mali","true","",""
"1492","","","","","5","html-slider-response","1234","","","","5",""
"2875","triangle","kihozi,bentaha,liog,kasadpan","kasadpan","n","5","html-keyboard-response","1235","f","kihozi","false","",""
"1565","","","","","5","html-slider-response","1236","","","","1",""
"2495","poster","madungog,nchi,fedha,kasuko","madungog","f","5","html-keyboard-response","1237","f","madungog","true","",""
"1709","","","","","5","html-slider-response","1238","","","","3",""
"3247","box","kuacha,rafiki,kitande,adui","adui","n","5","html-keyboard-response","1239","n","adui","true","",""
"1356","","","","","5","html-slider-response","1240","","","","4",""
"2184","mosquito","martilyo,isda,taras,gutom","martilyo","f","5","html-keyboard-response","1241","f","martilyo","true","",""
"1884","","","","","5","html-slider-response","1242","","","","5",""
"3383","shelf","bungtod,pamahaw,kadaot,awit","pamahaw","v","5","html-keyboard-response","1243","v","pamahaw","true","",""
"1858","","","","","5","html-slider-response","1244","","","","5",""
"7417","scissors","duga,mtawa,suga,tanuri","tanuri","n","5","html-keyboard-response","1245","n","tanuri","true","",""
"2221","","","","","5","html-slider-response","1246","","","","5",""
"7778","hammer","mekno,kitovu,layag,napakyas","napakyas","n","5","html-keyboard-response","1247","n","napakyas","true","",""
"1394","","","","","5","html-slider-response","1248","","","","4",""
