"rt","en_word","options","swa_word","correct_answer","phase","trial_type","trial_index","input_answer","input_word","accuracy","certainty","amt_choices"
"2318","bonfire","mwezi,mfuko,kusanya,goti","goti","n","2","html-keyboard-response","106","n","goti","true","",""
"2628.100000023842","","","","","2","html-slider-response","107","","","","4",""
"1704","flower","bega,tamasha,lobo,usiku","bega","f","2","html-keyboard-response","108","v","tamasha","false","",""
"2172.600000023842","","","","","2","html-slider-response","109","","","","1",""
"1968","column","pundok,dila,pala,ufagio","ufagio","n","2","html-keyboard-response","110","f","pundok","false","",""
"2012.699999988079","","","","","2","html-slider-response","111","","","","1",""
"4256","music","baiski,mraba,mageho,tumbo","baiski","f","2","html-keyboard-response","112","v","mraba","false","",""
"1772.3999999761581","","","","","2","html-slider-response","113","","","","2",""
"3312","spider","bunyag,mkboa,kamwe,atop","kamwe","j","2","html-keyboard-response","114","v","mkboa","false","",""
"2220.099999964237","","","","","2","html-slider-response","115","","","","1",""
"3936","fork","baboy,paghago,gorisi,mgonjwa","mgonjwa","n","2","html-keyboard-response","116","v","paghago","false","",""
"2212.199999988079","","","","","2","html-slider-response","117","","","","2",""
"3128","mosquito","isda,taras,gutom,martilyo","martilyo","n","2","html-keyboard-response","118","n","martilyo","true","",""
"3028.199999988079","","","","","2","html-slider-response","119","","","","4",""
"3352","banana","kazi,kasamok,hagdan,twai","kazi","f","2","html-keyboard-response","120","f","kazi","true","",""
"2028.3999999761581","","","","","2","html-slider-response","121","","","","4",""
"3072","cup","dagat,shimoni,matumai,jeraha","matumai","j","2","html-keyboard-response","122","v","shimoni","false","",""
"1691.1000000238419","","","","","2","html-slider-response","123","","","","1",""
"2816","shop","nopya,kerida,ndezu,samaki","samaki","n","2","html-keyboard-response","124","v","kerida","false","",""
"1812.5","","","","","2","html-slider-response","125","","","","1",""
"2232","elephant","petye,kito,pagduol,suka","kito","v","2","html-keyboard-response","126","v","kito","true","",""
"1940.5","","","","","2","html-slider-response","127","","","","4",""
"2488","bucket","baga,kiatu,ijayo,init","kiatu","v","2","html-keyboard-response","128","v","kiatu","true","",""
"2868","","","","","2","html-slider-response","129","","","","1",""
"2456","book","kuhesa,picha,mara,mali","mali","n","2","html-keyboard-response","130","v","picha","false","",""
"1685.800000011921","","","","","2","html-slider-response","131","","","","1",""
"1929","mirror","sulagma,rangi,kanding,furaha","sulagma","f","2","html-keyboard-response","132","v","rangi","false","",""
"1516.5","","","","","2","html-slider-response","133","","","","1",""
"2577","office","hazini,yatima,kuna,leso","leso","n","2","html-keyboard-response","134","v","yatima","false","",""
"1628.7000000476837","","","","","2","html-slider-response","135","","","","1",""
"2705","body","tindashan,nyundu,jibini,kununa","tindashan","f","2","html-keyboard-response","136","v","nyundu","false","",""
"1556.5","","","","","2","html-slider-response","137","","","","1",""
"2457","perfume","bino,sungura,katuyoan,ndogo","katuyoan","j","2","html-keyboard-response","138","v","sungura","false","",""
"1564.0999999642372","","","","","2","html-slider-response","139","","","","1",""
"2592","olive","bata,siagi,welder,jiwe","jiwe","n","2","html-keyboard-response","140","v","siagi","false","",""
"1740.5","","","","","2","html-slider-response","141","","","","1",""
"2496","magazine","gundi,mchawi,bahandi,kiti","kiti","n","2","html-keyboard-response","142","v","mchawi","false","",""
"1524.5","","","","","2","html-slider-response","143","","","","1",""
"10297","bread","kaili,dizeli,bugas,dari","dari","n","2","html-keyboard-response","144","v","dizeli","false","",""
"1571.5","","","","","2","html-slider-response","145","","","","1",""
"4888","cave","ganti,kesho,maisha,nyundo","kesho","v","2","html-keyboard-response","146","v","kesho","true","",""
"1987.699999988079","","","","","2","html-slider-response","147","","","","1",""
"968","ladder","mashua,mwanga,pangalan,kamba","pangalan","j","2","html-keyboard-response","148","v","mwanga","false","",""
"1420.5","","","","","2","html-slider-response","149","","","","1",""
"4128","human","bado,kikapu,tinapay,punguza","tinapay","j","2","html-keyboard-response","150","v","kikapu","false","",""
"8603.699999988079","","","","","2","html-slider-response","151","","","","3",""
"2271","clock","kartasi,mbwa,abang,osha","mbwa","v","2","html-keyboard-response","152","v","mbwa","true","",""
"2108.199999988079","","","","","2","html-slider-response","153","","","","1",""
"1232","shelf","bungtod,pamahaw,kadaot,awit","pamahaw","v","2","html-keyboard-response","154","v","pamahaw","true","",""
"1804.5","","","","","2","html-slider-response","155","","","","1",""
"2384","salmon","sensilyo,mzungu,seri,baharia","sensilyo","f","2","html-keyboard-response","156","v","mzungu","false","",""
"1546.4000000357628","","","","","2","html-slider-response","157","","","","1",""
"3744","coffin","barua,kioo,tubag,hulma","kioo","v","2","html-keyboard-response","158","v","kioo","true","",""
"1843.1000000238419","","","","","2","html-slider-response","159","","","","1",""
"2104","notebook","msitu,kila,kemia,mdudu","kemia","j","2","html-keyboard-response","160","v","kila","false","",""
"3124.7000000476837","","","","","2","html-slider-response","161","","","","1",""
"1352","shoulder","mkuu,kelele,ndaniya,guruwe","mkuu","f","2","html-keyboard-response","162","v","kelele","false","",""
"2844.900000035763","","","","","2","html-slider-response","163","","","","1",""
"1312","park","bunifu,tambok,pwani,ihalas","bunifu","f","2","html-keyboard-response","164","v","tambok","false","",""
"1636.699999988079","","","","","2","html-slider-response","165","","","","1",""
"1848","number","shule,kengele,choori,mundamo","mundamo","n","2","html-keyboard-response","166","v","kengele","false","",""
"1708.5","","","","","2","html-slider-response","167","","","","1",""
"2944","apple","ukame,kisu,estante,edad","kisu","v","2","html-keyboard-response","168","v","kisu","true","",""
"2588.399999976158","","","","","2","html-slider-response","169","","","","3",""
"2176","letter","filimbi,chuma,kifua,uhuru","kifua","j","2","html-keyboard-response","170","v","chuma","false","",""
"1564.1000000238419","","","","","2","html-slider-response","171","","","","1",""
"4192","eel","ishara,kunywa,msumari,kabuang","msumari","j","2","html-keyboard-response","172","j","msumari","true","",""
"1388","","","","","2","html-slider-response","173","","","","4",""
"1808","cop","bustani,jikoni,bakus,mechezo","mechezo","n","2","html-keyboard-response","174","v","jikoni","false","",""
"1700.699999988079","","","","","2","html-slider-response","175","","","","1",""
"1576","wolf","lugha,kaburi,ndizi,mchuzi","lugha","f","2","html-keyboard-response","176","v","kaburi","false","",""
"1796.300000011921","","","","","2","html-slider-response","177","","","","1",""
"2284","squirrel","hofu,mahugaw,ukweli,kichwa","hofu","f","2","html-keyboard-response","178","v","mahugaw","false","",""
"1619.800000011921","","","","","2","html-slider-response","179","","","","1",""
"1112","nose","sehemu,gubat,kopa,kidole","sehemu","f","2","html-keyboard-response","180","v","gubat","false","",""
"1404.4000000357628","","","","","2","html-slider-response","181","","","","1",""
"1344","sock","ndoora,kimysa,mamba,mtirka","mamba","j","2","html-keyboard-response","182","v","kimysa","false","",""
"1372.5","","","","","2","html-slider-response","183","","","","1",""
"2752","bank","kudhibi,silingan,tualya,ofisi","silingan","v","2","html-keyboard-response","184","v","silingan","true","",""
"1451.800000011921","","","","","2","html-slider-response","185","","","","1",""
"2288","donkey","bloke,elfu,lalake,rombus","elfu","v","2","html-keyboard-response","186","v","elfu","true","",""
"1643.6000000238419","","","","","2","html-slider-response","187","","","","1",""
"2288","poster","nchi,fedha,madungog,kasuko","madungog","j","2","html-keyboard-response","188","v","fedha","false","",""
"1914.7000000476837","","","","","2","html-slider-response","189","","","","1",""
"1200","puppet","mazishi,napulo,lamok,godoro","mazishi","f","2","html-keyboard-response","190","v","napulo","false","",""
"1547.800000011921","","","","","2","html-slider-response","191","","","","1",""
"1504","hill","kushoto,kukimba,matumbo,sweta","matumbo","j","2","html-keyboard-response","192","v","kukimba","false","",""
"1715.6000000238419","","","","","2","html-slider-response","193","","","","1",""
"1496","tooth","kijiko,uadui,pahiyum,kabalaka","kabalaka","n","2","html-keyboard-response","194","v","uadui","false","",""
"1812.1000000238419","","","","","2","html-slider-response","195","","","","1",""
"3912","woman","bandari,pagtabon,bituin,kovuli","pagtabon","v","2","html-keyboard-response","196","f","bandari","false","",""
"1931.199999988079","","","","","2","html-slider-response","197","","","","2",""
"1344","wheel","punda,tawo,baadaye,bafuni","bafuni","n","2","html-keyboard-response","198","v","tawo","false","",""
"1436.0999999642372","","","","","2","html-slider-response","199","","","","1",""
"1232","mother","kahawa,mbuzi,jokofu,babaye","babaye","n","2","html-keyboard-response","200","v","mbuzi","false","",""
"1380.0999999642372","","","","","2","html-slider-response","201","","","","1",""
"936","bed","kalipay,haraka,mapintas,starehe","mapintas","j","2","html-keyboard-response","202","v","haraka","false","",""
"1315.8999999761581","","","","","2","html-slider-response","203","","","","1",""
"1656","key","miaka,chombo,goma,ahos","chombo","v","2","html-keyboard-response","204","v","chombo","true","",""
"1308.2999999523163","","","","","2","html-slider-response","205","","","","1",""
"1696","page","wakala,ishiri,wimbo,skina","wimbo","j","2","html-keyboard-response","206","v","ishiri","false","",""
"1972.2999999523163","","","","","2","html-slider-response","207","","","","1",""
"1272","pants","pintal,haki,chuki,hari","haki","v","2","html-keyboard-response","208","v","haki","true","",""
"2460.5","","","","","2","html-slider-response","209","","","","1",""
"1408","sun","basi,bendi,luha,uongo","basi","f","2","html-keyboard-response","210","v","bendi","false","",""
"1716.300000011921","","","","","2","html-slider-response","211","","","","1",""
"1383","finger","simu,moyo,sufuria,lima","moyo","v","2","html-keyboard-response","212","v","moyo","true","",""
"1390.3999999761581","","","","","2","html-slider-response","213","","","","1",""
"896","shoe","uyoga,nyeusi,hatua,kama","uyoga","f","2","html-keyboard-response","214","v","nyeusi","false","",""
"1444.5","","","","","2","html-slider-response","215","","","","1",""
"840","giraffe","daraja,jumatu,mahitabo,hangyo","mahitabo","j","2","html-keyboard-response","216","v","jumatu","false","",""
"1388","","","","","2","html-slider-response","217","","","","1",""
"3713","dog","bahari,lubi,washia,kalamu","bahari","f","2","html-keyboard-response","218","j","washia","false","",""
"2131.5","","","","","2","html-slider-response","219","","","","3",""
"1400","box","kuacha,rafiki,kitande,adui","adui","n","2","html-keyboard-response","220","v","rafiki","false","",""
"1148.5","","","","","2","html-slider-response","221","","","","1",""
"1248","scissors","duga,mtawa,tanuri,suga","tanuri","j","2","html-keyboard-response","222","v","mtawa","false","",""
"1348.199999988079","","","","","2","html-slider-response","223","","","","1",""
"3176","cat","neyemba,baki,akili,paghukom","paghukom","n","2","html-keyboard-response","224","v","baki","false","",""
"2811.900000035763","","","","","2","html-slider-response","225","","","","3",""
"1104","basket","kumbuka,kumba,utepe,hasira","kumba","v","2","html-keyboard-response","226","v","kumba","true","",""
"1932.4000000357628","","","","","2","html-slider-response","227","","","","1",""
"3792","snake","jansa,pagtukod,karon,mvringo","pagtukod","v","2","html-keyboard-response","228","v","pagtukod","true","",""
"1419.6000000238419","","","","","2","html-slider-response","229","","","","4",""
"2544","gift","baba,nyange,baso,pagtawag","pagtawag","n","2","html-keyboard-response","230","v","nyange","false","",""
"1372.1000000238419","","","","","2","html-slider-response","231","","","","1",""
"1632","train","sayari,itik,dakika,mungu","sayari","f","2","html-keyboard-response","232","v","itik","false","",""
"1548.199999988079","","","","","2","html-slider-response","233","","","","1",""
"1552","pudding","aibu,abug,mpishi,iring","aibu","f","2","html-keyboard-response","234","v","abug","false","",""
"1747.1000000238419","","","","","2","html-slider-response","235","","","","1",""
"1576","tomato","chupi,chupa,mvua,takatak","mvua","j","2","html-keyboard-response","236","v","chupa","false","",""
"1436.199999988079","","","","","2","html-slider-response","237","","","","1",""
"1232","stone","ulimwengu,wingi,mkasi,asili","wingi","v","2","html-keyboard-response","238","v","wingi","true","",""
"1284.300000011921","","","","","2","html-slider-response","239","","","","1",""
"1624","hammer","mekno,napakyas,kitovu,layag","napakyas","v","2","html-keyboard-response","240","v","napakyas","true","",""
"1324.300000011921","","","","","2","html-slider-response","241","","","","1",""
"1904","knee","duka,mvuke,kubale,bili","duka","f","2","html-keyboard-response","242","v","mvuke","false","",""
"1403.800000011921","","","","","2","html-slider-response","243","","","","1",""
"1008","ceiling","kugita,kawaida,rayna,maua","maua","n","2","html-keyboard-response","244","v","kawaida","false","",""
"1276","","","","","2","html-slider-response","245","","","","1",""
"1072","spoon","betri,pagsulod,nzuri,ngazi","pagsulod","v","2","html-keyboard-response","246","v","pagsulod","true","",""
"1316.7000000476837","","","","","2","html-slider-response","247","","","","1",""
"4312","marker","mapafu,maji,salita,atay","maji","v","2","html-keyboard-response","248","v","maji","true","",""
"2803.5","","","","","2","html-slider-response","249","","","","1",""
"1688","candle","geza,gabi,farasi,kupanda","geza","f","2","html-keyboard-response","250","v","gabi","false","",""
"4268.699999988079","","","","","2","html-slider-response","251","","","","1",""
"1456","tissue","lamigas,ugomvi,kisiwa,katika","ugomvi","v","2","html-keyboard-response","252","v","ugomvi","true","",""
"1758.8999999761581","","","","","2","html-slider-response","253","","","","1",""
"672","bridge","daima,ngono,panya,sahani","sahani","n","2","html-keyboard-response","254","v","ngono","false","",""
"1820.699999988079","","","","","2","html-slider-response","255","","","","1",""
"7713","berry","kofia,abogado,nogozi,kinywa","kofia","f","2","html-keyboard-response","256","v","abogado","false","",""
"2003.5","","","","","2","html-slider-response","257","","","","1",""
"2137","triangle","kihozi,bentaha,kasadpan,liog","kasadpan","j","2","html-keyboard-response","258","v","bentaha","false","",""
"1595.699999988079","","","","","2","html-slider-response","259","","","","1",""
"816","door","tena,surali,soko,nyota","surali","v","2","html-keyboard-response","260","v","surali","true","",""
"1332.5","","","","","2","html-slider-response","261","","","","1",""
"12648","fish","bala,baho,buli,imani","buli","j","2","html-keyboard-response","262","f","bala","false","",""
"2883.5","","","","","2","html-slider-response","263","","","","3",""
"2568","curtain","lisud,mchanga,bulwawan,chubani","mchanga","v","2","html-keyboard-response","264","v","mchanga","true","",""
"1900.6000000238419","","","","","2","html-slider-response","265","","","","1",""
"1153","flag","ndege,mkate,trekta,kawa","trekta","j","2","html-keyboard-response","266","v","mkate","false","",""
"1172","","","","","2","html-slider-response","267","","","","1",""
"1704","boat","hamsi,agalon,pombe,kitanda","agalon","v","2","html-keyboard-response","268","v","agalon","true","",""
"1947.4000000357628","","","","","2","html-slider-response","269","","","","1",""
"2400","rose","singizi,mwanake,paghalad,amani","paghalad","j","2","html-keyboard-response","270","v","mwanake","false","",""
"2180.099999964237","","","","","2","html-slider-response","271","","","","1",""
"62711","lamp","daub,afya,bilaska,mbolea","afya","v","2","html-keyboard-response","272","v","afya","true","",""
"2177","","","","","2","html-slider-response","273","","","","1",""
"968","cigar","adhabu,ndugu,kuta,mlango","adhabu","f","2","html-keyboard-response","274","v","ndugu","false","",""
"1531.8999999761581","","","","","2","html-slider-response","275","","","","1",""
"639","list","wingu,alizeti,kuzama,kaso","wingu","f","2","html-keyboard-response","276","v","alizeti","false","",""
"1684.0999999642372","","","","","2","html-slider-response","277","","","","1",""
"1193","sheet","juuya,bililhon,watu,kamantis","bililhon","v","2","html-keyboard-response","278","v","bililhon","true","",""
"1491.5999999642372","","","","","2","html-slider-response","279","","","","1",""
"856","picture","silya,kubwa,chaki,asin","kubwa","v","2","html-keyboard-response","280","v","kubwa","true","",""
"1285.199999988079","","","","","2","html-slider-response","281","","","","1",""
"664","towel","tembo,funzi,pito,pagpalit","pagpalit","n","2","html-keyboard-response","282","v","funzi","false","",""
"1677.1000000238419","","","","","2","html-slider-response","283","","","","1",""
"1473","window","nanga,kujenga,kweli,umaga","kweli","j","2","html-keyboard-response","284","v","kujenga","false","",""
"1412.5999999642372","","","","","2","html-slider-response","285","","","","1",""
"3338","box","kuacha,rafiki,kitande,adui","adui","n","3","html-keyboard-response","293","v","rafiki","false","","4"
"1788.1000000238419","","","","","3","html-slider-response","294","","","","1",""
"3472","","","","","3","html-keyboard-response","295","","","","",""
"2733","pants","pintal,haki,chuki,hari","haki","v","3","html-keyboard-response","296","f","pintal","false","","4"
"2132.300000011921","","","","","3","html-slider-response","297","","","","1",""
"4072","","","","","3","html-keyboard-response","298","","","","",""
"3085","cup","dagat,shimoni,matumai,jeraha","matumai","j","3","html-keyboard-response","299","f","dagat","false","","4"
"2036.300000011921","","","","","3","html-slider-response","300","","","","1",""
"1848","","","","","3","html-keyboard-response","301","","","","",""
"3566","triangle","kihozi,kasadpan,bentaha,liog","kasadpan","v","3","html-keyboard-response","302","j","bentaha","false","","4"
"1844.6000000238419","","","","","3","html-slider-response","303","","","","1",""
"1383","","","","","3","html-keyboard-response","304","","","","",""
"4365","curtain","lisud,bulwawan,chubani,mchanga","mchanga","n","3","html-keyboard-response","305","n","mchanga","true","","4"
"1851.5","","","","","3","html-slider-response","306","","","","1",""
"1888","","","","","3","html-keyboard-response","307","","","","",""
"6910","clock","kartasi,abang,mbwa,osha","mbwa","j","3","html-keyboard-response","308","n","osha","false","","4"
"2027.3999999761581","","","","","3","html-slider-response","309","","","","1",""
"1056","","","","","3","html-keyboard-response","310","","","","",""
"4285","mirror","rangi,sulagma,kanding,furaha","sulagma","v","3","html-keyboard-response","311","v","sulagma","true","","4"
"2350.600000023842","","","","","3","html-slider-response","312","","","","1",""
"1185","","","","","3","html-keyboard-response","313","","","","",""
"2028","coffin","barua,kioo,tubag,hulma","kioo","v","3","html-keyboard-response","314","v","kioo","true","","1"
"2091.699999988079","","","","","3","html-slider-response","315","","","","5",""
"1072","","","","","3","html-keyboard-response","316","","","","",""
"3821","magazine","gundi,kiti,mchawi,bahandi","kiti","v","3","html-keyboard-response","317","n","bahandi","false","","4"
"2276.400000035763","","","","","3","html-slider-response","318","","","","1",""
"1079","","","","","3","html-keyboard-response","319","","","","",""
"2989","column","pundok,dila,pala,ufagio","ufagio","n","3","html-keyboard-response","320","n","ufagio","true","","1"
"2275.900000035763","","","","","3","html-slider-response","321","","","","5",""
"1160","","","","","3","html-keyboard-response","322","","","","",""
"4989","number","shule,mundamo,kengele,choori","mundamo","v","3","html-keyboard-response","323","n","choori","false","","4"
"1964","","","","","3","html-slider-response","324","","","","1",""
"1040","","","","","3","html-keyboard-response","325","","","","",""
"2686","rose","singizi,mwanake,paghalad,amani","paghalad","j","3","html-keyboard-response","326","n","amani","false","","4"
"2588.400000035763","","","","","3","html-slider-response","327","","","","2",""
"896","","","","","3","html-keyboard-response","328","","","","",""
"3214","eel","ishara,msumari,kunywa,kabuang","msumari","v","3","html-keyboard-response","329","v","msumari","true","","4"
"1747.4000000357628","","","","","3","html-slider-response","330","","","","4",""
"3304","","","","","3","html-keyboard-response","331","","","","",""
"2766","gift","baba,pagtawag,nyange,baso","pagtawag","v","3","html-keyboard-response","332","n","baso","false","","4"
"1908.800000011921","","","","","3","html-slider-response","333","","","","2",""
"1016","","","","","3","html-keyboard-response","334","","","","",""
"1918","apple","ukame,estante,kisu,edad","kisu","j","3","html-keyboard-response","335","j","kisu","true","","1"
"2172.899999976158","","","","","3","html-slider-response","336","","","","5",""
"1711","","","","","3","html-keyboard-response","337","","","","",""
"1728","wheel","punda,tawo,bafuni,baadaye","bafuni","j","3","html-keyboard-response","338","j","bafuni","true","","1"
"2500.099999964237","","","","","3","html-slider-response","339","","","","5",""
"4537","","","","","3","html-keyboard-response","340","","","","",""
"2269","knee","mvuke,kubale,duka,bili","duka","j","3","html-keyboard-response","341","n","bili","false","","4"
"2956.5","","","","","3","html-slider-response","342","","","","1",""
"752","","","","","3","html-keyboard-response","343","","","","",""
"2013","basket","kumbuka,utepe,kumba,hasira","kumba","j","3","html-keyboard-response","344","j","kumba","true","","1"
"2340.400000035763","","","","","3","html-slider-response","345","","","","5",""
"1176","","","","","3","html-keyboard-response","346","","","","",""
"3069","park","tambok,pwani,bunifu,ihalas","bunifu","j","3","html-keyboard-response","347","j","bunifu","true","","4"
"2660","","","","","3","html-slider-response","348","","","","1",""
"1400","","","","","3","html-keyboard-response","349","","","","",""
"4990","finger","simu,sufuria,lima,moyo","moyo","n","3","html-keyboard-response","350","n","moyo","true","","4"
"1757.1000000238419","","","","","3","html-slider-response","351","","","","1",""
"864","","","","","3","html-keyboard-response","352","","","","",""
"3309","boat","hamsi,agalon,pombe,kitanda","agalon","v","3","html-keyboard-response","353","n","kitanda","false","","4"
"2204.5","","","","","3","html-slider-response","354","","","","1",""
"1008","","","","","3","html-keyboard-response","355","","","","",""
"4446","hill","kushoto,kukimba,sweta,matumbo","matumbo","n","3","html-keyboard-response","356","f","kushoto","false","","4"
"2098.300000011921","","","","","3","html-slider-response","357","","","","1",""
"968","","","","","3","html-keyboard-response","358","","","","",""
"3581","train","itik,dakika,sayari,mungu","sayari","j","3","html-keyboard-response","359","v","dakika","false","","4"
"2099.800000011921","","","","","3","html-slider-response","360","","","","2",""
"952","","","","","3","html-keyboard-response","361","","","","",""
"5022","wolf","kaburi,ndizi,mchuzi,lugha","lugha","n","3","html-keyboard-response","362","j","mchuzi","false","","4"
"2915.2999999523163","","","","","3","html-slider-response","363","","","","2",""
"1288","","","","","3","html-keyboard-response","364","","","","",""
"7549","snake","jansa,karon,pagtukod,mvringo","pagtukod","j","3","html-keyboard-response","365","f","jansa","false","","4"
"1667.699999988079","","","","","3","html-slider-response","366","","","","2",""
"1864","","","","","3","html-keyboard-response","367","","","","",""
"5374","tooth","kijiko,uadui,kabalaka,pahiyum","kabalaka","j","3","html-keyboard-response","368","f","kijiko","false","","4"
"1780.3999999761581","","","","","3","html-slider-response","369","","","","2",""
"1176","","","","","3","html-keyboard-response","370","","","","",""
"2942","notebook","msitu,kila,kemia,mdudu","kemia","j","3","html-keyboard-response","371","n","mdudu","false","","4"
"2020.300000011921","","","","","3","html-slider-response","372","","","","2",""
"856","","","","","3","html-keyboard-response","373","","","","",""
"3374","flag","ndege,mkate,kawa,trekta","trekta","n","3","html-keyboard-response","374","n","trekta","true","","4"
"1572","","","","","3","html-slider-response","375","","","","2",""
"1272","","","","","3","html-keyboard-response","376","","","","",""
"7054","squirrel","mahugaw,ukweli,hofu,kichwa","hofu","j","3","html-keyboard-response","377","n","kichwa","false","","4"
"2212.199999988079","","","","","3","html-slider-response","378","","","","2",""
"728","","","","","3","html-keyboard-response","379","","","","",""
"2526","door","tena,surali,soko,nyota","surali","v","3","html-keyboard-response","380","j","soko","false","","4"
"1508.699999988079","","","","","3","html-slider-response","381","","","","2",""
"952","","","","","3","html-keyboard-response","382","","","","",""
"3470","salmon","mzungu,sensilyo,seri,baharia","sensilyo","v","3","html-keyboard-response","383","n","baharia","false","","4"
"3283.800000011921","","","","","3","html-slider-response","384","","","","3",""
"856","","","","","3","html-keyboard-response","385","","","","",""
"4366","shoulder","mkuu,kelele,ndaniya,guruwe","mkuu","f","3","html-keyboard-response","386","f","mkuu","true","","4"
"2004","","","","","3","html-slider-response","387","","","","2",""
"1512","","","","","3","html-keyboard-response","388","","","","",""
"3022","lamp","afya,daub,bilaska,mbolea","afya","f","3","html-keyboard-response","389","j","bilaska","false","","4"
"1670.6000000238419","","","","","3","html-slider-response","390","","","","2",""
"905","","","","","3","html-keyboard-response","391","","","","",""
"2493","shelf","bungtod,kadaot,awit,pamahaw","pamahaw","n","3","html-keyboard-response","392","n","pamahaw","true","","1"
"1908.5","","","","","3","html-slider-response","393","","","","5",""
"807","","","","","3","html-keyboard-response","394","","","","",""
"4237","human","tinapay,bado,kikapu,punguza","tinapay","f","3","html-keyboard-response","395","j","kikapu","false","","4"
"1819.8999999761581","","","","","3","html-slider-response","396","","","","2",""
"1568","","","","","3","html-keyboard-response","397","","","","",""
"2012","towel","tembo,funzi,pagpalit,pito","pagpalit","j","3","html-keyboard-response","398","n","pito","false","","4"
"1612.1000000238419","","","","","3","html-slider-response","399","","","","2",""
"720","","","","","3","html-keyboard-response","400","","","","",""
"2572","cat","neyemba,baki,paghukom,akili","paghukom","j","3","html-keyboard-response","401","v","baki","false","","4"
"1830.699999988079","","","","","3","html-slider-response","402","","","","2",""
"2744","","","","","3","html-keyboard-response","403","","","","",""
"4605","spider","bunyag,mkboa,atop,kamwe","kamwe","n","3","html-keyboard-response","404","n","kamwe","true","","4"
"1363.5","","","","","3","html-slider-response","405","","","","2",""
"888","","","","","3","html-keyboard-response","406","","","","",""
"8045","window","nanga,kujenga,umaga,kweli","kweli","n","3","html-keyboard-response","407","v","kujenga","false","","4"
"1827.7999999523163","","","","","3","html-slider-response","408","","","","2",""
"1352","","","","","3","html-keyboard-response","409","","","","",""
"1710","woman","pagtabon,bandari,bituin,kovuli","pagtabon","f","3","html-keyboard-response","410","f","pagtabon","true","","1"
"2389","","","","","3","html-slider-response","411","","","","5",""
"1640","","","","","3","html-keyboard-response","412","","","","",""
"3807","giraffe","mahitabo,daraja,jumatu,hangyo","mahitabo","f","3","html-keyboard-response","413","f","mahitabo","true","","4"
"1739.3999999761581","","","","","3","html-slider-response","414","","","","2",""
"1136","","","","","3","html-keyboard-response","415","","","","",""
"3312","elephant","petye,pagduol,suka,kito","kito","n","3","html-keyboard-response","416","n","kito","true","","4"
"1530.5999999642372","","","","","3","html-slider-response","417","","","","5",""
"688","","","","","3","html-keyboard-response","418","","","","",""
"3214","cave","kesho,ganti,maisha,nyundo","kesho","f","3","html-keyboard-response","419","v","ganti","false","","4"
"2508","","","","","3","html-slider-response","420","","","","3",""
"624","","","","","3","html-keyboard-response","421","","","","",""
"3470","bread","kaili,dari,dizeli,bugas","dari","v","3","html-keyboard-response","422","f","kaili","false","","4"
"1420.300000011921","","","","","3","html-slider-response","423","","","","2",""
"736","","","","","3","html-keyboard-response","424","","","","",""
"2590","stone","ulimwengu,mkasi,asili,wingi","wingi","n","3","html-keyboard-response","425","j","asili","false","","4"
"1621.9000000357628","","","","","3","html-slider-response","426","","","","2",""
"1272","","","","","3","html-keyboard-response","427","","","","",""
"5662","donkey","elfu,bloke,lalake,rombus","elfu","f","3","html-keyboard-response","428","f","elfu","true","","4"
"1900.2000000476837","","","","","3","html-slider-response","429","","","","2",""
"912","","","","","3","html-keyboard-response","430","","","","",""
"4894","bridge","daima,sahani,ngono,panya","sahani","v","3","html-keyboard-response","431","j","ngono","false","","4"
"2484.100000023842","","","","","3","html-slider-response","432","","","","2",""
"792","","","","","3","html-keyboard-response","433","","","","",""
"2974","bonfire","mwezi,mfuko,kusanya,goti","goti","n","3","html-keyboard-response","434","j","kusanya","false","","4"
"1531.7000000476837","","","","","3","html-slider-response","435","","","","2",""
"832","","","","","3","html-keyboard-response","436","","","","",""
"3006","book","mali,kuhesa,picha,mara","mali","f","3","html-keyboard-response","437","n","mara","false","","4"
"3411.300000011921","","","","","3","html-slider-response","438","","","","3",""
"1592","","","","","3","html-keyboard-response","439","","","","",""
"5967","fish","bala,baho,imani,buli","buli","n","3","html-keyboard-response","440","v","baho","false","","4"
"3358.699999988079","","","","","3","html-slider-response","441","","","","3",""
"976","","","","","3","html-keyboard-response","442","","","","",""
"3070","spoon","betri,nzuri,ngazi,pagsulod","pagsulod","n","3","html-keyboard-response","443","n","pagsulod","true","","4"
"2356","","","","","3","html-slider-response","444","","","","2",""
"1000","","","","","3","html-keyboard-response","445","","","","",""
"3149","scissors","duga,tanuri,mtawa,suga","tanuri","v","3","html-keyboard-response","446","n","suga","false","","4"
"1252","","","","","3","html-slider-response","447","","","","2",""
"663","","","","","3","html-keyboard-response","448","","","","",""
"3917","page","wakala,ishiri,wimbo,skina","wimbo","j","3","html-keyboard-response","449","f","wakala","false","","4"
"1579.7999999523163","","","","","3","html-slider-response","450","","","","2",""
"769","","","","","3","html-keyboard-response","451","","","","",""
"2029","nose","gubat,kopa,sehemu,kidole","sehemu","j","3","html-keyboard-response","452","j","sehemu","true","","1"
"1548.699999988079","","","","","3","html-slider-response","453","","","","5",""
"2112","","","","","3","html-keyboard-response","454","","","","",""
"18303","ceiling","kugita,maua,kawaida,rayna","maua","v","3","html-keyboard-response","455","v","maua","true","","4"
"2427.600000023842","","","","","3","html-slider-response","456","","","","4",""
"879","","","","","3","html-keyboard-response","457","","","","",""
"2656","bucket","baga,ijayo,kiatu,init","kiatu","j","3","html-keyboard-response","458","n","init","false","","4"
"1516.699999988079","","","","","3","html-slider-response","459","","","","2",""
"1008","","","","","3","html-keyboard-response","460","","","","",""
"1854","berry","abogado,kofia,nogozi,kinywa","kofia","v","3","html-keyboard-response","461","v","kofia","true","","1"
"2036.199999988079","","","","","3","html-slider-response","462","","","","5",""
"952","","","","","3","html-keyboard-response","463","","","","",""
"1517","mother","kahawa,mbuzi,babaye,jokofu","babaye","j","3","html-keyboard-response","464","j","babaye","true","","1"
"1924.699999988079","","","","","3","html-slider-response","465","","","","5",""
"1448","","","","","3","html-keyboard-response","466","","","","",""
"3503","mosquito","isda,taras,martilyo,gutom","martilyo","j","3","html-keyboard-response","467","j","martilyo","true","","4"
"1651.699999988079","","","","","3","html-slider-response","468","","","","4",""
"760","","","","","3","html-keyboard-response","469","","","","",""
"4398","perfume","bino,katuyoan,sungura,ndogo","katuyoan","v","3","html-keyboard-response","470","v","katuyoan","true","","4"
"1740","","","","","3","html-slider-response","471","","","","2",""
"1568","","","","","3","html-keyboard-response","472","","","","",""
"3310","sheet","juuya,bililhon,watu,kamantis","bililhon","v","3","html-keyboard-response","473","j","watu","false","","4"
"1356","","","","","3","html-slider-response","474","","","","2",""
"832","","","","","3","html-keyboard-response","475","","","","",""
"1694","puppet","napulo,lamok,godoro,mazishi","mazishi","n","3","html-keyboard-response","476","n","mazishi","true","","1"
"1572.800000011921","","","","","3","html-slider-response","477","","","","5",""
"936","","","","","3","html-keyboard-response","478","","","","",""
"3245","poster","nchi,fedha,kasuko,madungog","madungog","n","3","html-keyboard-response","479","n","madungog","true","","4"
"1222.2000000476837","","","","","3","html-slider-response","480","","","","2",""
"840","","","","","3","html-keyboard-response","481","","","","",""
"4286","music","mraba,baiski,mageho,tumbo","baiski","v","3","html-keyboard-response","482","j","mageho","false","","4"
"1580.1000000238419","","","","","3","html-slider-response","483","","","","2",""
"1392","","","","","3","html-keyboard-response","484","","","","",""
"3854","key","miaka,goma,ahos,chombo","chombo","n","3","html-keyboard-response","485","v","goma","false","","4"
"1691.800000011921","","","","","3","html-slider-response","486","","","","2",""
"1120","","","","","3","html-keyboard-response","487","","","","",""
"3054","sock","ndoora,kimysa,mtirka,mamba","mamba","n","3","html-keyboard-response","488","n","mamba","true","","4"
"2428.199999988079","","","","","3","html-slider-response","489","","","","2",""
"640","","","","","3","html-keyboard-response","490","","","","",""
"5454","marker","mapafu,maji,salita,atay","maji","v","3","html-keyboard-response","491","n","atay","false","","4"
"2131.600000023842","","","","","3","html-slider-response","492","","","","2",""
"668","","","","","3","html-keyboard-response","493","","","","",""
"3133","office","hazini,leso,yatima,kuna","leso","v","3","html-keyboard-response","494","v","leso","true","","4"
"1435.800000011921","","","","","3","html-slider-response","495","","","","2",""
"800","","","","","3","html-keyboard-response","496","","","","",""
"2894","shoe","uyoga,nyeusi,hatua,kama","uyoga","f","3","html-keyboard-response","497","n","kama","false","","4"
"1459.8999999761581","","","","","3","html-slider-response","498","","","","2",""
"1016","","","","","3","html-keyboard-response","499","","","","",""
"5646","cop","bustani,jikoni,bakus,mechezo","mechezo","n","3","html-keyboard-response","500","n","mechezo","true","","4"
"1524.2999999523163","","","","","3","html-slider-response","501","","","","2",""
"889","","","","","3","html-keyboard-response","502","","","","",""
"2925","bank","kudhibi,tualya,ofisi,silingan","silingan","n","3","html-keyboard-response","503","n","silingan","true","","4"
"2283.699999988079","","","","","3","html-slider-response","504","","","","2",""
"1009","","","","","3","html-keyboard-response","505","","","","",""
"1677","letter","filimbi,kifua,chuma,uhuru","kifua","v","3","html-keyboard-response","506","v","kifua","true","","1"
"2676.400000035763","","","","","3","html-slider-response","507","","","","5",""
"27512","","","","","3","html-keyboard-response","508","","","","",""
"1468","dog","lubi,washia,bahari,kalamu","bahari","j","3","html-keyboard-response","509","j","bahari","true","","1"
"2508.899999976158","","","","","3","html-slider-response","510","","","","5",""
"1038","","","","","3","html-keyboard-response","511","","","","",""
"3184","shop","samaki,nopya,kerida,ndezu","samaki","f","3","html-keyboard-response","512","f","samaki","true","","4"
"1716.1000000238419","","","","","3","html-slider-response","513","","","","2",""
"1049","","","","","3","html-keyboard-response","514","","","","",""
"2333","flower","tamasha,lobo,usiku,bega","bega","n","3","html-keyboard-response","515","n","bega","true","","4"
"1636.7000000476837","","","","","3","html-slider-response","516","","","","2",""
"16359","","","","","3","html-keyboard-response","517","","","","",""
"1407","cigar","ndugu,kuta,adhabu,mlango","adhabu","j","3","html-keyboard-response","518","j","adhabu","true","","1"
"1860.3999999761581","","","","","3","html-slider-response","519","","","","5",""
"872","","","","","3","html-keyboard-response","520","","","","",""
"3758","hammer","mekno,kitovu,napakyas,layag","napakyas","j","3","html-keyboard-response","521","f","mekno","false","","4"
"2092.7000000476837","","","","","3","html-slider-response","522","","","","2",""
"1168","","","","","3","html-keyboard-response","523","","","","",""
"3230","fork","baboy,paghago,mgonjwa,gorisi","mgonjwa","j","3","html-keyboard-response","524","v","paghago","false","","4"
"1443.800000011921","","","","","3","html-slider-response","525","","","","4",""
"824","","","","","3","html-keyboard-response","526","","","","",""
"1806","sun","bendi,basi,luha,uongo","basi","v","3","html-keyboard-response","527","v","basi","true","","1"
"1610.8999999761581","","","","","3","html-slider-response","528","","","","5",""
"800","","","","","3","html-keyboard-response","529","","","","",""
"3100","ladder","pangalan,mashua,mwanga,kamba","pangalan","f","3","html-keyboard-response","530","f","pangalan","true","","4"
"2788.600000023842","","","","","3","html-slider-response","531","","","","2",""
"680","","","","","3","html-keyboard-response","532","","","","",""
"1695","banana","kazi,kasamok,hagdan,twai","kazi","f","3","html-keyboard-response","533","f","kazi","true","","1"
"1836.0999999642372","","","","","3","html-slider-response","534","","","","5",""
"688","","","","","3","html-keyboard-response","535","","","","",""
"3005","pudding","abug,aibu,mpishi,iring","aibu","v","3","html-keyboard-response","536","v","aibu","true","","4"
"1739.7999999523163","","","","","3","html-slider-response","537","","","","2",""
"688","","","","","3","html-keyboard-response","538","","","","",""
"3821","body","nyundu,jibini,tindashan,kununa","tindashan","j","3","html-keyboard-response","539","f","nyundu","false","","4"
"1148","","","","","3","html-slider-response","540","","","","2",""
"1551","","","","","3","html-keyboard-response","541","","","","",""
"2589","bed","mapintas,kalipay,haraka,starehe","mapintas","f","3","html-keyboard-response","542","j","haraka","false","","4"
"1859.0999999642372","","","","","3","html-slider-response","543","","","","2",""
"792","","","","","3","html-keyboard-response","544","","","","",""
"3629","tissue","lamigas,kisiwa,ugomvi,katika","ugomvi","j","3","html-keyboard-response","545","n","katika","false","","4"
"1788.1000000238419","","","","","3","html-slider-response","546","","","","2",""
"720","","","","","3","html-keyboard-response","547","","","","",""
"3134","candle","gabi,geza,farasi,kupanda","geza","v","3","html-keyboard-response","548","v","geza","true","","4"
"2115.899999976158","","","","","3","html-slider-response","549","","","","2",""
"1816","","","","","3","html-keyboard-response","550","","","","",""
"1310","tomato","chupi,chupa,takatak,mvua","mvua","n","3","html-keyboard-response","551","n","mvua","true","","1"
"2092.5","","","","","3","html-slider-response","552","","","","5",""
"848","","","","","3","html-keyboard-response","553","","","","",""
"25294","list","wingu,alizeti,kuzama,kaso","wingu","f","3","html-keyboard-response","554","v","alizeti","false","","4"
"1611.3999999761581","","","","","3","html-slider-response","555","","","","2",""
"752","","","","","3","html-keyboard-response","556","","","","",""
"2606","olive","jiwe,bata,siagi,welder","jiwe","f","3","html-keyboard-response","557","j","siagi","false","","4"
"1725","","","","","3","html-slider-response","558","","","","2",""
"2464","","","","","3","html-keyboard-response","559","","","","",""
"1342","picture","kubwa,silya,chaki,asin","kubwa","f","3","html-keyboard-response","560","f","kubwa","true","","1"
"2484.2999999523163","","","","","3","html-slider-response","561","","","","4",""
"1288","","","","","3","html-keyboard-response","562","","","","",""
"4384","page","wimbo,wakala,ishiri,skina","wimbo","f","4","html-keyboard-response","888","v","wakala","false","",""
"1757.9000000357628","","","","","4","html-slider-response","889","","","","1",""
"2239","sheet","juuya,watu,bililhon,kamantis","bililhon","j","4","html-keyboard-response","890","j","bililhon","true","",""
"1460.6000000238419","","","","","4","html-slider-response","891","","","","4",""
"3959","ladder","mashua,mwanga,kamba,pangalan","pangalan","n","4","html-keyboard-response","892","n","pangalan","true","",""
"1627.2000000476837","","","","","4","html-slider-response","893","","","","2",""
"3231","door","tena,soko,nyota,surali","surali","n","4","html-keyboard-response","894","f","tena","false","",""
"1252.5","","","","","4","html-slider-response","895","","","","2",""
"6696","spider","kamwe,bunyag,mkboa,atop","kamwe","f","4","html-keyboard-response","896","v","bunyag","false","",""
"1403.699999988079","","","","","4","html-slider-response","897","","","","2",""
"319","picture","silya,chaki,kubwa,asin","kubwa","j","4","html-keyboard-response","898","v","chaki","false","",""
"3572.800000011921","","","","","4","html-slider-response","899","","","","1",""
"3448","boat","agalon,hamsi,pombe,kitanda","agalon","f","4","html-keyboard-response","900","n","kitanda","false","",""
"1548.0999999642372","","","","","4","html-slider-response","901","","","","2",""
"2448","donkey","bloke,elfu,lalake,rombus","elfu","v","4","html-keyboard-response","902","v","elfu","true","",""
"1300.300000011921","","","","","4","html-slider-response","903","","","","5",""
"4856","book","kuhesa,picha,mali,mara","mali","j","4","html-keyboard-response","904","j","mali","true","",""
"1915.5999999642372","","","","","4","html-slider-response","905","","","","4",""
"2912","cup","dagat,matumai,shimoni,jeraha","matumai","v","4","html-keyboard-response","906","f","dagat","false","",""
"2188.2999999523163","","","","","4","html-slider-response","907","","","","4",""
"2800","sun","bendi,basi,luha,uongo","basi","v","4","html-keyboard-response","908","v","basi","true","",""
"2267.600000023842","","","","","4","html-slider-response","909","","","","2",""
"3184","pudding","aibu,abug,mpishi,iring","aibu","f","4","html-keyboard-response","910","v","abug","false","",""
"1250.199999988079","","","","","4","html-slider-response","911","","","","1",""
"4776","human","bado,kikapu,tinapay,punguza","tinapay","j","4","html-keyboard-response","912","j","tinapay","true","",""
"3011.400000035763","","","","","4","html-slider-response","913","","","","4",""
"2440","squirrel","hofu,mahugaw,ukweli,kichwa","hofu","f","4","html-keyboard-response","914","f","hofu","true","",""
"1452.199999988079","","","","","4","html-slider-response","915","","","","5",""
"10736","park","bunifu,tambok,pwani,ihalas","bunifu","f","4","html-keyboard-response","916","v","tambok","false","",""
"1387.300000011921","","","","","4","html-slider-response","917","","","","2",""
"2255","poster","madungog,nchi,fedha,kasuko","madungog","f","4","html-keyboard-response","918","v","nchi","false","",""
"1812.199999988079","","","","","4","html-slider-response","919","","","","2",""
"3208","wolf","lugha,kaburi,ndizi,mchuzi","lugha","f","4","html-keyboard-response","920","f","lugha","true","",""
"1739.4000000357628","","","","","4","html-slider-response","921","","","","5",""
"2640","cat","neyemba,baki,akili,paghukom","paghukom","n","4","html-keyboard-response","922","n","paghukom","true","",""
"2555.800000011921","","","","","4","html-slider-response","923","","","","5",""
"5984","fish","bala,buli,baho,imani","buli","v","4","html-keyboard-response","924","v","buli","true","",""
"1731","","","","","4","html-slider-response","925","","","","3",""
"2296","tooth","kijiko,uadui,pahiyum,kabalaka","kabalaka","n","4","html-keyboard-response","926","v","uadui","false","",""
"2115.900000035763","","","","","4","html-slider-response","927","","","","1",""
"3064","cave","ganti,kesho,maisha,nyundo","kesho","v","4","html-keyboard-response","928","f","ganti","false","",""
"1556.2000000476837","","","","","4","html-slider-response","929","","","","2",""
"3368","lamp","daub,afya,bilaska,mbolea","afya","v","4","html-keyboard-response","930","j","bilaska","false","",""
"1140.6000000238419","","","","","4","html-slider-response","931","","","","4",""
"3768","banana","kazi,kasamok,hagdan,twai","kazi","f","4","html-keyboard-response","932","f","kazi","true","",""
"2243.800000011921","","","","","4","html-slider-response","933","","","","5",""
"3688","bonfire","mwezi,mfuko,goti,kusanya","goti","j","4","html-keyboard-response","934","j","goti","true","",""
"1468","","","","","4","html-slider-response","935","","","","5",""
"2545","cop","bustani,jikoni,bakus,mechezo","mechezo","n","4","html-keyboard-response","936","v","jikoni","false","",""
"1659.4000000357628","","","","","4","html-slider-response","937","","","","1",""
"4847","marker","maji,mapafu,salita,atay","maji","f","4","html-keyboard-response","938","v","mapafu","false","",""
"7139.699999988079","","","","","4","html-slider-response","939","","","","3",""
"1544","window","kweli,nanga,kujenga,umaga","kweli","f","4","html-keyboard-response","940","v","nanga","false","",""
"1436.199999988079","","","","","4","html-slider-response","941","","","","1",""
"4624","body","tindashan,nyundu,jibini,kununa","tindashan","f","4","html-keyboard-response","942","f","tindashan","true","",""
"2283.7999999523163","","","","","4","html-slider-response","943","","","","4",""
"3280","apple","ukame,kisu,estante,edad","kisu","v","4","html-keyboard-response","944","v","kisu","true","",""
"2811.600000023842","","","","","4","html-slider-response","945","","","","4",""
"4304","salmon","mzungu,sensilyo,seri,baharia","sensilyo","v","4","html-keyboard-response","946","v","sensilyo","true","",""
"2123.100000023842","","","","","4","html-slider-response","947","","","","5",""
"3040","bed","mapintas,kalipay,haraka,starehe","mapintas","f","4","html-keyboard-response","948","v","kalipay","false","",""
"1667.699999988079","","","","","4","html-slider-response","949","","","","1",""
"2040","berry","abogado,kofia,nogozi,kinywa","kofia","v","4","html-keyboard-response","950","v","kofia","true","",""
"1651.9000000357628","","","","","4","html-slider-response","951","","","","2",""
"2168","mirror","rangi,sulagma,kanding,furaha","sulagma","v","4","html-keyboard-response","952","v","sulagma","true","",""
"1372","","","","","4","html-slider-response","953","","","","1",""
"3168","flag","ndege,mkate,trekta,kawa","trekta","j","4","html-keyboard-response","954","j","trekta","true","",""
"2595.400000035763","","","","","4","html-slider-response","955","","","","2",""
"2344","shoulder","kelele,mkuu,ndaniya,guruwe","mkuu","v","4","html-keyboard-response","956","v","mkuu","true","",""
"1339.6000000238419","","","","","4","html-slider-response","957","","","","1",""
"1440","tissue","lamigas,kisiwa,katika,ugomvi","ugomvi","n","4","html-keyboard-response","958","v","kisiwa","false","",""
"1443.800000011921","","","","","4","html-slider-response","959","","","","1",""
"1815","notebook","kemia,msitu,kila,mdudu","kemia","f","4","html-keyboard-response","960","v","msitu","false","",""
"1564","","","","","4","html-slider-response","961","","","","1",""
"6225","snake","jansa,karon,pagtukod,mvringo","pagtukod","j","4","html-keyboard-response","962","j","pagtukod","true","",""
"1986.800000011921","","","","","4","html-slider-response","963","","","","5",""
"2856","finger","simu,moyo,sufuria,lima","moyo","v","4","html-keyboard-response","964","v","moyo","true","",""
"1243.9000000357628","","","","","4","html-slider-response","965","","","","1",""
"1280","basket","kumbuka,utepe,kumba,hasira","kumba","j","4","html-keyboard-response","966","v","utepe","false","",""
"1396.6000000238419","","","","","4","html-slider-response","967","","","","1",""
"1368","curtain","mchanga,lisud,bulwawan,chubani","mchanga","f","4","html-keyboard-response","968","v","lisud","false","",""
"1716.6000000238419","","","","","4","html-slider-response","969","","","","1",""
"1928","perfume","bino,sungura,katuyoan,ndogo","katuyoan","j","4","html-keyboard-response","970","v","sungura","false","",""
"1444.6000000238419","","","","","4","html-slider-response","971","","","","1",""
"2472","key","miaka,goma,chombo,ahos","chombo","j","4","html-keyboard-response","972","v","goma","false","",""
"2212.600000023842","","","","","4","html-slider-response","973","","","","1",""
"2264","olive","jiwe,bata,siagi,welder","jiwe","f","4","html-keyboard-response","974","v","bata","false","",""
"1579.6000000238419","","","","","4","html-slider-response","975","","","","1",""
"6000","rose","paghalad,singizi,mwanake,amani","paghalad","f","4","html-keyboard-response","976","f","paghalad","true","",""
"1388","","","","","4","html-slider-response","977","","","","4",""
"2000","bridge","daima,ngono,panya,sahani","sahani","n","4","html-keyboard-response","978","v","ngono","false","",""
"1363.8999999761581","","","","","4","html-slider-response","979","","","","1",""
"4136","hill","matumbo,kushoto,kukimba,sweta","matumbo","f","4","html-keyboard-response","980","j","kukimba","false","",""
"1547.3999999761581","","","","","4","html-slider-response","981","","","","2",""
"1472","letter","kifua,filimbi,chuma,uhuru","kifua","f","4","html-keyboard-response","982","v","filimbi","false","",""
"2466.100000023842","","","","","4","html-slider-response","983","","","","1",""
"1496","sock","ndoora,kimysa,mtirka,mamba","mamba","n","4","html-keyboard-response","984","v","kimysa","false","",""
"1581.4000000357628","","","","","4","html-slider-response","985","","","","1",""
"1600","fork","baboy,paghago,gorisi,mgonjwa","mgonjwa","n","4","html-keyboard-response","986","v","paghago","false","",""
"1420.199999988079","","","","","4","html-slider-response","987","","","","1",""
"1632","box","kuacha,rafiki,adui,kitande","adui","j","4","html-keyboard-response","988","v","rafiki","false","",""
"2115.7999999523163","","","","","4","html-slider-response","989","","","","1",""
"1991","gift","pagtawag,baba,nyange,baso","pagtawag","f","4","html-keyboard-response","990","v","baba","false","",""
"1348.9000000357628","","","","","4","html-slider-response","991","","","","1",""
"1384","bucket","baga,ijayo,init,kiatu","kiatu","n","4","html-keyboard-response","992","v","ijayo","false","",""
"1588.2999999523163","","","","","4","html-slider-response","993","","","","1",""
"2392","shop","nopya,samaki,kerida,ndezu","samaki","v","4","html-keyboard-response","994","v","samaki","true","",""
"1516","","","","","4","html-slider-response","995","","","","1",""
"1312","puppet","napulo,lamok,mazishi,godoro","mazishi","j","4","html-keyboard-response","996","v","lamok","false","",""
"1659.9000000357628","","","","","4","html-slider-response","997","","","","1",""
"1472","nose","sehemu,gubat,kopa,kidole","sehemu","f","4","html-keyboard-response","998","v","gubat","false","",""
"1442.5","","","","","4","html-slider-response","999","","","","1",""
"14297","music","mraba,mageho,tumbo,baiski","baiski","n","4","html-keyboard-response","1000","n","baiski","true","",""
"1258.6000000238419","","","","","4","html-slider-response","1001","","","","5",""
"4320","dog","lubi,washia,bahari,kalamu","bahari","j","4","html-keyboard-response","1002","v","washia","false","",""
"2298.399999976158","","","","","4","html-slider-response","1003","","","","4",""
"4256","eel","msumari,ishara,kunywa,kabuang","msumari","f","4","html-keyboard-response","1004","f","msumari","true","",""
"1940","","","","","4","html-slider-response","1005","","","","5",""
"13576","number","shule,kengele,choori,mundamo","mundamo","n","4","html-keyboard-response","1006","n","mundamo","true","",""
"1235","","","","","4","html-slider-response","1007","","","","5",""
"2088","tomato","chupi,chupa,mvua,takatak","mvua","j","4","html-keyboard-response","1008","v","chupa","false","",""
"1682.800000011921","","","","","4","html-slider-response","1009","","","","5",""
"1544","coffin","barua,kioo,tubag,hulma","kioo","v","4","html-keyboard-response","1010","v","kioo","true","",""
"1972.3999999761581","","","","","4","html-slider-response","1011","","","","1",""
"1240","knee","mvuke,kubale,bili,duka","duka","n","4","html-keyboard-response","1012","v","kubale","false","",""
"1444.6000000238419","","","","","4","html-slider-response","1013","","","","1",""
"6376","woman","pagtabon,bandari,bituin,kovuli","pagtabon","f","4","html-keyboard-response","1014","f","pagtabon","true","",""
"2635.800000011921","","","","","4","html-slider-response","1015","","","","3",""
"3312","stone","ulimwengu,wingi,mkasi,asili","wingi","v","4","html-keyboard-response","1016","n","asili","false","",""
"1868.5","","","","","4","html-slider-response","1017","","","","4",""
"1744","bread","kaili,dari,dizeli,bugas","dari","v","4","html-keyboard-response","1018","v","dari","true","",""
"1484.199999988079","","","","","4","html-slider-response","1019","","","","1",""
"2016","triangle","kihozi,bentaha,kasadpan,liog","kasadpan","j","4","html-keyboard-response","1020","v","bentaha","false","",""
"1716.199999988079","","","","","4","html-slider-response","1021","","","","1",""
"5352","scissors","tanuri,duga,mtawa,suga","tanuri","f","4","html-keyboard-response","1022","v","duga","false","",""
"1619.199999988079","","","","","4","html-slider-response","1023","","","","1",""
"3257","giraffe","daraja,mahitabo,jumatu,hangyo","mahitabo","v","4","html-keyboard-response","1024","v","mahitabo","true","",""
"1595.199999988079","","","","","4","html-slider-response","1025","","","","4",""
"1713","flower","tamasha,lobo,usiku,bega","bega","n","4","html-keyboard-response","1026","v","lobo","false","",""
"1491.0999999642372","","","","","4","html-slider-response","1027","","","","1",""
"1913","candle","gabi,farasi,geza,kupanda","geza","j","4","html-keyboard-response","1028","v","farasi","false","",""
"1547.5","","","","","4","html-slider-response","1029","","","","1",""
"4401","mother","kahawa,mbuzi,jokofu,babaye","babaye","n","4","html-keyboard-response","1030","n","babaye","true","",""
"1618.7999999523163","","","","","4","html-slider-response","1031","","","","4",""
"1880","towel","tembo,funzi,pito,pagpalit","pagpalit","n","4","html-keyboard-response","1032","v","funzi","false","",""
"1483.4000000357628","","","","","4","html-slider-response","1033","","","","1",""
"2176","elephant","petye,pagduol,kito,suka","kito","j","4","html-keyboard-response","1034","j","kito","true","",""
"1763.800000011921","","","","","4","html-slider-response","1035","","","","5",""
"1625","shelf","bungtod,kadaot,awit,pamahaw","pamahaw","n","4","html-keyboard-response","1036","v","kadaot","false","",""
"1459.9000000357628","","","","","4","html-slider-response","1037","","","","1",""
"2185","mosquito","isda,martilyo,taras,gutom","martilyo","v","4","html-keyboard-response","1038","v","martilyo","true","",""
"1771.9000000357628","","","","","4","html-slider-response","1039","","","","5",""
"4416","column","pundok,ufagio,dila,pala","ufagio","v","4","html-keyboard-response","1040","f","pundok","false","",""
"1716","","","","","4","html-slider-response","1041","","","","4",""
"4584","pants","pintal,haki,chuki,hari","haki","v","4","html-keyboard-response","1042","n","hari","false","",""
"2443.899999976158","","","","","4","html-slider-response","1043","","","","3",""
"2576","list","alizeti,kuzama,wingu,kaso","wingu","j","4","html-keyboard-response","1044","v","kuzama","false","",""
"1444","","","","","4","html-slider-response","1045","","","","1",""
"4792","bank","kudhibi,tualya,silingan,ofisi","silingan","j","4","html-keyboard-response","1046","v","tualya","false","",""
"1371.300000011921","","","","","4","html-slider-response","1047","","","","1",""
"2544","clock","kartasi,mbwa,abang,osha","mbwa","v","4","html-keyboard-response","1048","n","osha","false","",""
"1756.0999999642372","","","","","4","html-slider-response","1049","","","","2",""
"1024","ceiling","kugita,maua,kawaida,rayna","maua","v","4","html-keyboard-response","1050","v","maua","true","",""
"1588","","","","","4","html-slider-response","1051","","","","1",""
"1496","train","sayari,itik,dakika,mungu","sayari","f","4","html-keyboard-response","1052","v","itik","false","",""
"1539.1000000238419","","","","","4","html-slider-response","1053","","","","1",""
"1784","magazine","gundi,kiti,mchawi,bahandi","kiti","v","4","html-keyboard-response","1054","v","kiti","true","",""
"1324.199999988079","","","","","4","html-slider-response","1055","","","","1",""
"1536","office","hazini,leso,yatima,kuna","leso","v","4","html-keyboard-response","1056","v","leso","true","",""
"1476.3999999761581","","","","","4","html-slider-response","1057","","","","1",""
"1304","wheel","bafuni,punda,tawo,baadaye","bafuni","f","4","html-keyboard-response","1058","v","punda","false","",""
"1148.1000000238419","","","","","4","html-slider-response","1059","","","","1",""
"2224","spoon","pagsulod,betri,nzuri,ngazi","pagsulod","f","4","html-keyboard-response","1060","v","betri","false","",""
"1348.300000011921","","","","","4","html-slider-response","1061","","","","1",""
"1304","hammer","mekno,kitovu,napakyas,layag","napakyas","j","4","html-keyboard-response","1062","v","kitovu","false","",""
"1251.800000011921","","","","","4","html-slider-response","1063","","","","1",""
"1272","cigar","ndugu,kuta,mlango,adhabu","adhabu","n","4","html-keyboard-response","1064","v","kuta","false","",""
"1316.0999999642372","","","","","4","html-slider-response","1065","","","","1",""
"1128","shoe","nyeusi,uyoga,hatua,kama","uyoga","v","4","html-keyboard-response","1066","v","uyoga","true","",""
"1484.2000000476837","","","","","4","html-slider-response","1067","","","","1",""
"2579","list","alizeti,wingu,kuzama,kaso","wingu","v","5","html-keyboard-response","1069","v","wingu","true","",""
"1706.1000000238419","","","","","5","html-slider-response","1070","","","","1",""
"2832","number","shule,mundamo,kengele,choori","mundamo","v","5","html-keyboard-response","1071","v","mundamo","true","",""
"1451.800000011921","","","","","5","html-slider-response","1072","","","","5",""
"5712","apple","kisu,ukame,estante,edad","kisu","f","5","html-keyboard-response","1073","f","kisu","true","",""
"2171.399999976158","","","","","5","html-slider-response","1074","","","","5",""
"1407","knee","mvuke,duka,kubale,bili","duka","v","5","html-keyboard-response","1075","v","duka","true","",""
"1158.800000011921","","","","","5","html-slider-response","1076","","","","1",""
"1992","tooth","kabalaka,kijiko,uadui,pahiyum","kabalaka","f","5","html-keyboard-response","1077","v","kijiko","false","",""
"1332.300000011921","","","","","5","html-slider-response","1078","","","","1",""
"2281","berry","abogado,nogozi,kinywa,kofia","kofia","n","5","html-keyboard-response","1079","n","kofia","true","",""
"1692.1000000238419","","","","","5","html-slider-response","1080","","","","4",""
"1280","bridge","daima,ngono,panya,sahani","sahani","n","5","html-keyboard-response","1081","v","ngono","false","",""
"1700.300000011921","","","","","5","html-slider-response","1082","","","","1",""
"2392","perfume","bino,sungura,katuyoan,ndogo","katuyoan","j","5","html-keyboard-response","1083","v","sungura","false","",""
"2069","","","","","5","html-slider-response","1084","","","","1",""
"1336","ladder","mashua,mwanga,kamba,pangalan","pangalan","n","5","html-keyboard-response","1085","v","mwanga","false","",""
"1844.3999999761581","","","","","5","html-slider-response","1086","","","","1",""
"1561","pants","pintal,haki,chuki,hari","haki","v","5","html-keyboard-response","1087","n","hari","false","",""
"2116.2999999523163","","","","","5","html-slider-response","1088","","","","4",""
"2184","salmon","mzungu,seri,baharia,sensilyo","sensilyo","n","5","html-keyboard-response","1089","n","sensilyo","true","",""
"1860.5","","","","","5","html-slider-response","1090","","","","5",""
"1241","coffin","barua,kioo,tubag,hulma","kioo","v","5","html-keyboard-response","1091","v","kioo","true","",""
"1171.7999999523163","","","","","5","html-slider-response","1092","","","","1",""
"3945","park","tambok,pwani,bunifu,ihalas","bunifu","j","5","html-keyboard-response","1093","v","pwani","false","",""
"1666.300000011921","","","","","5","html-slider-response","1094","","","","1",""
"3112","giraffe","daraja,mahitabo,jumatu,hangyo","mahitabo","v","5","html-keyboard-response","1095","v","mahitabo","true","",""
"2099.900000035763","","","","","5","html-slider-response","1096","","","","5",""
"920","mirror","rangi,kanding,sulagma,furaha","sulagma","j","5","html-keyboard-response","1097","v","kanding","false","",""
"1220.4000000357628","","","","","5","html-slider-response","1098","","","","1",""
"1368","ceiling","kugita,kawaida,rayna,maua","maua","n","5","html-keyboard-response","1099","v","kawaida","false","",""
"1235.800000011921","","","","","5","html-slider-response","1100","","","","1",""
"1320","marker","mapafu,salita,maji,atay","maji","j","5","html-keyboard-response","1101","v","salita","false","",""
"1564.0999999642372","","","","","5","html-slider-response","1102","","","","1",""
"1632","sock","mamba,ndoora,kimysa,mtirka","mamba","f","5","html-keyboard-response","1103","v","ndoora","false","",""
"1187.8999999761581","","","","","5","html-slider-response","1104","","","","1",""
"1288","cop","bustani,mechezo,jikoni,bakus","mechezo","v","5","html-keyboard-response","1105","v","mechezo","true","",""
"1092","","","","","5","html-slider-response","1106","","","","1",""
"5704","gift","baba,nyange,baso,pagtawag","pagtawag","n","5","html-keyboard-response","1107","v","nyange","false","",""
"1411.1000000238419","","","","","5","html-slider-response","1108","","","","1",""
"1144","notebook","kemia,msitu,kila,mdudu","kemia","f","5","html-keyboard-response","1109","v","msitu","false","",""
"1795.6000000238419","","","","","5","html-slider-response","1110","","","","1",""
"1064","bank","kudhibi,silingan,tualya,ofisi","silingan","v","5","html-keyboard-response","1111","v","silingan","true","",""
"1155.699999988079","","","","","5","html-slider-response","1112","","","","1",""
"1416","letter","kifua,filimbi,chuma,uhuru","kifua","f","5","html-keyboard-response","1113","v","filimbi","false","",""
"1131.5999999642372","","","","","5","html-slider-response","1114","","","","1",""
"1552","candle","geza,gabi,farasi,kupanda","geza","f","5","html-keyboard-response","1115","v","gabi","false","",""
"1435.4000000357628","","","","","5","html-slider-response","1116","","","","1",""
"2032","bread","kaili,dizeli,bugas,dari","dari","n","5","html-keyboard-response","1117","n","dari","true","",""
"1380","","","","","5","html-slider-response","1118","","","","5",""
"3736","snake","jansa,pagtukod,karon,mvringo","pagtukod","v","5","html-keyboard-response","1119","v","pagtukod","true","",""
"2395.7000000476837","","","","","5","html-slider-response","1120","","","","5",""
"1216","rose","singizi,mwanake,amani,paghalad","paghalad","n","5","html-keyboard-response","1121","v","mwanake","false","",""
"1715.800000011921","","","","","5","html-slider-response","1122","","","","1",""
"3031","hill","matumbo,kushoto,kukimba,sweta","matumbo","f","5","html-keyboard-response","1123","f","matumbo","true","",""
"2340.099999964237","","","","","5","html-slider-response","1124","","","","3",""
"3704","train","itik,sayari,dakika,mungu","sayari","v","5","html-keyboard-response","1125","f","itik","false","",""
"1884.1000000238419","","","","","5","html-slider-response","1126","","","","3",""
"1841","shop","nopya,samaki,kerida,ndezu","samaki","v","5","html-keyboard-response","1127","v","samaki","true","",""
"1284.300000011921","","","","","5","html-slider-response","1128","","","","1",""
"1049","nose","gubat,sehemu,kopa,kidole","sehemu","v","5","html-keyboard-response","1129","v","sehemu","true","",""
"1564.5","","","","","5","html-slider-response","1130","","","","1",""
"879","boat","agalon,hamsi,pombe,kitanda","agalon","f","5","html-keyboard-response","1131","v","hamsi","false","",""
"1758.300000011921","","","","","5","html-slider-response","1132","","","","1",""
"2544","body","nyundu,jibini,tindashan,kununa","tindashan","j","5","html-keyboard-response","1133","j","tindashan","true","",""
"1676.1000000238419","","","","","5","html-slider-response","1134","","","","5",""
"1328","bed","kalipay,mapintas,haraka,starehe","mapintas","v","5","html-keyboard-response","1135","v","mapintas","true","",""
"1356.199999988079","","","","","5","html-slider-response","1136","","","","1",""
"2176","squirrel","mahugaw,ukweli,kichwa,hofu","hofu","n","5","html-keyboard-response","1137","n","hofu","true","",""
"1884.300000011921","","","","","5","html-slider-response","1138","","","","5",""
"1536","window","nanga,kujenga,umaga,kweli","kweli","n","5","html-keyboard-response","1139","v","kujenga","false","",""
"1587.0999999642372","","","","","5","html-slider-response","1140","","","","1",""
"2008","bonfire","mwezi,mfuko,goti,kusanya","goti","j","5","html-keyboard-response","1141","j","goti","true","",""
"1843.5999999642372","","","","","5","html-slider-response","1142","","","","5",""
"2712","fish","bala,baho,buli,imani","buli","j","5","html-keyboard-response","1143","j","buli","true","",""
"1476","","","","","5","html-slider-response","1144","","","","5",""
"2473","cat","neyemba,baki,akili,paghukom","paghukom","n","5","html-keyboard-response","1145","n","paghukom","true","",""
"1779.8999999761581","","","","","5","html-slider-response","1146","","","","5",""
"4840","spider","bunyag,kamwe,mkboa,atop","kamwe","v","5","html-keyboard-response","1147","f","bunyag","false","",""
"2819.699999988079","","","","","5","html-slider-response","1148","","","","3",""
"3048","eel","ishara,kunywa,msumari,kabuang","msumari","j","5","html-keyboard-response","1149","j","msumari","true","",""
"1315.8999999761581","","","","","5","html-slider-response","1150","","","","5",""
"3224","woman","bandari,pagtabon,bituin,kovuli","pagtabon","v","5","html-keyboard-response","1151","v","pagtabon","true","",""
"1907.300000011921","","","","","5","html-slider-response","1152","","","","4",""
"1896","magazine","kiti,gundi,mchawi,bahandi","kiti","f","5","html-keyboard-response","1153","v","gundi","false","",""
"1363.800000011921","","","","","5","html-slider-response","1154","","","","1",""
"952","pudding","abug,mpishi,aibu,iring","aibu","j","5","html-keyboard-response","1155","v","mpishi","false","",""
"1827.6000000238419","","","","","5","html-slider-response","1156","","","","1",""
"728","lamp","daub,bilaska,afya,mbolea","afya","j","5","html-keyboard-response","1157","v","bilaska","false","",""
"1307.699999988079","","","","","5","html-slider-response","1158","","","","1",""
"672","cave","ganti,maisha,kesho,nyundo","kesho","j","5","html-keyboard-response","1159","v","maisha","false","",""
"1787.9000000357628","","","","","5","html-slider-response","1160","","","","1",""
"1280","shoulder","mkuu,kelele,ndaniya,guruwe","mkuu","f","5","html-keyboard-response","1161","v","kelele","false","",""
"1459.5","","","","","5","html-slider-response","1162","","","","1",""
"1800","stone","ulimwengu,mkasi,asili,wingi","wingi","n","5","html-keyboard-response","1163","j","asili","false","",""
"1443.800000011921","","","","","5","html-slider-response","1164","","","","4",""
"3112","column","pundok,dila,ufagio,pala","ufagio","j","5","html-keyboard-response","1165","v","dila","false","",""
"1955.3999999761581","","","","","5","html-slider-response","1166","","","","1",""
"1305","page","wimbo,wakala,ishiri,skina","wimbo","f","5","html-keyboard-response","1167","v","wakala","false","",""
"1331.5999999642372","","","","","5","html-slider-response","1168","","","","1",""
"1656","shoe","nyeusi,hatua,kama,uyoga","uyoga","n","5","html-keyboard-response","1169","v","hatua","false","",""
"1468","","","","","5","html-slider-response","1170","","","","1",""
"1120","clock","kartasi,mbwa,abang,osha","mbwa","v","5","html-keyboard-response","1171","v","mbwa","true","",""
"1404.2000000476837","","","","","5","html-slider-response","1172","","","","1",""
"1408","towel","tembo,pagpalit,funzi,pito","pagpalit","v","5","html-keyboard-response","1173","v","pagpalit","true","",""
"1348.4000000357628","","","","","5","html-slider-response","1174","","","","1",""
"1672","tomato","chupi,chupa,mvua,takatak","mvua","j","5","html-keyboard-response","1175","v","chupa","false","",""
"1836.699999988079","","","","","5","html-slider-response","1176","","","","1",""
"1424","bucket","baga,ijayo,init,kiatu","kiatu","n","5","html-keyboard-response","1177","v","ijayo","false","",""
"1228.4000000357628","","","","","5","html-slider-response","1178","","","","1",""
"640","finger","simu,moyo,sufuria,lima","moyo","v","5","html-keyboard-response","1179","v","moyo","true","",""
"1500.2000000476837","","","","","5","html-slider-response","1180","","","","1",""
"4528","mother","babaye,kahawa,mbuzi,jokofu","babaye","f","5","html-keyboard-response","1181","f","babaye","true","",""
"1683.7000000476837","","","","","5","html-slider-response","1182","","","","4",""
"2648","human","bado,kikapu,punguza,tinapay","tinapay","n","5","html-keyboard-response","1183","n","tinapay","true","",""
"1420","","","","","5","html-slider-response","1184","","","","5",""
"1360","sun","bendi,luha,uongo,basi","basi","n","5","html-keyboard-response","1185","v","luha","false","",""
"1627","","","","","5","html-slider-response","1186","","","","1",""
"992","fork","baboy,mgonjwa,paghago,gorisi","mgonjwa","v","5","html-keyboard-response","1187","v","mgonjwa","true","",""
"3043.699999988079","","","","","5","html-slider-response","1188","","","","1",""
"2296","donkey","bloke,lalake,elfu,rombus","elfu","j","5","html-keyboard-response","1189","j","elfu","true","",""
"1836.1000000238419","","","","","5","html-slider-response","1190","","","","5",""
"2640","wolf","kaburi,lugha,ndizi,mchuzi","lugha","v","5","html-keyboard-response","1191","v","lugha","true","",""
"1420","","","","","5","html-slider-response","1192","","","","5",""
"1328","cigar","adhabu,ndugu,kuta,mlango","adhabu","f","5","html-keyboard-response","1193","v","ndugu","false","",""
"1419.800000011921","","","","","5","html-slider-response","1194","","","","1",""
"1376","olive","bata,jiwe,siagi,welder","jiwe","v","5","html-keyboard-response","1195","v","jiwe","true","",""
"1539.300000011921","","","","","5","html-slider-response","1196","","","","1",""
"1897","key","miaka,goma,ahos,chombo","chombo","n","5","html-keyboard-response","1197","n","chombo","true","",""
"1243.0999999642372","","","","","5","html-slider-response","1198","","","","4",""
"1792","door","tena,surali,soko,nyota","surali","v","5","html-keyboard-response","1199","v","surali","true","",""
"1348.3999999761581","","","","","5","html-slider-response","1200","","","","1",""
"1032","wheel","bafuni,punda,tawo,baadaye","bafuni","f","5","html-keyboard-response","1201","v","punda","false","",""
"1394.1000000238419","","","","","5","html-slider-response","1202","","","","1",""
"1000","basket","kumbuka,utepe,kumba,hasira","kumba","j","5","html-keyboard-response","1203","v","utepe","false","",""
"1459.5999999642372","","","","","5","html-slider-response","1204","","","","1",""
"2409","elephant","petye,kito,pagduol,suka","kito","v","5","html-keyboard-response","1205","v","kito","true","",""
"1282.699999988079","","","","","5","html-slider-response","1206","","","","5",""
"4264","office","hazini,leso,yatima,kuna","leso","v","5","html-keyboard-response","1207","v","leso","true","",""
"1371.1000000238419","","","","","5","html-slider-response","1208","","","","1",""
"2400","music","mraba,baiski,mageho,tumbo","baiski","v","5","html-keyboard-response","1209","v","baiski","true","",""
"1395.5999999642372","","","","","5","html-slider-response","1210","","","","5",""
"920","tissue","ugomvi,lamigas,kisiwa,katika","ugomvi","f","5","html-keyboard-response","1211","v","lamigas","false","",""
"1843.699999988079","","","","","5","html-slider-response","1212","","","","1",""
"648","curtain","lisud,mchanga,bulwawan,chubani","mchanga","v","5","html-keyboard-response","1213","v","mchanga","true","",""
"1243.300000011921","","","","","5","html-slider-response","1214","","","","1",""
"560","flag","ndege,mkate,trekta,kawa","trekta","j","5","html-keyboard-response","1215","v","mkate","false","",""
"1548.300000011921","","","","","5","html-slider-response","1216","","","","1",""
"2720","dog","lubi,bahari,washia,kalamu","bahari","v","5","html-keyboard-response","1217","j","washia","false","",""
"2372.300000011921","","","","","5","html-slider-response","1218","","","","5",""
"2232","cup","dagat,shimoni,jeraha,matumai","matumai","n","5","html-keyboard-response","1219","f","dagat","false","",""
"1340.3999999761581","","","","","5","html-slider-response","1220","","","","4",""
"1280","sheet","bililhon,juuya,watu,kamantis","bililhon","f","5","html-keyboard-response","1221","v","juuya","false","",""
"1299.8999999761581","","","","","5","html-slider-response","1222","","","","1",""
"1192","spoon","betri,nzuri,pagsulod,ngazi","pagsulod","j","5","html-keyboard-response","1223","v","nzuri","false","",""
"1300.199999988079","","","","","5","html-slider-response","1224","","","","1",""
"1496","flower","bega,tamasha,lobo,usiku","bega","f","5","html-keyboard-response","1225","v","tamasha","false","",""
"1300.199999988079","","","","","5","html-slider-response","1226","","","","1",""
"1256","picture","silya,chaki,asin,kubwa","kubwa","n","5","html-keyboard-response","1227","v","chaki","false","",""
"1425.5999999642372","","","","","5","html-slider-response","1228","","","","1",""
"856","puppet","mazishi,napulo,lamok,godoro","mazishi","f","5","html-keyboard-response","1229","v","napulo","false","",""
"1388.0999999642372","","","","","5","html-slider-response","1230","","","","1",""
"3936","banana","kasamok,hagdan,kazi,twai","kazi","j","5","html-keyboard-response","1231","j","kazi","true","",""
"1587.4000000357628","","","","","5","html-slider-response","1232","","","","4",""
"3704","book","kuhesa,mali,picha,mara","mali","v","5","html-keyboard-response","1233","v","mali","true","",""
"1371.8999999761581","","","","","5","html-slider-response","1234","","","","4",""
"1120","triangle","kihozi,kasadpan,bentaha,liog","kasadpan","v","5","html-keyboard-response","1235","v","kasadpan","true","",""
"1316.199999988079","","","","","5","html-slider-response","1236","","","","1",""
"937","poster","nchi,fedha,madungog,kasuko","madungog","j","5","html-keyboard-response","1237","v","fedha","false","",""
"2211.7000000476837","","","","","5","html-slider-response","1238","","","","1",""
"1336","box","kuacha,rafiki,adui,kitande","adui","j","5","html-keyboard-response","1239","v","rafiki","false","",""
"1363.699999988079","","","","","5","html-slider-response","1240","","","","1",""
"1576","mosquito","isda,taras,martilyo,gutom","martilyo","j","5","html-keyboard-response","1241","j","martilyo","true","",""
"1595.800000011921","","","","","5","html-slider-response","1242","","","","5",""
"1376","shelf","bungtod,kadaot,awit,pamahaw","pamahaw","n","5","html-keyboard-response","1243","v","kadaot","false","",""
"1267.1000000238419","","","","","5","html-slider-response","1244","","","","1",""
"824","scissors","duga,tanuri,mtawa,suga","tanuri","v","5","html-keyboard-response","1245","v","tanuri","true","",""
"1299.1000000238419","","","","","5","html-slider-response","1246","","","","1",""
"1031","hammer","mekno,kitovu,napakyas,layag","napakyas","j","5","html-keyboard-response","1247","v","kitovu","false","",""
"1430.7000000476837","","","","","5","html-slider-response","1248","","","","1",""
