"rt","en_word","options","swa_word","correct_answer","phase","trial_type","trial_index","input_answer","input_word","accuracy","certainty","amt_choices"
"2626","bonfire","goti,mwezi,mfuko,kusanya","goti","f","2","html-keyboard-response","106","v","mwezi","false","",""
"1431.2999999970198","","","","","2","html-slider-response","107","","","","1",""
"2741","flower","bega,tamasha,lobo,usiku","bega","f","2","html-keyboard-response","108","v","tamasha","false","",""
"1237.8999999910593","","","","","2","html-slider-response","109","","","","1",""
"1887","column","pundok,dila,pala,ufagio","ufagio","n","2","html-keyboard-response","110","j","pala","false","",""
"1486.0999999940395","","","","","2","html-slider-response","111","","","","1",""
"4186","music","mraba,mageho,tumbo,baiski","baiski","n","2","html-keyboard-response","112","n","baiski","true","",""
"1308.3999999910593","","","","","2","html-slider-response","113","","","","1",""
"1986","spider","bunyag,mkboa,atop,kamwe","kamwe","n","2","html-keyboard-response","114","n","kamwe","true","",""
"1625","","","","","2","html-slider-response","115","","","","1",""
"1839","fork","baboy,paghago,gorisi,mgonjwa","mgonjwa","n","2","html-keyboard-response","116","j","gorisi","false","",""
"2463.7999999970198","","","","","2","html-slider-response","117","","","","1",""
"3017","mosquito","isda,taras,gutom,martilyo","martilyo","n","2","html-keyboard-response","118","n","martilyo","true","",""
"1660.7000000029802","","","","","2","html-slider-response","119","","","","4",""
"3752","banana","kasamok,hagdan,kazi,twai","kazi","j","2","html-keyboard-response","120","j","kazi","true","",""
"1180","","","","","2","html-slider-response","121","","","","4",""
"3660","cup","dagat,shimoni,jeraha,matumai","matumai","n","2","html-keyboard-response","122","n","matumai","true","",""
"1077.7000000029802","","","","","2","html-slider-response","123","","","","4",""
"2294","shop","nopya,samaki,kerida,ndezu","samaki","v","2","html-keyboard-response","124","v","samaki","true","",""
"1108.9000000059605","","","","","2","html-slider-response","125","","","","4",""
"1675","elephant","petye,pagduol,kito,suka","kito","j","2","html-keyboard-response","126","j","kito","true","",""
"1135.0999999940395","","","","","2","html-slider-response","127","","","","5",""
"3240","bucket","baga,kiatu,ijayo,init","kiatu","v","2","html-keyboard-response","128","f","baga","false","",""
"1167.6000000089407","","","","","2","html-slider-response","129","","","","2",""
"3789","book","kuhesa,picha,mali,mara","mali","j","2","html-keyboard-response","130","j","mali","true","",""
"1391.2000000029802","","","","","2","html-slider-response","131","","","","2",""
"1815","mirror","rangi,sulagma,kanding,furaha","sulagma","v","2","html-keyboard-response","132","j","kanding","false","",""
"2316.699999988079","","","","","2","html-slider-response","133","","","","1",""
"1483","office","hazini,yatima,kuna,leso","leso","n","2","html-keyboard-response","134","j","kuna","false","",""
"1200.0999999940395","","","","","2","html-slider-response","135","","","","1",""
"7793","body","tindashan,nyundu,jibini,kununa","tindashan","f","2","html-keyboard-response","136","f","tindashan","true","",""
"1091.300000011921","","","","","2","html-slider-response","137","","","","2",""
"1783","perfume","katuyoan,bino,sungura,ndogo","katuyoan","f","2","html-keyboard-response","138","f","katuyoan","true","",""
"1109.5999999940395","","","","","2","html-slider-response","139","","","","1",""
"1560","olive","bata,siagi,jiwe,welder","jiwe","j","2","html-keyboard-response","140","j","jiwe","true","",""
"1273.7000000029802","","","","","2","html-slider-response","141","","","","5",""
"2921","magazine","kiti,gundi,mchawi,bahandi","kiti","f","2","html-keyboard-response","142","j","mchawi","false","",""
"984.8000000119209","","","","","2","html-slider-response","143","","","","4",""
"4904","bread","dari,kaili,dizeli,bugas","dari","f","2","html-keyboard-response","144","f","dari","true","",""
"1065.1000000089407","","","","","2","html-slider-response","145","","","","5",""
"2201","cave","ganti,kesho,maisha,nyundo","kesho","v","2","html-keyboard-response","146","n","nyundo","false","",""
"1027.5","","","","","2","html-slider-response","147","","","","2",""
"1662","ladder","mashua,mwanga,pangalan,kamba","pangalan","j","2","html-keyboard-response","148","j","pangalan","true","",""
"2455","","","","","2","html-slider-response","149","","","","1",""
"4474","human","bado,kikapu,tinapay,punguza","tinapay","j","2","html-keyboard-response","150","j","tinapay","true","",""
"1823.7000000029802","","","","","2","html-slider-response","151","","","","4",""
"1820","clock","kartasi,abang,mbwa,osha","mbwa","j","2","html-keyboard-response","152","j","mbwa","true","",""
"1463.2000000029802","","","","","2","html-slider-response","153","","","","2",""
"5510","shelf","bungtod,pamahaw,kadaot,awit","pamahaw","v","2","html-keyboard-response","154","v","pamahaw","true","",""
"1221.8999999910593","","","","","2","html-slider-response","155","","","","4",""
"3485","salmon","mzungu,seri,sensilyo,baharia","sensilyo","j","2","html-keyboard-response","156","j","sensilyo","true","",""
"1552.7000000029802","","","","","2","html-slider-response","157","","","","2",""
"1582","coffin","barua,tubag,kioo,hulma","kioo","j","2","html-keyboard-response","158","j","kioo","true","",""
"1475","","","","","2","html-slider-response","159","","","","5",""
"3574","notebook","msitu,kemia,kila,mdudu","kemia","v","2","html-keyboard-response","160","j","kila","false","",""
"1103.1000000089407","","","","","2","html-slider-response","161","","","","2",""
"1944","shoulder","kelele,mkuu,ndaniya,guruwe","mkuu","v","2","html-keyboard-response","162","j","ndaniya","false","",""
"1554.6000000089407","","","","","2","html-slider-response","163","","","","1",""
"1406","park","tambok,pwani,bunifu,ihalas","bunifu","j","2","html-keyboard-response","164","j","bunifu","true","",""
"1248.1000000089407","","","","","2","html-slider-response","165","","","","1",""
"3924","number","mundamo,shule,kengele,choori","mundamo","f","2","html-keyboard-response","166","f","mundamo","true","",""
"1277.699999988079","","","","","2","html-slider-response","167","","","","2",""
"3716","apple","kisu,ukame,estante,edad","kisu","f","2","html-keyboard-response","168","f","kisu","true","",""
"1179.0999999940395","","","","","2","html-slider-response","169","","","","2",""
"3865","letter","kifua,filimbi,chuma,uhuru","kifua","f","2","html-keyboard-response","170","n","uhuru","false","",""
"1494.699999988079","","","","","2","html-slider-response","171","","","","1",""
"2376","eel","ishara,kunywa,kabuang,msumari","msumari","n","2","html-keyboard-response","172","f","ishara","false","",""
"1079.9000000059605","","","","","2","html-slider-response","173","","","","2",""
"2068","cop","mechezo,bustani,jikoni,bakus","mechezo","f","2","html-keyboard-response","174","n","bakus","false","",""
"1281.6000000089407","","","","","2","html-slider-response","175","","","","1",""
"2324","wolf","kaburi,ndizi,lugha,mchuzi","lugha","j","2","html-keyboard-response","176","f","kaburi","false","",""
"1161.5","","","","","2","html-slider-response","177","","","","1",""
"6101","squirrel","mahugaw,ukweli,kichwa,hofu","hofu","n","2","html-keyboard-response","178","f","mahugaw","false","",""
"1313.3999999910593","","","","","2","html-slider-response","179","","","","1",""
"3717","nose","gubat,kopa,kidole,sehemu","sehemu","n","2","html-keyboard-response","180","f","gubat","false","",""
"1703.0999999940395","","","","","2","html-slider-response","181","","","","2",""
"3079","sock","ndoora,kimysa,mamba,mtirka","mamba","j","2","html-keyboard-response","182","j","mamba","true","",""
"1621.2000000029802","","","","","2","html-slider-response","183","","","","5",""
"2249","bank","kudhibi,tualya,silingan,ofisi","silingan","j","2","html-keyboard-response","184","v","tualya","false","",""
"1363.2000000029802","","","","","2","html-slider-response","185","","","","1",""
"1829","donkey","elfu,bloke,lalake,rombus","elfu","f","2","html-keyboard-response","186","f","elfu","true","",""
"1049.5","","","","","2","html-slider-response","187","","","","5",""
"5866","poster","madungog,nchi,fedha,kasuko","madungog","f","2","html-keyboard-response","188","f","madungog","true","",""
"971.9000000059605","","","","","2","html-slider-response","189","","","","1",""
"3052","puppet","napulo,lamok,godoro,mazishi","mazishi","n","2","html-keyboard-response","190","n","mazishi","true","",""
"1251","","","","","2","html-slider-response","191","","","","1",""
"2036","hill","kushoto,kukimba,sweta,matumbo","matumbo","n","2","html-keyboard-response","192","n","matumbo","true","",""
"902.2999999970198","","","","","2","html-slider-response","193","","","","4",""
"2982","tooth","kijiko,kabalaka,uadui,pahiyum","kabalaka","v","2","html-keyboard-response","194","v","kabalaka","true","",""
"1161.7000000029802","","","","","2","html-slider-response","195","","","","1",""
"2904","woman","bandari,pagtabon,bituin,kovuli","pagtabon","v","2","html-keyboard-response","196","v","pagtabon","true","",""
"1087.6000000089407","","","","","2","html-slider-response","197","","","","1",""
"1709","wheel","punda,bafuni,tawo,baadaye","bafuni","v","2","html-keyboard-response","198","f","punda","false","",""
"1235.6000000089407","","","","","2","html-slider-response","199","","","","1",""
"2441","mother","kahawa,mbuzi,babaye,jokofu","babaye","j","2","html-keyboard-response","200","j","babaye","true","",""
"3249","","","","","2","html-slider-response","201","","","","4",""
"2671","bed","kalipay,haraka,mapintas,starehe","mapintas","j","2","html-keyboard-response","202","j","mapintas","true","",""
"2135.5","","","","","2","html-slider-response","203","","","","2",""
"3981","key","chombo,miaka,goma,ahos","chombo","f","2","html-keyboard-response","204","f","chombo","true","",""
"1364.2999999970198","","","","","2","html-slider-response","205","","","","1",""
"1754","page","wimbo,wakala,ishiri,skina","wimbo","f","2","html-keyboard-response","206","f","wimbo","true","",""
"996.6000000089407","","","","","2","html-slider-response","207","","","","1",""
"3804","pants","haki,pintal,chuki,hari","haki","f","2","html-keyboard-response","208","f","haki","true","",""
"1158.6000000089407","","","","","2","html-slider-response","209","","","","5",""
"3424","sun","bendi,luha,uongo,basi","basi","n","2","html-keyboard-response","210","j","uongo","false","",""
"1126.9000000059605","","","","","2","html-slider-response","211","","","","2",""
"1962","finger","simu,sufuria,lima,moyo","moyo","n","2","html-keyboard-response","212","j","lima","false","",""
"1770.300000011921","","","","","2","html-slider-response","213","","","","1",""
"2108","shoe","nyeusi,hatua,kama,uyoga","uyoga","n","2","html-keyboard-response","214","n","uyoga","true","",""
"1363.2000000029802","","","","","2","html-slider-response","215","","","","5",""
"3369","giraffe","daraja,mahitabo,jumatu,hangyo","mahitabo","v","2","html-keyboard-response","216","v","mahitabo","true","",""
"859.7000000029802","","","","","2","html-slider-response","217","","","","2",""
"1630","dog","lubi,washia,kalamu,bahari","bahari","n","2","html-keyboard-response","218","f","lubi","false","",""
"977","","","","","2","html-slider-response","219","","","","1",""
"2961","box","kuacha,rafiki,adui,kitande","adui","j","2","html-keyboard-response","220","f","kuacha","false","",""
"1438.7999999970198","","","","","2","html-slider-response","221","","","","1",""
"1963","scissors","duga,mtawa,suga,tanuri","tanuri","n","2","html-keyboard-response","222","v","mtawa","false","",""
"1935.699999988079","","","","","2","html-slider-response","223","","","","1",""
"3882","cat","paghukom,neyemba,baki,akili","paghukom","f","2","html-keyboard-response","224","n","akili","false","",""
"3530.4000000059605","","","","","2","html-slider-response","225","","","","1",""
"3058","basket","kumbuka,kumba,utepe,hasira","kumba","v","2","html-keyboard-response","226","v","kumba","true","",""
"1281.2000000029802","","","","","2","html-slider-response","227","","","","1",""
"5218","snake","pagtukod,jansa,karon,mvringo","pagtukod","f","2","html-keyboard-response","228","f","pagtukod","true","",""
"1574.3999999910593","","","","","2","html-slider-response","229","","","","1",""
"3213","gift","baba,pagtawag,nyange,baso","pagtawag","v","2","html-keyboard-response","230","v","pagtawag","true","",""
"1404.7999999970198","","","","","2","html-slider-response","231","","","","4",""
"2788","train","sayari,itik,dakika,mungu","sayari","f","2","html-keyboard-response","232","f","sayari","true","",""
"2977.2000000029802","","","","","2","html-slider-response","233","","","","1",""
"2676","pudding","abug,mpishi,iring,aibu","aibu","n","2","html-keyboard-response","234","f","abug","false","",""
"1193.0999999940395","","","","","2","html-slider-response","235","","","","1",""
"3950","tomato","chupi,chupa,takatak,mvua","mvua","n","2","html-keyboard-response","236","n","mvua","true","",""
"1650","","","","","2","html-slider-response","237","","","","2",""
"3366","stone","wingi,ulimwengu,mkasi,asili","wingi","f","2","html-keyboard-response","238","f","wingi","true","",""
"2692.5","","","","","2","html-slider-response","239","","","","1",""
"2770","hammer","napakyas,mekno,kitovu,layag","napakyas","f","2","html-keyboard-response","240","f","napakyas","true","",""
"2116.7999999970198","","","","","2","html-slider-response","241","","","","2",""
"7961","knee","duka,mvuke,kubale,bili","duka","f","2","html-keyboard-response","242","v","mvuke","false","",""
"1232.2000000029802","","","","","2","html-slider-response","243","","","","1",""
"4271","ceiling","kugita,kawaida,maua,rayna","maua","j","2","html-keyboard-response","244","j","maua","true","",""
"1259.0999999940395","","","","","2","html-slider-response","245","","","","2",""
"2329","spoon","betri,nzuri,ngazi,pagsulod","pagsulod","n","2","html-keyboard-response","246","v","nzuri","false","",""
"1449.5","","","","","2","html-slider-response","247","","","","2",""
"3122","marker","mapafu,salita,atay,maji","maji","n","2","html-keyboard-response","248","n","maji","true","",""
"2462.9000000059605","","","","","2","html-slider-response","249","","","","4",""
"2311","candle","gabi,farasi,kupanda,geza","geza","n","2","html-keyboard-response","250","n","geza","true","",""
"1159.4000000059605","","","","","2","html-slider-response","251","","","","5",""
"2866","tissue","lamigas,kisiwa,katika,ugomvi","ugomvi","n","2","html-keyboard-response","252","n","ugomvi","true","",""
"1174.7999999970198","","","","","2","html-slider-response","253","","","","1",""
"2967","bridge","daima,ngono,panya,sahani","sahani","n","2","html-keyboard-response","254","v","ngono","false","",""
"1635.0999999940395","","","","","2","html-slider-response","255","","","","1",""
"2119","berry","abogado,kofia,nogozi,kinywa","kofia","v","2","html-keyboard-response","256","f","abogado","false","",""
"968.9000000059605","","","","","2","html-slider-response","257","","","","1",""
"3422","triangle","kasadpan,kihozi,bentaha,liog","kasadpan","f","2","html-keyboard-response","258","f","kasadpan","true","",""
"2327.9000000059605","","","","","2","html-slider-response","259","","","","2",""
"2651","door","tena,soko,nyota,surali","surali","n","2","html-keyboard-response","260","v","soko","false","",""
"1897.6000000089407","","","","","2","html-slider-response","261","","","","2",""
"2418","fish","buli,bala,baho,imani","buli","f","2","html-keyboard-response","262","v","bala","false","",""
"1111","","","","","2","html-slider-response","263","","","","2",""
"3360","curtain","lisud,mchanga,bulwawan,chubani","mchanga","v","2","html-keyboard-response","264","v","mchanga","true","",""
"1529.800000011921","","","","","2","html-slider-response","265","","","","5",""
"9512","flag","ndege,trekta,mkate,kawa","trekta","v","2","html-keyboard-response","266","v","trekta","true","",""
"2003.8999999910593","","","","","2","html-slider-response","267","","","","5",""
"9307","boat","hamsi,pombe,kitanda,agalon","agalon","n","2","html-keyboard-response","268","j","kitanda","false","",""
"1121.0999999940395","","","","","2","html-slider-response","269","","","","2",""
"2600","rose","singizi,paghalad,mwanake,amani","paghalad","v","2","html-keyboard-response","270","n","amani","false","",""
"1485.5999999940395","","","","","2","html-slider-response","271","","","","2",""
"2564","lamp","daub,bilaska,afya,mbolea","afya","j","2","html-keyboard-response","272","j","afya","true","",""
"1191.0999999940395","","","","","2","html-slider-response","273","","","","1",""
"2144","cigar","ndugu,kuta,adhabu,mlango","adhabu","j","2","html-keyboard-response","274","f","ndugu","false","",""
"1446.6000000089407","","","","","2","html-slider-response","275","","","","1",""
"2062","list","alizeti,wingu,kuzama,kaso","wingu","v","2","html-keyboard-response","276","n","kaso","false","",""
"1604.7999999970198","","","","","2","html-slider-response","277","","","","2",""
"4179","sheet","bililhon,juuya,watu,kamantis","bililhon","f","2","html-keyboard-response","278","n","kamantis","false","",""
"1943.7999999970198","","","","","2","html-slider-response","279","","","","1",""
"3650","picture","silya,kubwa,chaki,asin","kubwa","v","2","html-keyboard-response","280","v","kubwa","true","",""
"938.5","","","","","2","html-slider-response","281","","","","2",""
"3125","towel","tembo,funzi,pagpalit,pito","pagpalit","j","2","html-keyboard-response","282","j","pagpalit","true","",""
"1311.5999999940395","","","","","2","html-slider-response","283","","","","4",""
"3462","window","nanga,kujenga,umaga,kweli","kweli","n","2","html-keyboard-response","284","n","kweli","true","",""
"1344.1000000089407","","","","","2","html-slider-response","285","","","","2",""
"7648","box","kuacha,adui,rafiki,kitande","adui","v","3","html-keyboard-response","293","v","adui","true","","4"
"1993.8999999910593","","","","","3","html-slider-response","294","","","","2",""
"2114","","","","","3","html-keyboard-response","295","","","","",""
"2635","pants","pintal,chuki,hari,haki","haki","n","3","html-keyboard-response","296","n","haki","true","","4"
"2284.2999999970198","","","","","3","html-slider-response","297","","","","5",""
"1167","","","","","3","html-keyboard-response","298","","","","",""
"3077","cup","dagat,shimoni,matumai,jeraha","matumai","j","3","html-keyboard-response","299","j","matumai","true","","4"
"2171.3999999910593","","","","","3","html-slider-response","300","","","","4",""
"1119","","","","","3","html-keyboard-response","301","","","","",""
"3804","triangle","kihozi,bentaha,kasadpan,liog","kasadpan","j","3","html-keyboard-response","302","n","liog","false","","4"
"2354.5","","","","","3","html-slider-response","303","","","","1",""
"4159","","","","","3","html-keyboard-response","304","","","","",""
"3234","curtain","lisud,mchanga,bulwawan,chubani","mchanga","v","3","html-keyboard-response","305","v","mchanga","true","","4"
"3366.9000000059605","","","","","3","html-slider-response","306","","","","4",""
"725","","","","","3","html-keyboard-response","307","","","","",""
"4372","clock","kartasi,abang,mbwa,osha","mbwa","j","3","html-keyboard-response","308","j","mbwa","true","","4"
"1955.5","","","","","3","html-slider-response","309","","","","2",""
"1501","","","","","3","html-keyboard-response","310","","","","",""
"5066","mirror","rangi,kanding,furaha,sulagma","sulagma","n","3","html-keyboard-response","311","j","furaha","false","","4"
"2339.5999999940395","","","","","3","html-slider-response","312","","","","1",""
"2931","","","","","3","html-keyboard-response","313","","","","",""
"1891","coffin","barua,tubag,hulma,kioo","kioo","n","3","html-keyboard-response","314","n","kioo","true","","1"
"2307","","","","","3","html-slider-response","315","","","","5",""
"930","","","","","3","html-keyboard-response","316","","","","",""
"5529","magazine","kiti,gundi,mchawi,bahandi","kiti","f","3","html-keyboard-response","317","f","kiti","true","","4"
"2719","","","","","3","html-slider-response","318","","","","1",""
"1210","","","","","3","html-keyboard-response","319","","","","",""
"2816","column","pundok,dila,ufagio,pala","ufagio","j","3","html-keyboard-response","320","j","ufagio","true","","1"
"3005.7999999970198","","","","","3","html-slider-response","321","","","","5",""
"1239","","","","","3","html-keyboard-response","322","","","","",""
"3247","number","shule,kengele,choori,mundamo","mundamo","n","3","html-keyboard-response","323","n","mundamo","true","","4"
"1659.6000000089407","","","","","3","html-slider-response","324","","","","2",""
"1966","","","","","3","html-keyboard-response","325","","","","",""
"4993","rose","singizi,mwanake,paghalad,amani","paghalad","j","3","html-keyboard-response","326","j","paghalad","true","","4"
"1794.199999988079","","","","","3","html-slider-response","327","","","","1",""
"1562","","","","","3","html-keyboard-response","328","","","","",""
"3558","eel","ishara,msumari,kunywa,kabuang","msumari","v","3","html-keyboard-response","329","j","kunywa","false","","4"
"2025.4000000059605","","","","","3","html-slider-response","330","","","","1",""
"2010","","","","","3","html-keyboard-response","331","","","","",""
"2513","gift","baba,nyange,pagtawag,baso","pagtawag","j","3","html-keyboard-response","332","j","pagtawag","true","","4"
"3649.7999999970198","","","","","3","html-slider-response","333","","","","4",""
"2078","","","","","3","html-keyboard-response","334","","","","",""
"1585","apple","ukame,estante,kisu,edad","kisu","j","3","html-keyboard-response","335","j","kisu","true","","1"
"2101.1000000089407","","","","","3","html-slider-response","336","","","","5",""
"1108","","","","","3","html-keyboard-response","337","","","","",""
"1739","wheel","punda,bafuni,tawo,baadaye","bafuni","v","3","html-keyboard-response","338","v","bafuni","true","","1"
"2084.0999999940395","","","","","3","html-slider-response","339","","","","5",""
"1828","","","","","3","html-keyboard-response","340","","","","",""
"3761","knee","duka,mvuke,kubale,bili","duka","f","3","html-keyboard-response","341","f","duka","true","","4"
"1871.5999999940395","","","","","3","html-slider-response","342","","","","4",""
"1174","","","","","3","html-keyboard-response","343","","","","",""
"2531","basket","kumbuka,kumba,utepe,hasira","kumba","v","3","html-keyboard-response","344","v","kumba","true","","1"
"2637.2000000029802","","","","","3","html-slider-response","345","","","","5",""
"1270","","","","","3","html-keyboard-response","346","","","","",""
"2632","park","tambok,bunifu,pwani,ihalas","bunifu","v","3","html-keyboard-response","347","v","bunifu","true","","4"
"1621.4000000059605","","","","","3","html-slider-response","348","","","","4",""
"1994","","","","","3","html-keyboard-response","349","","","","",""
"6026","finger","simu,sufuria,moyo,lima","moyo","j","3","html-keyboard-response","350","j","moyo","true","","4"
"1846.7999999970198","","","","","3","html-slider-response","351","","","","4",""
"1966","","","","","3","html-keyboard-response","352","","","","",""
"2675","boat","agalon,hamsi,pombe,kitanda","agalon","f","3","html-keyboard-response","353","n","kitanda","false","","4"
"2530.5","","","","","3","html-slider-response","354","","","","5",""
"9911","","","","","3","html-keyboard-response","355","","","","",""
"3931","hill","kushoto,kukimba,sweta,matumbo","matumbo","n","3","html-keyboard-response","356","n","matumbo","true","","4"
"1919.5","","","","","3","html-slider-response","357","","","","2",""
"1268","","","","","3","html-keyboard-response","358","","","","",""
"4224","train","itik,dakika,mungu,sayari","sayari","n","3","html-keyboard-response","359","n","sayari","true","","4"
"1794.4000000059605","","","","","3","html-slider-response","360","","","","4",""
"1399","","","","","3","html-keyboard-response","361","","","","",""
"5368","wolf","kaburi,ndizi,lugha,mchuzi","lugha","j","3","html-keyboard-response","362","n","mchuzi","false","","4"
"1824.699999988079","","","","","3","html-slider-response","363","","","","2",""
"3771","","","","","3","html-keyboard-response","364","","","","",""
"5746","snake","jansa,karon,pagtukod,mvringo","pagtukod","j","3","html-keyboard-response","365","j","pagtukod","true","","4"
"2690.2000000029802","","","","","3","html-slider-response","366","","","","1",""
"2819","","","","","3","html-keyboard-response","367","","","","",""
"4763","tooth","kijiko,kabalaka,uadui,pahiyum","kabalaka","v","3","html-keyboard-response","368","v","kabalaka","true","","4"
"3853.0999999940395","","","","","3","html-slider-response","369","","","","1",""
"7146","","","","","3","html-keyboard-response","370","","","","",""
"4955","notebook","kemia,msitu,kila,mdudu","kemia","f","3","html-keyboard-response","371","j","kila","false","","4"
"2052.2999999970198","","","","","3","html-slider-response","372","","","","1",""
"2540","","","","","3","html-keyboard-response","373","","","","",""
"3387","flag","ndege,trekta,mkate,kawa","trekta","v","3","html-keyboard-response","374","v","trekta","true","","4"
"2851.9000000059605","","","","","3","html-slider-response","375","","","","5",""
"1194","","","","","3","html-keyboard-response","376","","","","",""
"2712","squirrel","hofu,mahugaw,ukweli,kichwa","hofu","f","3","html-keyboard-response","377","v","mahugaw","false","","4"
"2232","","","","","3","html-slider-response","378","","","","4",""
"1438","","","","","3","html-keyboard-response","379","","","","",""
"3895","door","tena,soko,surali,nyota","surali","j","3","html-keyboard-response","380","n","nyota","false","","4"
"4286.300000011921","","","","","3","html-slider-response","381","","","","1",""
"1481","","","","","3","html-keyboard-response","382","","","","",""
"3895","salmon","sensilyo,mzungu,seri,baharia","sensilyo","f","3","html-keyboard-response","383","f","sensilyo","true","","4"
"1896.6000000089407","","","","","3","html-slider-response","384","","","","4",""
"978","","","","","3","html-keyboard-response","385","","","","",""
"3303","shoulder","kelele,ndaniya,mkuu,guruwe","mkuu","j","3","html-keyboard-response","386","v","ndaniya","false","","4"
"1594.2000000029802","","","","","3","html-slider-response","387","","","","4",""
"2219","","","","","3","html-keyboard-response","388","","","","",""
"3773","lamp","daub,afya,bilaska,mbolea","afya","v","3","html-keyboard-response","389","j","bilaska","false","","4"
"2111.4000000059605","","","","","3","html-slider-response","390","","","","2",""
"1876","","","","","3","html-keyboard-response","391","","","","",""
"1772","shelf","bungtod,kadaot,awit,pamahaw","pamahaw","n","3","html-keyboard-response","392","n","pamahaw","true","","1"
"2616.2999999970198","","","","","3","html-slider-response","393","","","","5",""
"3376","","","","","3","html-keyboard-response","394","","","","",""
"4012","human","bado,kikapu,tinapay,punguza","tinapay","j","3","html-keyboard-response","395","j","tinapay","true","","4"
"2237.1000000089407","","","","","3","html-slider-response","396","","","","4",""
"2159","","","","","3","html-keyboard-response","397","","","","",""
"3173","towel","tembo,funzi,pito,pagpalit","pagpalit","n","3","html-keyboard-response","398","n","pagpalit","true","","4"
"2397.7000000029802","","","","","3","html-slider-response","399","","","","4",""
"1087","","","","","3","html-keyboard-response","400","","","","",""
"2344","cat","paghukom,neyemba,baki,akili","paghukom","f","3","html-keyboard-response","401","n","akili","false","","4"
"1658","","","","","3","html-slider-response","402","","","","4",""
"1671","","","","","3","html-keyboard-response","403","","","","",""
"6826","spider","bunyag,mkboa,kamwe,atop","kamwe","j","3","html-keyboard-response","404","v","mkboa","false","","4"
"2600.6000000089407","","","","","3","html-slider-response","405","","","","1",""
"1763","","","","","3","html-keyboard-response","406","","","","",""
"3942","window","kweli,nanga,kujenga,umaga","kweli","f","3","html-keyboard-response","407","f","kweli","true","","4"
"2645.5999999940395","","","","","3","html-slider-response","408","","","","4",""
"1416","","","","","3","html-keyboard-response","409","","","","",""
"2473","woman","pagtabon,bandari,bituin,kovuli","pagtabon","f","3","html-keyboard-response","410","f","pagtabon","true","","1"
"2188.9000000059605","","","","","3","html-slider-response","411","","","","5",""
"909","","","","","3","html-keyboard-response","412","","","","",""
"4709","giraffe","mahitabo,daraja,jumatu,hangyo","mahitabo","f","3","html-keyboard-response","413","f","mahitabo","true","","4"
"2313.5","","","","","3","html-slider-response","414","","","","5",""
"2282","","","","","3","html-keyboard-response","415","","","","",""
"2775","elephant","kito,petye,pagduol,suka","kito","f","3","html-keyboard-response","416","f","kito","true","","4"
"2003.7999999970198","","","","","3","html-slider-response","417","","","","5",""
"1117","","","","","3","html-keyboard-response","418","","","","",""
"3559","cave","kesho,ganti,maisha,nyundo","kesho","f","3","html-keyboard-response","419","n","nyundo","false","","4"
"2370.800000011921","","","","","3","html-slider-response","420","","","","5",""
"1667","","","","","3","html-keyboard-response","421","","","","",""
"3842","bread","kaili,dari,dizeli,bugas","dari","v","3","html-keyboard-response","422","v","dari","true","","4"
"1859.7000000029802","","","","","3","html-slider-response","423","","","","5",""
"884","","","","","3","html-keyboard-response","424","","","","",""
"3469","stone","ulimwengu,wingi,mkasi,asili","wingi","v","3","html-keyboard-response","425","n","asili","false","","4"
"1830.800000011921","","","","","3","html-slider-response","426","","","","4",""
"3630","","","","","3","html-keyboard-response","427","","","","",""
"2617","donkey","elfu,bloke,lalake,rombus","elfu","f","3","html-keyboard-response","428","f","elfu","true","","4"
"3536.699999988079","","","","","3","html-slider-response","429","","","","5",""
"1337","","","","","3","html-keyboard-response","430","","","","",""
"14612","bridge","daima,ngono,panya,sahani","sahani","n","3","html-keyboard-response","431","f","daima","false","","4"
"2625.2999999970198","","","","","3","html-slider-response","432","","","","4",""
"4870","","","","","3","html-keyboard-response","433","","","","",""
"4638","bonfire","mwezi,mfuko,goti,kusanya","goti","j","3","html-keyboard-response","434","v","mfuko","false","","4"
"1883.5","","","","","3","html-slider-response","435","","","","4",""
"1903","","","","","3","html-keyboard-response","436","","","","",""
"6952","book","kuhesa,picha,mali,mara","mali","j","3","html-keyboard-response","437","j","mali","true","","4"
"2420.3999999910593","","","","","3","html-slider-response","438","","","","1",""
"1194","","","","","3","html-keyboard-response","439","","","","",""
"5347","fish","bala,baho,imani,buli","buli","n","3","html-keyboard-response","440","n","buli","true","","4"
"1774.2000000029802","","","","","3","html-slider-response","441","","","","5",""
"2338","","","","","3","html-keyboard-response","442","","","","",""
"2482","spoon","betri,nzuri,ngazi,pagsulod","pagsulod","n","3","html-keyboard-response","443","v","nzuri","false","","4"
"2549.7000000029802","","","","","3","html-slider-response","444","","","","2",""
"1827","","","","","3","html-keyboard-response","445","","","","",""
"3406","scissors","duga,tanuri,mtawa,suga","tanuri","v","3","html-keyboard-response","446","j","mtawa","false","","4"
"1536.7000000029802","","","","","3","html-slider-response","447","","","","2",""
"2422","","","","","3","html-keyboard-response","448","","","","",""
"3479","page","wakala,ishiri,wimbo,skina","wimbo","j","3","html-keyboard-response","449","f","wakala","false","","4"
"1632.7999999970198","","","","","3","html-slider-response","450","","","","4",""
"1667","","","","","3","html-keyboard-response","451","","","","",""
"1686","nose","gubat,kopa,kidole,sehemu","sehemu","n","3","html-keyboard-response","452","n","sehemu","true","","1"
"1998.7999999970198","","","","","3","html-slider-response","453","","","","5",""
"1378","","","","","3","html-keyboard-response","454","","","","",""
"3583","ceiling","kugita,kawaida,rayna,maua","maua","n","3","html-keyboard-response","455","n","maua","true","","4"
"1724.2000000029802","","","","","3","html-slider-response","456","","","","5",""
"913","","","","","3","html-keyboard-response","457","","","","",""
"12636","bucket","baga,ijayo,kiatu,init","kiatu","j","3","html-keyboard-response","458","j","kiatu","true","","4"
"2677.7999999970198","","","","","3","html-slider-response","459","","","","1",""
"1630","","","","","3","html-keyboard-response","460","","","","",""
"2006","berry","abogado,nogozi,kinywa,kofia","kofia","n","3","html-keyboard-response","461","n","kofia","true","","1"
"2413","","","","","3","html-slider-response","462","","","","5",""
"1010","","","","","3","html-keyboard-response","463","","","","",""
"2743","mother","kahawa,babaye,mbuzi,jokofu","babaye","v","3","html-keyboard-response","464","v","babaye","true","","1"
"1960.1000000089407","","","","","3","html-slider-response","465","","","","5",""
"834","","","","","3","html-keyboard-response","466","","","","",""
"1798","mosquito","isda,taras,martilyo,gutom","martilyo","j","3","html-keyboard-response","467","j","martilyo","true","","4"
"1678.0999999940395","","","","","3","html-slider-response","468","","","","5",""
"835","","","","","3","html-keyboard-response","469","","","","",""
"4790","perfume","bino,sungura,ndogo,katuyoan","katuyoan","n","3","html-keyboard-response","470","n","katuyoan","true","","4"
"1999.7000000029802","","","","","3","html-slider-response","471","","","","2",""
"1589","","","","","3","html-keyboard-response","472","","","","",""
"3701","sheet","juuya,watu,kamantis,bililhon","bililhon","n","3","html-keyboard-response","473","n","bililhon","true","","4"
"1785.5","","","","","3","html-slider-response","474","","","","1",""
"969","","","","","3","html-keyboard-response","475","","","","",""
"2291","puppet","napulo,mazishi,lamok,godoro","mazishi","v","3","html-keyboard-response","476","v","mazishi","true","","1"
"2048.5","","","","","3","html-slider-response","477","","","","5",""
"1295","","","","","3","html-keyboard-response","478","","","","",""
"3139","poster","nchi,madungog,fedha,kasuko","madungog","v","3","html-keyboard-response","479","v","madungog","true","","4"
"1667.300000011921","","","","","3","html-slider-response","480","","","","1",""
"1583","","","","","3","html-keyboard-response","481","","","","",""
"3147","music","mraba,mageho,tumbo,baiski","baiski","n","3","html-keyboard-response","482","f","mraba","false","","4"
"2232.0999999940395","","","","","3","html-slider-response","483","","","","2",""
"3683","","","","","3","html-keyboard-response","484","","","","",""
"4626","key","miaka,goma,ahos,chombo","chombo","n","3","html-keyboard-response","485","n","chombo","true","","4"
"2164.199999988079","","","","","3","html-slider-response","486","","","","4",""
"1247","","","","","3","html-keyboard-response","487","","","","",""
"2767","sock","ndoora,kimysa,mamba,mtirka","mamba","j","3","html-keyboard-response","488","j","mamba","true","","4"
"2101.7000000029802","","","","","3","html-slider-response","489","","","","5",""
"791","","","","","3","html-keyboard-response","490","","","","",""
"4408","marker","mapafu,salita,atay,maji","maji","n","3","html-keyboard-response","491","f","mapafu","false","","4"
"1869.9000000059605","","","","","3","html-slider-response","492","","","","2",""
"1132","","","","","3","html-keyboard-response","493","","","","",""
"3279","office","hazini,yatima,kuna,leso","leso","n","3","html-keyboard-response","494","n","leso","true","","4"
"1832.6000000089407","","","","","3","html-slider-response","495","","","","2",""
"1801","","","","","3","html-keyboard-response","496","","","","",""
"3251","shoe","nyeusi,hatua,uyoga,kama","uyoga","j","3","html-keyboard-response","497","j","uyoga","true","","4"
"2167.1000000089407","","","","","3","html-slider-response","498","","","","5",""
"1035","","","","","3","html-keyboard-response","499","","","","",""
"1833","cop","mechezo,bustani,jikoni,bakus","mechezo","f","3","html-keyboard-response","500","j","jikoni","false","","4"
"1637.0999999940395","","","","","3","html-slider-response","501","","","","1",""
"1622","","","","","3","html-keyboard-response","502","","","","",""
"5034","bank","silingan,kudhibi,tualya,ofisi","silingan","f","3","html-keyboard-response","503","v","kudhibi","false","","4"
"1951","","","","","3","html-slider-response","504","","","","1",""
"1615","","","","","3","html-keyboard-response","505","","","","",""
"1768","letter","kifua,filimbi,chuma,uhuru","kifua","f","3","html-keyboard-response","506","f","kifua","true","","1"
"2142","","","","","3","html-slider-response","507","","","","5",""
"2001","","","","","3","html-keyboard-response","508","","","","",""
"1818","dog","lubi,washia,bahari,kalamu","bahari","j","3","html-keyboard-response","509","j","bahari","true","","1"
"1885.800000011921","","","","","3","html-slider-response","510","","","","5",""
"1247","","","","","3","html-keyboard-response","511","","","","",""
"9777","shop","samaki,nopya,kerida,ndezu","samaki","f","3","html-keyboard-response","512","f","samaki","true","","4"
"2322.2000000029802","","","","","3","html-slider-response","513","","","","1",""
"1416","","","","","3","html-keyboard-response","514","","","","",""
"4077","flower","tamasha,lobo,bega,usiku","bega","j","3","html-keyboard-response","515","n","usiku","false","","4"
"1529.7000000029802","","","","","3","html-slider-response","516","","","","1",""
"1704","","","","","3","html-keyboard-response","517","","","","",""
"2708","cigar","ndugu,adhabu,kuta,mlango","adhabu","v","3","html-keyboard-response","518","v","adhabu","true","","1"
"1593.2000000029802","","","","","3","html-slider-response","519","","","","5",""
"834","","","","","3","html-keyboard-response","520","","","","",""
"6151","hammer","mekno,napakyas,kitovu,layag","napakyas","v","3","html-keyboard-response","521","v","napakyas","true","","4"
"1652.5","","","","","3","html-slider-response","522","","","","4",""
"1682","","","","","3","html-keyboard-response","523","","","","",""
"3471","fork","baboy,paghago,gorisi,mgonjwa","mgonjwa","n","3","html-keyboard-response","524","v","paghago","false","","4"
"1487.7999999970198","","","","","3","html-slider-response","525","","","","1",""
"1431","","","","","3","html-keyboard-response","526","","","","",""
"2280","sun","bendi,luha,basi,uongo","basi","j","3","html-keyboard-response","527","j","basi","true","","1"
"1582","","","","","3","html-slider-response","528","","","","5",""
"865","","","","","3","html-keyboard-response","529","","","","",""
"4351","ladder","mashua,pangalan,mwanga,kamba","pangalan","v","3","html-keyboard-response","530","j","mwanga","false","","4"
"2820.4000000059605","","","","","3","html-slider-response","531","","","","1",""
"1484","","","","","3","html-keyboard-response","532","","","","",""
"1666","banana","kasamok,hagdan,kazi,twai","kazi","j","3","html-keyboard-response","533","j","kazi","true","","1"
"1842","","","","","3","html-slider-response","534","","","","5",""
"528","","","","","3","html-keyboard-response","535","","","","",""
"4408","pudding","abug,mpishi,iring,aibu","aibu","n","3","html-keyboard-response","536","n","aibu","true","","4"
"1892.6000000089407","","","","","3","html-slider-response","537","","","","1",""
"1336","","","","","3","html-keyboard-response","538","","","","",""
"6769","body","nyundu,jibini,kununa,tindashan","tindashan","n","3","html-keyboard-response","539","f","nyundu","false","","4"
"2160.2999999970198","","","","","3","html-slider-response","540","","","","2",""
"1050","","","","","3","html-keyboard-response","541","","","","",""
"3978","bed","kalipay,haraka,starehe,mapintas","mapintas","n","3","html-keyboard-response","542","n","mapintas","true","","4"
"1431.8999999910593","","","","","3","html-slider-response","543","","","","2",""
"1231","","","","","3","html-keyboard-response","544","","","","",""
"4106","tissue","ugomvi,lamigas,kisiwa,katika","ugomvi","f","3","html-keyboard-response","545","n","katika","false","","4"
"1905.1000000089407","","","","","3","html-slider-response","546","","","","2",""
"2211","","","","","3","html-keyboard-response","547","","","","",""
"2405","candle","gabi,geza,farasi,kupanda","geza","v","3","html-keyboard-response","548","v","geza","true","","4"
"1771","","","","","3","html-slider-response","549","","","","5",""
"1290","","","","","3","html-keyboard-response","550","","","","",""
"2099","tomato","chupi,chupa,mvua,takatak","mvua","j","3","html-keyboard-response","551","j","mvua","true","","1"
"1543.1000000089407","","","","","3","html-slider-response","552","","","","5",""
"1019","","","","","3","html-keyboard-response","553","","","","",""
"6907","list","wingu,alizeti,kuzama,kaso","wingu","f","3","html-keyboard-response","554","f","wingu","true","","4"
"1624","","","","","3","html-slider-response","555","","","","1",""
"1484","","","","","3","html-keyboard-response","556","","","","",""
"6247","olive","bata,jiwe,siagi,welder","jiwe","v","3","html-keyboard-response","557","v","jiwe","true","","4"
"1804.9000000059605","","","","","3","html-slider-response","558","","","","4",""
"939","","","","","3","html-keyboard-response","559","","","","",""
"2142","picture","silya,chaki,kubwa,asin","kubwa","j","3","html-keyboard-response","560","j","kubwa","true","","1"
"1504.5","","","","","3","html-slider-response","561","","","","5",""
"465","","","","","3","html-keyboard-response","562","","","","",""
"4166","page","wakala,ishiri,skina,wimbo","wimbo","n","4","html-keyboard-response","888","n","wimbo","true","",""
"3066.5","","","","","4","html-slider-response","889","","","","4",""
"4494","sheet","juuya,watu,kamantis,bililhon","bililhon","n","4","html-keyboard-response","890","j","kamantis","false","",""
"1234","","","","","4","html-slider-response","891","","","","4",""
"5649","ladder","mashua,mwanga,kamba,pangalan","pangalan","n","4","html-keyboard-response","892","v","mwanga","false","",""
"1323.0999999940395","","","","","4","html-slider-response","893","","","","2",""
"3519","door","surali,tena,soko,nyota","surali","f","4","html-keyboard-response","894","n","nyota","false","",""
"986.2000000029802","","","","","4","html-slider-response","895","","","","4",""
"2095","spider","bunyag,mkboa,atop,kamwe","kamwe","n","4","html-keyboard-response","896","n","kamwe","true","",""
"1262.2000000029802","","","","","4","html-slider-response","897","","","","4",""
"3856","picture","kubwa,silya,chaki,asin","kubwa","f","4","html-keyboard-response","898","f","kubwa","true","",""
"857.8000000119209","","","","","4","html-slider-response","899","","","","2",""
"2660","boat","hamsi,pombe,agalon,kitanda","agalon","j","4","html-keyboard-response","900","n","kitanda","false","",""
"1299","","","","","4","html-slider-response","901","","","","2",""
"1864","donkey","bloke,elfu,lalake,rombus","elfu","v","4","html-keyboard-response","902","v","elfu","true","",""
"1546","","","","","4","html-slider-response","903","","","","5",""
"4420","book","kuhesa,picha,mara,mali","mali","n","4","html-keyboard-response","904","j","mara","false","",""
"1908.199999988079","","","","","4","html-slider-response","905","","","","4",""
"4549","cup","dagat,shimoni,jeraha,matumai","matumai","n","4","html-keyboard-response","906","n","matumai","true","",""
"2033","","","","","4","html-slider-response","907","","","","4",""
"4042","sun","bendi,luha,uongo,basi","basi","n","4","html-keyboard-response","908","n","basi","true","",""
"2592.2000000029802","","","","","4","html-slider-response","909","","","","4",""
"2129","pudding","aibu,abug,mpishi,iring","aibu","f","4","html-keyboard-response","910","f","aibu","true","",""
"1139","","","","","4","html-slider-response","911","","","","4",""
"3399","human","bado,kikapu,tinapay,punguza","tinapay","j","4","html-keyboard-response","912","j","tinapay","true","",""
"1234.2000000029802","","","","","4","html-slider-response","913","","","","4",""
"3238","squirrel","mahugaw,ukweli,hofu,kichwa","hofu","j","4","html-keyboard-response","914","f","mahugaw","false","",""
"989.3999999910593","","","","","4","html-slider-response","915","","","","1",""
"3794","park","tambok,bunifu,pwani,ihalas","bunifu","v","4","html-keyboard-response","916","v","bunifu","true","",""
"1258.4000000059605","","","","","4","html-slider-response","917","","","","2",""
"2977","poster","madungog,nchi,fedha,kasuko","madungog","f","4","html-keyboard-response","918","f","madungog","true","",""
"1003.7000000029802","","","","","4","html-slider-response","919","","","","4",""
"3015","wolf","kaburi,ndizi,mchuzi,lugha","lugha","n","4","html-keyboard-response","920","n","lugha","true","",""
"905","","","","","4","html-slider-response","921","","","","4",""
"5311","cat","neyemba,paghukom,baki,akili","paghukom","v","4","html-keyboard-response","922","v","paghukom","true","",""
"1572.7999999970198","","","","","4","html-slider-response","923","","","","2",""
"2882","fish","bala,baho,buli,imani","buli","j","4","html-keyboard-response","924","j","buli","true","",""
"993.7999999970198","","","","","4","html-slider-response","925","","","","2",""
"4540","tooth","kijiko,kabalaka,uadui,pahiyum","kabalaka","v","4","html-keyboard-response","926","v","kabalaka","true","",""
"954.7000000029802","","","","","4","html-slider-response","927","","","","4",""
"4562","cave","ganti,kesho,maisha,nyundo","kesho","v","4","html-keyboard-response","928","n","nyundo","false","",""
"1136.300000011921","","","","","4","html-slider-response","929","","","","2",""
"4458","lamp","daub,afya,bilaska,mbolea","afya","v","4","html-keyboard-response","930","v","afya","true","",""
"1472","","","","","4","html-slider-response","931","","","","1",""
"1526","banana","kasamok,hagdan,twai,kazi","kazi","n","4","html-keyboard-response","932","n","kazi","true","",""
"1374.5999999940395","","","","","4","html-slider-response","933","","","","4",""
"1891","bonfire","mwezi,mfuko,goti,kusanya","goti","j","4","html-keyboard-response","934","j","goti","true","",""
"1007.8999999910593","","","","","4","html-slider-response","935","","","","4",""
"2474","cop","bustani,mechezo,jikoni,bakus","mechezo","v","4","html-keyboard-response","936","v","mechezo","true","",""
"1140.2000000029802","","","","","4","html-slider-response","937","","","","5",""
"2216","marker","mapafu,salita,maji,atay","maji","j","4","html-keyboard-response","938","j","maji","true","",""
"1891.5","","","","","4","html-slider-response","939","","","","5",""
"2693","window","kweli,nanga,kujenga,umaga","kweli","f","4","html-keyboard-response","940","f","kweli","true","",""
"956.2000000029802","","","","","4","html-slider-response","941","","","","4",""
"1911","body","nyundu,tindashan,jibini,kununa","tindashan","v","4","html-keyboard-response","942","v","tindashan","true","",""
"1205.9000000059605","","","","","4","html-slider-response","943","","","","4",""
"2167","apple","kisu,ukame,estante,edad","kisu","f","4","html-keyboard-response","944","v","ukame","false","",""
"2367.7000000029802","","","","","4","html-slider-response","945","","","","2",""
"2207","salmon","mzungu,seri,baharia,sensilyo","sensilyo","n","4","html-keyboard-response","946","n","sensilyo","true","",""
"1338.2999999970198","","","","","4","html-slider-response","947","","","","4",""
"1839","bed","kalipay,mapintas,haraka,starehe","mapintas","v","4","html-keyboard-response","948","v","mapintas","true","",""
"1241.9000000059605","","","","","4","html-slider-response","949","","","","4",""
"7865","berry","kofia,abogado,nogozi,kinywa","kofia","f","4","html-keyboard-response","950","n","kinywa","false","",""
"2106.3999999910593","","","","","4","html-slider-response","951","","","","1",""
"3757","mirror","rangi,kanding,sulagma,furaha","sulagma","j","4","html-keyboard-response","952","j","sulagma","true","",""
"1371","","","","","4","html-slider-response","953","","","","2",""
"2060","flag","ndege,mkate,kawa,trekta","trekta","n","4","html-keyboard-response","954","n","trekta","true","",""
"1102.7000000029802","","","","","4","html-slider-response","955","","","","5",""
"5164","shoulder","kelele,mkuu,ndaniya,guruwe","mkuu","v","4","html-keyboard-response","956","v","mkuu","true","",""
"923","","","","","4","html-slider-response","957","","","","2",""
"2397","tissue","lamigas,ugomvi,kisiwa,katika","ugomvi","v","4","html-keyboard-response","958","v","ugomvi","true","",""
"811.0999999940395","","","","","4","html-slider-response","959","","","","4",""
"3571","notebook","msitu,kila,mdudu,kemia","kemia","n","4","html-keyboard-response","960","j","mdudu","false","",""
"2050.7999999970198","","","","","4","html-slider-response","961","","","","2",""
"6526","snake","jansa,karon,mvringo,pagtukod","pagtukod","n","4","html-keyboard-response","962","v","karon","false","",""
"2561.699999988079","","","","","4","html-slider-response","963","","","","1",""
"3445","finger","simu,sufuria,lima,moyo","moyo","n","4","html-keyboard-response","964","n","moyo","true","",""
"1637.2999999970198","","","","","4","html-slider-response","965","","","","4",""
"3984","basket","kumba,kumbuka,utepe,hasira","kumba","f","4","html-keyboard-response","966","v","kumbuka","false","",""
"739.5999999940395","","","","","4","html-slider-response","967","","","","4",""
"2151","curtain","lisud,bulwawan,mchanga,chubani","mchanga","j","4","html-keyboard-response","968","j","mchanga","true","",""
"2961.0999999940395","","","","","4","html-slider-response","969","","","","4",""
"2730","perfume","bino,sungura,katuyoan,ndogo","katuyoan","j","4","html-keyboard-response","970","j","katuyoan","true","",""
"1243.5","","","","","4","html-slider-response","971","","","","5",""
"2132","key","miaka,chombo,goma,ahos","chombo","v","4","html-keyboard-response","972","j","goma","false","",""
"1631.3999999910593","","","","","4","html-slider-response","973","","","","1",""
"1501","olive","bata,siagi,jiwe,welder","jiwe","j","4","html-keyboard-response","974","j","jiwe","true","",""
"963.7999999970198","","","","","4","html-slider-response","975","","","","5",""
"5145","rose","singizi,mwanake,paghalad,amani","paghalad","j","4","html-keyboard-response","976","j","paghalad","true","",""
"978.8999999910593","","","","","4","html-slider-response","977","","","","4",""
"4029","bridge","daima,ngono,sahani,panya","sahani","j","4","html-keyboard-response","978","v","ngono","false","",""
"1168.2999999970198","","","","","4","html-slider-response","979","","","","2",""
"5868","hill","kushoto,kukimba,matumbo,sweta","matumbo","j","4","html-keyboard-response","980","j","matumbo","true","",""
"1014.6000000089407","","","","","4","html-slider-response","981","","","","1",""
"7119","letter","filimbi,chuma,kifua,uhuru","kifua","j","4","html-keyboard-response","982","n","uhuru","false","",""
"1533","","","","","4","html-slider-response","983","","","","2",""
"2193","sock","mamba,ndoora,kimysa,mtirka","mamba","f","4","html-keyboard-response","984","f","mamba","true","",""
"1382.2999999970198","","","","","4","html-slider-response","985","","","","5",""
"3988","fork","baboy,paghago,gorisi,mgonjwa","mgonjwa","n","4","html-keyboard-response","986","n","mgonjwa","true","",""
"1222","","","","","4","html-slider-response","987","","","","2",""
"5755","box","kuacha,adui,rafiki,kitande","adui","v","4","html-keyboard-response","988","n","kitande","false","",""
"1704.9000000059605","","","","","4","html-slider-response","989","","","","2",""
"3197","gift","pagtawag,baba,nyange,baso","pagtawag","f","4","html-keyboard-response","990","f","pagtawag","true","",""
"2440.3999999910593","","","","","4","html-slider-response","991","","","","4",""
"5291","bucket","baga,ijayo,kiatu,init","kiatu","j","4","html-keyboard-response","992","f","baga","false","",""
"1080","","","","","4","html-slider-response","993","","","","2",""
"3334","shop","nopya,kerida,samaki,ndezu","samaki","j","4","html-keyboard-response","994","j","samaki","true","",""
"1397.3999999910593","","","","","4","html-slider-response","995","","","","5",""
"3237","puppet","napulo,lamok,godoro,mazishi","mazishi","n","4","html-keyboard-response","996","n","mazishi","true","",""
"1387.0999999940395","","","","","4","html-slider-response","997","","","","5",""
"4397","nose","gubat,kopa,kidole,sehemu","sehemu","n","4","html-keyboard-response","998","n","sehemu","true","",""
"1082.6000000089407","","","","","4","html-slider-response","999","","","","1",""
"3956","music","mraba,baiski,mageho,tumbo","baiski","v","4","html-keyboard-response","1000","v","baiski","true","",""
"1703","","","","","4","html-slider-response","1001","","","","5",""
"4459","dog","lubi,bahari,washia,kalamu","bahari","v","4","html-keyboard-response","1002","j","washia","false","",""
"1170","","","","","4","html-slider-response","1003","","","","1",""
"6261","eel","msumari,ishara,kunywa,kabuang","msumari","f","4","html-keyboard-response","1004","j","kunywa","false","",""
"1146.8999999910593","","","","","4","html-slider-response","1005","","","","2",""
"4118","number","shule,kengele,choori,mundamo","mundamo","n","4","html-keyboard-response","1006","n","mundamo","true","",""
"1053.2999999970198","","","","","4","html-slider-response","1007","","","","1",""
"4374","tomato","mvua,chupi,chupa,takatak","mvua","f","4","html-keyboard-response","1008","v","chupi","false","",""
"1563.2000000029802","","","","","4","html-slider-response","1009","","","","1",""
"1620","coffin","barua,kioo,tubag,hulma","kioo","v","4","html-keyboard-response","1010","v","kioo","true","",""
"1211.7999999970198","","","","","4","html-slider-response","1011","","","","5",""
"3356","knee","mvuke,kubale,duka,bili","duka","j","4","html-keyboard-response","1012","j","duka","true","",""
"975.4000000059605","","","","","4","html-slider-response","1013","","","","2",""
"3130","woman","bandari,bituin,pagtabon,kovuli","pagtabon","j","4","html-keyboard-response","1014","j","pagtabon","true","",""
"1075.5999999940395","","","","","4","html-slider-response","1015","","","","4",""
"1899","stone","ulimwengu,wingi,mkasi,asili","wingi","v","4","html-keyboard-response","1016","v","wingi","true","",""
"951.2999999970198","","","","","4","html-slider-response","1017","","","","4",""
"1907","bread","kaili,dizeli,dari,bugas","dari","j","4","html-keyboard-response","1018","j","dari","true","",""
"977.4000000059605","","","","","4","html-slider-response","1019","","","","5",""
"2272","triangle","kihozi,bentaha,liog,kasadpan","kasadpan","n","4","html-keyboard-response","1020","j","liog","false","",""
"1377.0999999940395","","","","","4","html-slider-response","1021","","","","4",""
"5334","scissors","duga,mtawa,tanuri,suga","tanuri","j","4","html-keyboard-response","1022","f","duga","false","",""
"1181.2999999970198","","","","","4","html-slider-response","1023","","","","2",""
"6965","giraffe","daraja,mahitabo,jumatu,hangyo","mahitabo","v","4","html-keyboard-response","1024","v","mahitabo","true","",""
"958.7000000029802","","","","","4","html-slider-response","1025","","","","2",""
"1845","flower","tamasha,lobo,usiku,bega","bega","n","4","html-keyboard-response","1026","n","bega","true","",""
"2293.2000000029802","","","","","4","html-slider-response","1027","","","","4",""
"2415","candle","gabi,farasi,kupanda,geza","geza","n","4","html-keyboard-response","1028","n","geza","true","",""
"1174.5","","","","","4","html-slider-response","1029","","","","5",""
"2390","mother","kahawa,mbuzi,jokofu,babaye","babaye","n","4","html-keyboard-response","1030","n","babaye","true","",""
"1351.2000000029802","","","","","4","html-slider-response","1031","","","","5",""
"3422","towel","tembo,pagpalit,funzi,pito","pagpalit","v","4","html-keyboard-response","1032","v","pagpalit","true","",""
"1112.1000000089407","","","","","4","html-slider-response","1033","","","","4",""
"1525","elephant","petye,pagduol,kito,suka","kito","j","4","html-keyboard-response","1034","j","kito","true","",""
"1360.4000000059605","","","","","4","html-slider-response","1035","","","","5",""
"7841","shelf","bungtod,kadaot,pamahaw,awit","pamahaw","j","4","html-keyboard-response","1036","j","pamahaw","true","",""
"1552.4000000059605","","","","","4","html-slider-response","1037","","","","4",""
"1357","mosquito","isda,taras,martilyo,gutom","martilyo","j","4","html-keyboard-response","1038","j","martilyo","true","",""
"1616.7000000029802","","","","","4","html-slider-response","1039","","","","5",""
"4563","column","ufagio,pundok,dila,pala","ufagio","f","4","html-keyboard-response","1040","n","pala","false","",""
"1284.7999999970198","","","","","4","html-slider-response","1041","","","","1",""
"3210","pants","pintal,chuki,haki,hari","haki","j","4","html-keyboard-response","1042","j","haki","true","",""
"1211","","","","","4","html-slider-response","1043","","","","5",""
"3451","list","alizeti,wingu,kuzama,kaso","wingu","v","4","html-keyboard-response","1044","v","wingu","true","",""
"1391.7000000029802","","","","","4","html-slider-response","1045","","","","4",""
"2525","bank","kudhibi,tualya,silingan,ofisi","silingan","j","4","html-keyboard-response","1046","j","silingan","true","",""
"1838.2999999970198","","","","","4","html-slider-response","1047","","","","5",""
"5317","clock","mbwa,kartasi,abang,osha","mbwa","f","4","html-keyboard-response","1048","f","mbwa","true","",""
"2038","","","","","4","html-slider-response","1049","","","","2",""
"4679","ceiling","kugita,kawaida,maua,rayna","maua","j","4","html-keyboard-response","1050","j","maua","true","",""
"1400.1000000089407","","","","","4","html-slider-response","1051","","","","4",""
"3984","train","itik,sayari,dakika,mungu","sayari","v","4","html-keyboard-response","1052","n","mungu","false","",""
"2156.4000000059605","","","","","4","html-slider-response","1053","","","","1",""
"4886","magazine","gundi,mchawi,bahandi,kiti","kiti","n","4","html-keyboard-response","1054","n","kiti","true","",""
"1391.3999999910593","","","","","4","html-slider-response","1055","","","","1",""
"1724","office","hazini,yatima,leso,kuna","leso","j","4","html-keyboard-response","1056","j","leso","true","",""
"929.5999999940395","","","","","4","html-slider-response","1057","","","","5",""
"5309","wheel","bafuni,punda,tawo,baadaye","bafuni","f","4","html-keyboard-response","1058","n","baadaye","false","",""
"1461.0999999940395","","","","","4","html-slider-response","1059","","","","1",""
"3557","spoon","betri,nzuri,pagsulod,ngazi","pagsulod","j","4","html-keyboard-response","1060","j","pagsulod","true","",""
"1001.5999999940395","","","","","4","html-slider-response","1061","","","","2",""
"2160","hammer","mekno,kitovu,layag,napakyas","napakyas","n","4","html-keyboard-response","1062","n","napakyas","true","",""
"1849.5","","","","","4","html-slider-response","1063","","","","5",""
"3769","cigar","adhabu,ndugu,kuta,mlango","adhabu","f","4","html-keyboard-response","1064","f","adhabu","true","",""
"1261.7000000029802","","","","","4","html-slider-response","1065","","","","2",""
"2372","shoe","uyoga,nyeusi,hatua,kama","uyoga","f","4","html-keyboard-response","1066","f","uyoga","true","",""
"2117.800000011921","","","","","4","html-slider-response","1067","","","","5",""
"2425","list","alizeti,kuzama,kaso,wingu","wingu","n","5","html-keyboard-response","1069","n","wingu","true","",""
"1153.5","","","","","5","html-slider-response","1070","","","","4",""
"3657","number","shule,mundamo,kengele,choori","mundamo","v","5","html-keyboard-response","1071","v","mundamo","true","",""
"1170","","","","","5","html-slider-response","1072","","","","2",""
"3676","apple","ukame,kisu,estante,edad","kisu","v","5","html-keyboard-response","1073","f","ukame","false","",""
"2282.2000000029802","","","","","5","html-slider-response","1074","","","","1",""
"5223","knee","mvuke,kubale,duka,bili","duka","j","5","html-keyboard-response","1075","j","duka","true","",""
"1899","","","","","5","html-slider-response","1076","","","","1",""
"2777","tooth","kabalaka,kijiko,uadui,pahiyum","kabalaka","f","5","html-keyboard-response","1077","f","kabalaka","true","",""
"1613.3999999910593","","","","","5","html-slider-response","1078","","","","4",""
"2770","berry","abogado,nogozi,kofia,kinywa","kofia","j","5","html-keyboard-response","1079","n","kinywa","false","",""
"847.7999999970198","","","","","5","html-slider-response","1080","","","","2",""
"4789","bridge","daima,ngono,sahani,panya","sahani","j","5","html-keyboard-response","1081","v","ngono","false","",""
"1456.2999999970198","","","","","5","html-slider-response","1082","","","","1",""
"3124","perfume","katuyoan,bino,sungura,ndogo","katuyoan","f","5","html-keyboard-response","1083","f","katuyoan","true","",""
"1440.7000000029802","","","","","5","html-slider-response","1084","","","","5",""
"4274","ladder","mashua,pangalan,mwanga,kamba","pangalan","v","5","html-keyboard-response","1085","v","pangalan","true","",""
"1050","","","","","5","html-slider-response","1086","","","","2",""
"1875","pants","pintal,chuki,hari,haki","haki","n","5","html-keyboard-response","1087","n","haki","true","",""
"806.6999999880791","","","","","5","html-slider-response","1088","","","","5",""
"2265","salmon","sensilyo,mzungu,seri,baharia","sensilyo","f","5","html-keyboard-response","1089","f","sensilyo","true","",""
"1054.9000000059605","","","","","5","html-slider-response","1090","","","","5",""
"1583","coffin","kioo,barua,tubag,hulma","kioo","f","5","html-keyboard-response","1091","f","kioo","true","",""
"1376.699999988079","","","","","5","html-slider-response","1092","","","","5",""
"5145","park","tambok,pwani,ihalas,bunifu","bunifu","n","5","html-keyboard-response","1093","n","bunifu","true","",""
"829.7000000029802","","","","","5","html-slider-response","1094","","","","2",""
"8235","giraffe","daraja,jumatu,mahitabo,hangyo","mahitabo","j","5","html-keyboard-response","1095","n","hangyo","false","",""
"1189.2999999970198","","","","","5","html-slider-response","1096","","","","1",""
"4785","mirror","rangi,kanding,furaha,sulagma","sulagma","n","5","html-keyboard-response","1097","n","sulagma","true","",""
"1099.7000000029802","","","","","5","html-slider-response","1098","","","","2",""
"1854","ceiling","kugita,kawaida,rayna,maua","maua","n","5","html-keyboard-response","1099","n","maua","true","",""
"1219.5999999940395","","","","","5","html-slider-response","1100","","","","4",""
"1597","marker","mapafu,maji,salita,atay","maji","v","5","html-keyboard-response","1101","v","maji","true","",""
"1714.0999999940395","","","","","5","html-slider-response","1102","","","","5",""
"1571","sock","ndoora,kimysa,mamba,mtirka","mamba","j","5","html-keyboard-response","1103","j","mamba","true","",""
"1599.3999999910593","","","","","5","html-slider-response","1104","","","","5",""
"1629","cop","mechezo,bustani,jikoni,bakus","mechezo","f","5","html-keyboard-response","1105","f","mechezo","true","",""
"1025.2999999970198","","","","","5","html-slider-response","1106","","","","5",""
"2104","gift","baba,pagtawag,nyange,baso","pagtawag","v","5","html-keyboard-response","1107","v","pagtawag","true","",""
"1228.5","","","","","5","html-slider-response","1108","","","","4",""
"5110","notebook","msitu,kemia,kila,mdudu","kemia","v","5","html-keyboard-response","1109","j","kila","false","",""
"901.7999999970198","","","","","5","html-slider-response","1110","","","","4",""
"1911","bank","kudhibi,silingan,tualya,ofisi","silingan","v","5","html-keyboard-response","1111","v","silingan","true","",""
"1094.7000000029802","","","","","5","html-slider-response","1112","","","","5",""
"5829","letter","filimbi,chuma,uhuru,kifua","kifua","n","5","html-keyboard-response","1113","v","chuma","false","",""
"1104.4000000059605","","","","","5","html-slider-response","1114","","","","1",""
"2724","candle","gabi,farasi,geza,kupanda","geza","j","5","html-keyboard-response","1115","j","geza","true","",""
"1692","","","","","5","html-slider-response","1116","","","","5",""
"1331","bread","kaili,dizeli,dari,bugas","dari","j","5","html-keyboard-response","1117","j","dari","true","",""
"1484.7000000029802","","","","","5","html-slider-response","1118","","","","5",""
"2249","snake","jansa,karon,mvringo,pagtukod","pagtukod","n","5","html-keyboard-response","1119","v","karon","false","",""
"1356.1000000089407","","","","","5","html-slider-response","1120","","","","1",""
"6055","rose","paghalad,singizi,mwanake,amani","paghalad","f","5","html-keyboard-response","1121","f","paghalad","true","",""
"1344.7999999970198","","","","","5","html-slider-response","1122","","","","1",""
"4723","hill","kushoto,kukimba,matumbo,sweta","matumbo","j","5","html-keyboard-response","1123","j","matumbo","true","",""
"1628.0999999940395","","","","","5","html-slider-response","1124","","","","1",""
"3054","train","itik,sayari,dakika,mungu","sayari","v","5","html-keyboard-response","1125","j","dakika","false","",""
"1278.7000000029802","","","","","5","html-slider-response","1126","","","","1",""
"3106","shop","nopya,kerida,ndezu,samaki","samaki","n","5","html-keyboard-response","1127","n","samaki","true","",""
"919.6000000089407","","","","","5","html-slider-response","1128","","","","4",""
"7338","nose","gubat,sehemu,kopa,kidole","sehemu","v","5","html-keyboard-response","1129","v","sehemu","true","",""
"2184.5","","","","","5","html-slider-response","1130","","","","1",""
"4475","boat","agalon,hamsi,pombe,kitanda","agalon","f","5","html-keyboard-response","1131","f","agalon","true","",""
"1455.5","","","","","5","html-slider-response","1132","","","","2",""
"1978","body","nyundu,tindashan,jibini,kununa","tindashan","v","5","html-keyboard-response","1133","v","tindashan","true","",""
"1490.7999999970198","","","","","5","html-slider-response","1134","","","","4",""
"1563","bed","kalipay,haraka,starehe,mapintas","mapintas","n","5","html-keyboard-response","1135","n","mapintas","true","",""
"1643.7000000029802","","","","","5","html-slider-response","1136","","","","5",""
"3854","squirrel","mahugaw,ukweli,kichwa,hofu","hofu","n","5","html-keyboard-response","1137","f","mahugaw","false","",""
"814.1000000089407","","","","","5","html-slider-response","1138","","","","2",""
"2160","window","kweli,nanga,kujenga,umaga","kweli","f","5","html-keyboard-response","1139","f","kweli","true","",""
"860.7000000029802","","","","","5","html-slider-response","1140","","","","2",""
"4297","bonfire","mwezi,goti,mfuko,kusanya","goti","v","5","html-keyboard-response","1141","f","mwezi","false","",""
"1663.4000000059605","","","","","5","html-slider-response","1142","","","","2",""
"3873","fish","buli,bala,baho,imani","buli","f","5","html-keyboard-response","1143","v","bala","false","",""
"1223","","","","","5","html-slider-response","1144","","","","2",""
"5820","cat","neyemba,paghukom,baki,akili","paghukom","v","5","html-keyboard-response","1145","j","baki","false","",""
"1273.2000000029802","","","","","5","html-slider-response","1146","","","","1",""
"5008","spider","kamwe,bunyag,mkboa,atop","kamwe","f","5","html-keyboard-response","1147","f","kamwe","true","",""
"1486.2999999970198","","","","","5","html-slider-response","1148","","","","2",""
"3197","eel","msumari,ishara,kunywa,kabuang","msumari","f","5","html-keyboard-response","1149","j","kunywa","false","",""
"947.0999999940395","","","","","5","html-slider-response","1150","","","","2",""
"5029","woman","bandari,bituin,kovuli,pagtabon","pagtabon","n","5","html-keyboard-response","1151","n","pagtabon","true","",""
"1414.5","","","","","5","html-slider-response","1152","","","","4",""
"1471","magazine","gundi,mchawi,bahandi,kiti","kiti","n","5","html-keyboard-response","1153","n","kiti","true","",""
"1211.1000000089407","","","","","5","html-slider-response","1154","","","","4",""
"3103","pudding","abug,mpishi,aibu,iring","aibu","j","5","html-keyboard-response","1155","j","aibu","true","",""
"1205.9000000059605","","","","","5","html-slider-response","1156","","","","4",""
"2326","lamp","daub,bilaska,mbolea,afya","afya","n","5","html-keyboard-response","1157","n","afya","true","",""
"868.8000000119209","","","","","5","html-slider-response","1158","","","","2",""
"2451","cave","ganti,kesho,maisha,nyundo","kesho","v","5","html-keyboard-response","1159","n","nyundo","false","",""
"1492","","","","","5","html-slider-response","1160","","","","1",""
"3746","shoulder","kelele,mkuu,ndaniya,guruwe","mkuu","v","5","html-keyboard-response","1161","v","mkuu","true","",""
"2347.5999999940395","","","","","5","html-slider-response","1162","","","","1",""
"3365","stone","ulimwengu,mkasi,wingi,asili","wingi","j","5","html-keyboard-response","1163","j","wingi","true","",""
"1576.800000011921","","","","","5","html-slider-response","1164","","","","4",""
"4483","column","pundok,dila,ufagio,pala","ufagio","j","5","html-keyboard-response","1165","f","pundok","false","",""
"1318.5999999940395","","","","","5","html-slider-response","1166","","","","1",""
"2914","page","wakala,wimbo,ishiri,skina","wimbo","v","5","html-keyboard-response","1167","v","wimbo","true","",""
"1290","","","","","5","html-slider-response","1168","","","","4",""
"2303","shoe","uyoga,nyeusi,hatua,kama","uyoga","f","5","html-keyboard-response","1169","f","uyoga","true","",""
"1446","","","","","5","html-slider-response","1170","","","","5",""
"2289","clock","kartasi,abang,osha,mbwa","mbwa","n","5","html-keyboard-response","1171","n","mbwa","true","",""
"1781.2000000029802","","","","","5","html-slider-response","1172","","","","4",""
"1715","towel","tembo,funzi,pagpalit,pito","pagpalit","j","5","html-keyboard-response","1173","j","pagpalit","true","",""
"997","","","","","5","html-slider-response","1174","","","","4",""
"1963","tomato","mvua,chupi,chupa,takatak","mvua","f","5","html-keyboard-response","1175","n","takatak","false","",""
"2707.3999999910593","","","","","5","html-slider-response","1176","","","","1",""
"3312","bucket","baga,ijayo,kiatu,init","kiatu","j","5","html-keyboard-response","1177","f","baga","false","",""
"1455.7999999970198","","","","","5","html-slider-response","1178","","","","2",""
"2286","finger","simu,moyo,sufuria,lima","moyo","v","5","html-keyboard-response","1179","v","moyo","true","",""
"1047.8999999910593","","","","","5","html-slider-response","1180","","","","2",""
"2260","mother","kahawa,babaye,mbuzi,jokofu","babaye","v","5","html-keyboard-response","1181","v","babaye","true","",""
"1157","","","","","5","html-slider-response","1182","","","","5",""
"2676","human","tinapay,bado,kikapu,punguza","tinapay","f","5","html-keyboard-response","1183","f","tinapay","true","",""
"1185.2999999970198","","","","","5","html-slider-response","1184","","","","5",""
"3188","sun","bendi,luha,basi,uongo","basi","j","5","html-keyboard-response","1185","j","basi","true","",""
"1181.8999999910593","","","","","5","html-slider-response","1186","","","","1",""
"2119","fork","baboy,paghago,mgonjwa,gorisi","mgonjwa","j","5","html-keyboard-response","1187","f","baboy","false","",""
"982","","","","","5","html-slider-response","1188","","","","2",""
"1581","donkey","elfu,bloke,lalake,rombus","elfu","f","5","html-keyboard-response","1189","f","elfu","true","",""
"1220.9000000059605","","","","","5","html-slider-response","1190","","","","5",""
"2756","wolf","kaburi,ndizi,mchuzi,lugha","lugha","n","5","html-keyboard-response","1191","n","lugha","true","",""
"1051.7999999970198","","","","","5","html-slider-response","1192","","","","5",""
"2863","cigar","ndugu,kuta,mlango,adhabu","adhabu","n","5","html-keyboard-response","1193","f","ndugu","false","",""
"1958.5","","","","","5","html-slider-response","1194","","","","1",""
"1544","olive","bata,siagi,welder,jiwe","jiwe","n","5","html-keyboard-response","1195","n","jiwe","true","",""
"1265.199999988079","","","","","5","html-slider-response","1196","","","","5",""
"2969","key","miaka,goma,ahos,chombo","chombo","n","5","html-keyboard-response","1197","n","chombo","true","",""
"1070.1000000089407","","","","","5","html-slider-response","1198","","","","4",""
"2661","door","tena,soko,surali,nyota","surali","j","5","html-keyboard-response","1199","n","nyota","false","",""
"1028.5","","","","","5","html-slider-response","1200","","","","4",""
"2586","wheel","bafuni,punda,tawo,baadaye","bafuni","f","5","html-keyboard-response","1201","n","baadaye","false","",""
"1168.800000011921","","","","","5","html-slider-response","1202","","","","4",""
"3333","basket","kumbuka,utepe,kumba,hasira","kumba","j","5","html-keyboard-response","1203","f","kumbuka","false","",""
"1494.5999999940395","","","","","5","html-slider-response","1204","","","","4",""
"1567","elephant","petye,pagduol,kito,suka","kito","j","5","html-keyboard-response","1205","j","kito","true","",""
"1596.3999999910593","","","","","5","html-slider-response","1206","","","","5",""
"1672","office","hazini,yatima,kuna,leso","leso","n","5","html-keyboard-response","1207","n","leso","true","",""
"1634.2999999970198","","","","","5","html-slider-response","1208","","","","5",""
"1702","music","mraba,mageho,baiski,tumbo","baiski","j","5","html-keyboard-response","1209","j","baiski","true","",""
"1188.7999999970198","","","","","5","html-slider-response","1210","","","","5",""
"3657","tissue","lamigas,kisiwa,ugomvi,katika","ugomvi","j","5","html-keyboard-response","1211","j","ugomvi","true","",""
"1267.5","","","","","5","html-slider-response","1212","","","","4",""
"3074","curtain","mchanga,lisud,bulwawan,chubani","mchanga","f","5","html-keyboard-response","1213","f","mchanga","true","",""
"1202.7999999970198","","","","","5","html-slider-response","1214","","","","4",""
"1973","flag","trekta,ndege,mkate,kawa","trekta","f","5","html-keyboard-response","1215","f","trekta","true","",""
"1392.7000000029802","","","","","5","html-slider-response","1216","","","","5",""
"7551","dog","lubi,washia,kalamu,bahari","bahari","n","5","html-keyboard-response","1217","n","bahari","true","",""
"2458.9000000059605","","","","","5","html-slider-response","1218","","","","1",""
"4347","cup","matumai,dagat,shimoni,jeraha","matumai","f","5","html-keyboard-response","1219","f","matumai","true","",""
"1178.2999999970198","","","","","5","html-slider-response","1220","","","","1",""
"3479","sheet","bililhon,juuya,watu,kamantis","bililhon","f","5","html-keyboard-response","1221","f","bililhon","true","",""
"1648.300000011921","","","","","5","html-slider-response","1222","","","","1",""
"3392","spoon","betri,nzuri,pagsulod,ngazi","pagsulod","j","5","html-keyboard-response","1223","j","pagsulod","true","",""
"954.9000000059605","","","","","5","html-slider-response","1224","","","","2",""
"1585","flower","tamasha,lobo,bega,usiku","bega","j","5","html-keyboard-response","1225","j","bega","true","",""
"1031.2999999970198","","","","","5","html-slider-response","1226","","","","4",""
"2066","picture","silya,chaki,kubwa,asin","kubwa","j","5","html-keyboard-response","1227","f","silya","false","",""
"1463.9000000059605","","","","","5","html-slider-response","1228","","","","2",""
"2160","puppet","napulo,mazishi,lamok,godoro","mazishi","v","5","html-keyboard-response","1229","v","mazishi","true","",""
"1474.199999988079","","","","","5","html-slider-response","1230","","","","5",""
"1840","banana","kasamok,hagdan,twai,kazi","kazi","n","5","html-keyboard-response","1231","n","kazi","true","",""
"1525.6000000089407","","","","","5","html-slider-response","1232","","","","4",""
"3918","book","kuhesa,mali,picha,mara","mali","v","5","html-keyboard-response","1233","v","mali","true","",""
"1816.2000000029802","","","","","5","html-slider-response","1234","","","","2",""
"2521","triangle","kihozi,bentaha,liog,kasadpan","kasadpan","n","5","html-keyboard-response","1235","j","liog","false","",""
"1556","","","","","5","html-slider-response","1236","","","","5",""
"3425","poster","madungog,nchi,fedha,kasuko","madungog","f","5","html-keyboard-response","1237","f","madungog","true","",""
"1172","","","","","5","html-slider-response","1238","","","","1",""
"2471","box","kuacha,rafiki,adui,kitande","adui","j","5","html-keyboard-response","1239","j","adui","true","",""
"1560.2999999970198","","","","","5","html-slider-response","1240","","","","2",""
"1444","mosquito","isda,taras,gutom,martilyo","martilyo","n","5","html-keyboard-response","1241","n","martilyo","true","",""
"1434.2000000029802","","","","","5","html-slider-response","1242","","","","5",""
"6342","shelf","bungtod,kadaot,awit,pamahaw","pamahaw","n","5","html-keyboard-response","1243","n","pamahaw","true","",""
"1606.4000000059605","","","","","5","html-slider-response","1244","","","","1",""
"3461","scissors","duga,tanuri,mtawa,suga","tanuri","v","5","html-keyboard-response","1245","j","mtawa","false","",""
"1052.699999988079","","","","","5","html-slider-response","1246","","","","2",""
"1562","hammer","mekno,kitovu,layag,napakyas","napakyas","n","5","html-keyboard-response","1247","n","napakyas","true","",""
"1104.2000000029802","","","","","5","html-slider-response","1248","","","","5",""
