"rt","en_word","options","swa_word","correct_answer","phase","trial_type","trial_index","input_answer","input_word","accuracy","certainty","amt_choices"
"3900","bonfire","mwezi,mfuko,goti,kusanya","goti","j","2","html-keyboard-response","106","v","mfuko","false","",""
"5913.100000023842","","","","","2","html-slider-response","107","","","","5",""
"50383","flower","bega,tamasha,lobo,usiku","bega","f","2","html-keyboard-response","108","f","bega","true","",""
"8562.299999952316","","","","","2","html-slider-response","109","","","","4",""
"46926","column","ufagio,pundok,dila,pala","ufagio","f","2","html-keyboard-response","110","n","pala","false","",""
"3475","","","","","2","html-slider-response","111","","","","1",""
"11955","music","mraba,mageho,baiski,tumbo","baiski","j","2","html-keyboard-response","112","j","baiski","true","",""
"11199","","","","","2","html-slider-response","113","","","","4",""
"47023","spider","bunyag,mkboa,atop,kamwe","kamwe","n","2","html-keyboard-response","114","n","kamwe","true","",""
"3776.399999976158","","","","","2","html-slider-response","115","","","","4",""
"5110","fork","baboy,paghago,gorisi,mgonjwa","mgonjwa","n","2","html-keyboard-response","116","n","mgonjwa","true","",""
"3631.2999999523163","","","","","2","html-slider-response","117","","","","4",""
"4288","mosquito","isda,taras,gutom,martilyo","martilyo","n","2","html-keyboard-response","118","n","martilyo","true","",""
"2800.2000000476837","","","","","2","html-slider-response","119","","","","4",""
"4885","banana","kasamok,hagdan,kazi,twai","kazi","j","2","html-keyboard-response","120","v","hagdan","false","",""
"3240","","","","","2","html-slider-response","121","","","","5",""
"2882","cup","dagat,shimoni,matumai,jeraha","matumai","j","2","html-keyboard-response","122","j","matumai","true","",""
"4274.100000023842","","","","","2","html-slider-response","123","","","","4",""
"3472","shop","nopya,kerida,samaki,ndezu","samaki","j","2","html-keyboard-response","124","f","nopya","false","",""
"3669.600000023842","","","","","2","html-slider-response","125","","","","5",""
"2567","elephant","petye,kito,pagduol,suka","kito","v","2","html-keyboard-response","126","f","petye","false","",""
"2806.0999999046326","","","","","2","html-slider-response","127","","","","4",""
"3575","bucket","baga,ijayo,kiatu,init","kiatu","j","2","html-keyboard-response","128","j","kiatu","true","",""
"2366.2999999523163","","","","","2","html-slider-response","129","","","","4",""
"3473","book","kuhesa,picha,mara,mali","mali","n","2","html-keyboard-response","130","n","mali","true","",""
"2752.4000000953674","","","","","2","html-slider-response","131","","","","2",""
"3770","mirror","rangi,kanding,furaha,sulagma","sulagma","n","2","html-keyboard-response","132","n","sulagma","true","",""
"2371.100000023842","","","","","2","html-slider-response","133","","","","2",""
"2642","office","hazini,yatima,kuna,leso","leso","n","2","html-keyboard-response","134","f","hazini","false","",""
"3059.7000000476837","","","","","2","html-slider-response","135","","","","4",""
"3688","body","tindashan,nyundu,jibini,kununa","tindashan","f","2","html-keyboard-response","136","v","nyundu","false","",""
"3448.899999976158","","","","","2","html-slider-response","137","","","","4",""
"7897","perfume","bino,katuyoan,sungura,ndogo","katuyoan","v","2","html-keyboard-response","138","n","ndogo","false","",""
"2205.0999999046326","","","","","2","html-slider-response","139","","","","4",""
"3382","olive","bata,siagi,welder,jiwe","jiwe","n","2","html-keyboard-response","140","j","welder","false","",""
"6312.100000023842","","","","","2","html-slider-response","141","","","","4",""
"40036","magazine","kiti,gundi,mchawi,bahandi","kiti","f","2","html-keyboard-response","142","f","kiti","true","",""
"2658.6999999284744","","","","","2","html-slider-response","143","","","","4",""
"2405","bread","dari,kaili,dizeli,bugas","dari","f","2","html-keyboard-response","144","v","kaili","false","",""
"4392.700000047684","","","","","2","html-slider-response","145","","","","5",""
"8512","cave","ganti,maisha,kesho,nyundo","kesho","j","2","html-keyboard-response","146","j","kesho","true","",""
"3288.9000000953674","","","","","2","html-slider-response","147","","","","4",""
"3267","ladder","mashua,pangalan,mwanga,kamba","pangalan","v","2","html-keyboard-response","148","f","mashua","false","",""
"2326.7999999523163","","","","","2","html-slider-response","149","","","","5",""
"3894","human","bado,tinapay,kikapu,punguza","tinapay","v","2","html-keyboard-response","150","f","bado","false","",""
"2623.7999999523163","","","","","2","html-slider-response","151","","","","4",""
"3257","clock","kartasi,mbwa,abang,osha","mbwa","v","2","html-keyboard-response","152","v","mbwa","true","",""
"2652.7999999523163","","","","","2","html-slider-response","153","","","","5",""
"20916","shelf","pamahaw,bungtod,kadaot,awit","pamahaw","f","2","html-keyboard-response","154","j","kadaot","false","",""
"2985.2999999523163","","","","","2","html-slider-response","155","","","","4",""
"3500","salmon","sensilyo,mzungu,seri,baharia","sensilyo","f","2","html-keyboard-response","156","f","sensilyo","true","",""
"2945.2999999523163","","","","","2","html-slider-response","157","","","","2",""
"3070","coffin","barua,tubag,hulma,kioo","kioo","n","2","html-keyboard-response","158","f","barua","false","",""
"2439.5","","","","","2","html-slider-response","159","","","","4",""
"6045","notebook","msitu,kila,kemia,mdudu","kemia","j","2","html-keyboard-response","160","j","kemia","true","",""
"2119.600000023842","","","","","2","html-slider-response","161","","","","4",""
"3274","shoulder","kelele,mkuu,ndaniya,guruwe","mkuu","v","2","html-keyboard-response","162","n","guruwe","false","",""
"2258.3000000715256","","","","","2","html-slider-response","163","","","","4",""
"3446","park","tambok,pwani,bunifu,ihalas","bunifu","j","2","html-keyboard-response","164","v","pwani","false","",""
"2640.3000000715256","","","","","2","html-slider-response","165","","","","4",""
"3933","number","shule,kengele,choori,mundamo","mundamo","n","2","html-keyboard-response","166","n","mundamo","true","",""
"2779.399999976158","","","","","2","html-slider-response","167","","","","1",""
"3469","apple","ukame,estante,edad,kisu","kisu","n","2","html-keyboard-response","168","n","kisu","true","",""
"3908.3000000715256","","","","","2","html-slider-response","169","","","","3",""
"2640","letter","filimbi,chuma,uhuru,kifua","kifua","n","2","html-keyboard-response","170","f","filimbi","false","",""
"3529.8000000715256","","","","","2","html-slider-response","171","","","","4",""
"4015","eel","ishara,msumari,kunywa,kabuang","msumari","v","2","html-keyboard-response","172","v","msumari","true","",""
"13449.600000023842","","","","","2","html-slider-response","173","","","","5",""
"20944","cop","bustani,jikoni,bakus,mechezo","mechezo","n","2","html-keyboard-response","174","f","bustani","false","",""
"3073.7000000476837","","","","","2","html-slider-response","175","","","","4",""
"5778","wolf","lugha,kaburi,ndizi,mchuzi","lugha","f","2","html-keyboard-response","176","v","kaburi","false","",""
"2907.5","","","","","2","html-slider-response","177","","","","5",""
"5062","squirrel","mahugaw,ukweli,hofu,kichwa","hofu","j","2","html-keyboard-response","178","j","hofu","true","",""
"3023.3000000715256","","","","","2","html-slider-response","179","","","","5",""
"3243","nose","gubat,kopa,kidole,sehemu","sehemu","n","2","html-keyboard-response","180","n","sehemu","true","",""
"18454.200000047684","","","","","2","html-slider-response","181","","","","4",""
"3741","sock","ndoora,kimysa,mtirka,mamba","mamba","n","2","html-keyboard-response","182","n","mamba","true","",""
"3216.5","","","","","2","html-slider-response","183","","","","4",""
"2551","bank","kudhibi,tualya,silingan,ofisi","silingan","j","2","html-keyboard-response","184","j","silingan","true","",""
"39438.199999928474","","","","","2","html-slider-response","185","","","","5",""
"4045","donkey","bloke,lalake,rombus,elfu","elfu","n","2","html-keyboard-response","186","n","elfu","true","",""
"4680.700000047684","","","","","2","html-slider-response","187","","","","2",""
"4872","poster","madungog,nchi,fedha,kasuko","madungog","f","2","html-keyboard-response","188","f","madungog","true","",""
"2739.3000000715256","","","","","2","html-slider-response","189","","","","4",""
"3720","puppet","napulo,lamok,godoro,mazishi","mazishi","n","2","html-keyboard-response","190","v","lamok","false","",""
"3276","","","","","2","html-slider-response","191","","","","2",""
"3369","hill","kushoto,kukimba,sweta,matumbo","matumbo","n","2","html-keyboard-response","192","v","kukimba","false","",""
"2100","","","","","2","html-slider-response","193","","","","4",""
"81645","tooth","kijiko,kabalaka,uadui,pahiyum","kabalaka","v","2","html-keyboard-response","194","f","kijiko","false","",""
"3251","","","","","2","html-slider-response","195","","","","2",""
"46119","woman","pagtabon,bandari,bituin,kovuli","pagtabon","f","2","html-keyboard-response","196","f","pagtabon","true","",""
"2209.5","","","","","2","html-slider-response","197","","","","4",""
"6960","wheel","punda,bafuni,tawo,baadaye","bafuni","v","2","html-keyboard-response","198","v","bafuni","true","",""
"2293.399999976158","","","","","2","html-slider-response","199","","","","2",""
"2878","mother","kahawa,mbuzi,babaye,jokofu","babaye","j","2","html-keyboard-response","200","n","jokofu","false","",""
"3494.600000023842","","","","","2","html-slider-response","201","","","","4",""
"27594","bed","kalipay,haraka,starehe,mapintas","mapintas","n","2","html-keyboard-response","202","f","kalipay","false","",""
"3038.899999976158","","","","","2","html-slider-response","203","","","","1",""
"2592","key","miaka,goma,chombo,ahos","chombo","j","2","html-keyboard-response","204","j","chombo","true","",""
"2460.5999999046326","","","","","2","html-slider-response","205","","","","4",""
"3038","page","wakala,ishiri,skina,wimbo","wimbo","n","2","html-keyboard-response","206","j","skina","false","",""
"8811.299999952316","","","","","2","html-slider-response","207","","","","2",""
"69377","pants","haki,pintal,chuki,hari","haki","f","2","html-keyboard-response","208","n","hari","false","",""
"3229","","","","","2","html-slider-response","209","","","","5",""
"5941","sun","bendi,luha,uongo,basi","basi","n","2","html-keyboard-response","210","v","luha","false","",""
"3360.2999999523163","","","","","2","html-slider-response","211","","","","2",""
"73403","finger","moyo,simu,sufuria,lima","moyo","f","2","html-keyboard-response","212","f","moyo","true","",""
"2570.1999999284744","","","","","2","html-slider-response","213","","","","2",""
"4907","shoe","uyoga,nyeusi,hatua,kama","uyoga","f","2","html-keyboard-response","214","j","hatua","false","",""
"2839","","","","","2","html-slider-response","215","","","","1",""
"3914","giraffe","daraja,jumatu,hangyo,mahitabo","mahitabo","n","2","html-keyboard-response","216","v","jumatu","false","",""
"3135.0999999046326","","","","","2","html-slider-response","217","","","","2",""
"5333","dog","lubi,bahari,washia,kalamu","bahari","v","2","html-keyboard-response","218","v","bahari","true","",""
"2936.7999999523163","","","","","2","html-slider-response","219","","","","5",""
"22801","box","adui,kuacha,rafiki,kitande","adui","f","2","html-keyboard-response","220","f","adui","true","",""
"2879","","","","","2","html-slider-response","221","","","","4",""
"3042","scissors","duga,mtawa,tanuri,suga","tanuri","j","2","html-keyboard-response","222","v","mtawa","false","",""
"2691.1999999284744","","","","","2","html-slider-response","223","","","","2",""
"5068","cat","neyemba,baki,akili,paghukom","paghukom","n","2","html-keyboard-response","224","j","akili","false","",""
"3977.5999999046326","","","","","2","html-slider-response","225","","","","4",""
"2349","basket","kumba,kumbuka,utepe,hasira","kumba","f","2","html-keyboard-response","226","v","kumbuka","false","",""
"4797","","","","","2","html-slider-response","227","","","","4",""
"56327","snake","jansa,pagtukod,karon,mvringo","pagtukod","v","2","html-keyboard-response","228","n","mvringo","false","",""
"34630.39999997616","","","","","2","html-slider-response","229","","","","2",""
"5593","gift","baba,pagtawag,nyange,baso","pagtawag","v","2","html-keyboard-response","230","n","baso","false","",""
"2940.899999976158","","","","","2","html-slider-response","231","","","","2",""
"11625","train","itik,dakika,sayari,mungu","sayari","j","2","html-keyboard-response","232","j","sayari","true","",""
"3572.6999999284744","","","","","2","html-slider-response","233","","","","2",""
"4368","pudding","aibu,abug,mpishi,iring","aibu","f","2","html-keyboard-response","234","f","aibu","true","",""
"3030","","","","","2","html-slider-response","235","","","","4",""
"1831","tomato","mvua,chupi,chupa,takatak","mvua","f","2","html-keyboard-response","236","n","takatak","false","",""
"2438.399999976158","","","","","2","html-slider-response","237","","","","4",""
"5521","stone","ulimwengu,mkasi,asili,wingi","wingi","n","2","html-keyboard-response","238","j","asili","false","",""
"2610.899999976158","","","","","2","html-slider-response","239","","","","5",""
"7684","hammer","mekno,kitovu,layag,napakyas","napakyas","n","2","html-keyboard-response","240","v","kitovu","false","",""
"2856.899999976158","","","","","2","html-slider-response","241","","","","4",""
"10179","knee","mvuke,kubale,duka,bili","duka","j","2","html-keyboard-response","242","v","kubale","false","",""
"2234.2999999523163","","","","","2","html-slider-response","243","","","","4",""
"3431","ceiling","maua,kugita,kawaida,rayna","maua","f","2","html-keyboard-response","244","f","maua","true","",""
"3070.3000000715256","","","","","2","html-slider-response","245","","","","4",""
"2802","spoon","betri,nzuri,pagsulod,ngazi","pagsulod","j","2","html-keyboard-response","246","j","pagsulod","true","",""
"2691.8000000715256","","","","","2","html-slider-response","247","","","","4",""
"3509","marker","maji,mapafu,salita,atay","maji","f","2","html-keyboard-response","248","j","salita","false","",""
"1969.1000000238419","","","","","2","html-slider-response","249","","","","4",""
"2243","candle","gabi,farasi,kupanda,geza","geza","n","2","html-keyboard-response","250","n","geza","true","",""
"2259.100000023842","","","","","2","html-slider-response","251","","","","2",""
"5519","tissue","lamigas,ugomvi,kisiwa,katika","ugomvi","v","2","html-keyboard-response","252","f","lamigas","false","",""
"2810.7000000476837","","","","","2","html-slider-response","253","","","","5",""
"2732","bridge","daima,ngono,panya,sahani","sahani","n","2","html-keyboard-response","254","n","sahani","true","",""
"3041.2000000476837","","","","","2","html-slider-response","255","","","","5",""
"3008","berry","abogado,nogozi,kinywa,kofia","kofia","n","2","html-keyboard-response","256","n","kofia","true","",""
"3164.600000023842","","","","","2","html-slider-response","257","","","","2",""
"9180","triangle","kihozi,kasadpan,bentaha,liog","kasadpan","v","2","html-keyboard-response","258","n","liog","false","",""
"1792.7000000476837","","","","","2","html-slider-response","259","","","","4",""
"274646","door","surali,tena,soko,nyota","surali","f","2","html-keyboard-response","260","j","soko","false","",""
"2516.0999999046326","","","","","2","html-slider-response","261","","","","4",""
"2630","fish","buli,bala,baho,imani","buli","f","2","html-keyboard-response","262","n","imani","false","",""
"2336.1999999284744","","","","","2","html-slider-response","263","","","","2",""
"2393","curtain","lisud,bulwawan,chubani,mchanga","mchanga","n","2","html-keyboard-response","264","n","mchanga","true","",""
"2997","","","","","2","html-slider-response","265","","","","4",""
"2470","flag","ndege,mkate,kawa,trekta","trekta","n","2","html-keyboard-response","266","n","trekta","true","",""
"2111.1999999284744","","","","","2","html-slider-response","267","","","","2",""
"3707","boat","hamsi,pombe,agalon,kitanda","agalon","j","2","html-keyboard-response","268","v","pombe","false","",""
"2502.5999999046326","","","","","2","html-slider-response","269","","","","4",""
"15665","rose","singizi,paghalad,mwanake,amani","paghalad","v","2","html-keyboard-response","270","n","amani","false","",""
"1963","","","","","2","html-slider-response","271","","","","4",""
"2562","lamp","afya,daub,bilaska,mbolea","afya","f","2","html-keyboard-response","272","f","afya","true","",""
"2363.399999976158","","","","","2","html-slider-response","273","","","","1",""
"139332","cigar","ndugu,kuta,adhabu,mlango","adhabu","j","2","html-keyboard-response","274","f","ndugu","false","",""
"2952.100000023842","","","","","2","html-slider-response","275","","","","2",""
"1596","list","alizeti,kuzama,wingu,kaso","wingu","j","2","html-keyboard-response","276","n","kaso","false","",""
"1873.8999999761581","","","","","2","html-slider-response","277","","","","4",""
"10795","sheet","juuya,watu,bililhon,kamantis","bililhon","j","2","html-keyboard-response","278","j","bililhon","true","",""
"3122.7000000476837","","","","","2","html-slider-response","279","","","","2",""
"2596","picture","kubwa,silya,chaki,asin","kubwa","f","2","html-keyboard-response","280","f","kubwa","true","",""
"2553.600000023842","","","","","2","html-slider-response","281","","","","4",""
"2980","towel","pagpalit,tembo,funzi,pito","pagpalit","f","2","html-keyboard-response","282","j","funzi","false","",""
"1956.8000000715256","","","","","2","html-slider-response","283","","","","4",""
"3551","window","nanga,kujenga,kweli,umaga","kweli","j","2","html-keyboard-response","284","n","umaga","false","",""
"2806","","","","","2","html-slider-response","285","","","","2",""
"4576","box","kuacha,rafiki,adui,kitande","adui","j","3","html-keyboard-response","293","n","kitande","false","","4"
"3579.6999999284744","","","","","3","html-slider-response","294","","","","2",""
"53873","","","","","3","html-keyboard-response","295","","","","",""
"8141","pants","haki,pintal,chuki,hari","haki","f","3","html-keyboard-response","296","n","hari","false","","4"
"3137.399999976158","","","","","3","html-slider-response","297","","","","4",""
"4360","","","","","3","html-keyboard-response","298","","","","",""
"32094","cup","matumai,dagat,shimoni,jeraha","matumai","f","3","html-keyboard-response","299","j","shimoni","false","","4"
"4625.899999976158","","","","","3","html-slider-response","300","","","","4",""
"1701","","","","","3","html-keyboard-response","301","","","","",""
"8251","triangle","kihozi,kasadpan,bentaha,liog","kasadpan","v","3","html-keyboard-response","302","v","kasadpan","true","","4"
"2884.600000023842","","","","","3","html-slider-response","303","","","","4",""
"967","","","","","3","html-keyboard-response","304","","","","",""
"4182","curtain","lisud,mchanga,bulwawan,chubani","mchanga","v","3","html-keyboard-response","305","v","mchanga","true","","4"
"2497.7999999523163","","","","","3","html-slider-response","306","","","","2",""
"1278","","","","","3","html-keyboard-response","307","","","","",""
"32034","clock","mbwa,kartasi,abang,osha","mbwa","f","3","html-keyboard-response","308","v","kartasi","false","","4"
"2249.1999999284744","","","","","3","html-slider-response","309","","","","2",""
"1017","","","","","3","html-keyboard-response","310","","","","",""
"3198","mirror","sulagma,rangi,kanding,furaha","sulagma","f","3","html-keyboard-response","311","f","sulagma","true","","4"
"2901.399999976158","","","","","3","html-slider-response","312","","","","4",""
"1929","","","","","3","html-keyboard-response","313","","","","",""
"2793","coffin","barua,tubag,hulma,kioo","kioo","n","3","html-keyboard-response","314","n","kioo","true","","1"
"2385.1999999284744","","","","","3","html-slider-response","315","","","","5",""
"724","","","","","3","html-keyboard-response","316","","","","",""
"4368","magazine","gundi,kiti,mchawi,bahandi","kiti","v","3","html-keyboard-response","317","n","bahandi","false","","4"
"1768.4000000953674","","","","","3","html-slider-response","318","","","","4",""
"869","","","","","3","html-keyboard-response","319","","","","",""
"2468","column","pundok,dila,ufagio,pala","ufagio","j","3","html-keyboard-response","320","j","ufagio","true","","1"
"2209.7000000476837","","","","","3","html-slider-response","321","","","","5",""
"780","","","","","3","html-keyboard-response","322","","","","",""
"6875","number","shule,kengele,mundamo,choori","mundamo","j","3","html-keyboard-response","323","j","mundamo","true","","4"
"2420.8000000715256","","","","","3","html-slider-response","324","","","","4",""
"1097","","","","","3","html-keyboard-response","325","","","","",""
"3872","rose","singizi,paghalad,mwanake,amani","paghalad","v","3","html-keyboard-response","326","j","mwanake","false","","4"
"2106.7999999523163","","","","","3","html-slider-response","327","","","","4",""
"1403","","","","","3","html-keyboard-response","328","","","","",""
"3478","eel","ishara,kunywa,kabuang,msumari","msumari","n","3","html-keyboard-response","329","f","ishara","false","","4"
"1687.5","","","","","3","html-slider-response","330","","","","2",""
"973","","","","","3","html-keyboard-response","331","","","","",""
"5630","gift","pagtawag,baba,nyange,baso","pagtawag","f","3","html-keyboard-response","332","n","baso","false","","4"
"1961.2999999523163","","","","","3","html-slider-response","333","","","","4",""
"1117","","","","","3","html-keyboard-response","334","","","","",""
"2064","apple","ukame,kisu,estante,edad","kisu","v","3","html-keyboard-response","335","v","kisu","true","","1"
"1950.3999999761581","","","","","3","html-slider-response","336","","","","5",""
"1421","","","","","3","html-keyboard-response","337","","","","",""
"2445","wheel","punda,bafuni,tawo,baadaye","bafuni","v","3","html-keyboard-response","338","v","bafuni","true","","1"
"2458.100000023842","","","","","3","html-slider-response","339","","","","5",""
"16698","","","","","3","html-keyboard-response","340","","","","",""
"3802","knee","mvuke,duka,kubale,bili","duka","v","3","html-keyboard-response","341","j","kubale","false","","4"
"1847","","","","","3","html-slider-response","342","","","","4",""
"732","","","","","3","html-keyboard-response","343","","","","",""
"2092","basket","kumbuka,utepe,kumba,hasira","kumba","j","3","html-keyboard-response","344","j","kumba","true","","1"
"2774.5","","","","","3","html-slider-response","345","","","","5",""
"560","","","","","3","html-keyboard-response","346","","","","",""
"3011","park","tambok,pwani,bunifu,ihalas","bunifu","j","3","html-keyboard-response","347","f","tambok","false","","4"
"1982","","","","","3","html-slider-response","348","","","","2",""
"796","","","","","3","html-keyboard-response","349","","","","",""
"4252","finger","simu,moyo,sufuria,lima","moyo","v","3","html-keyboard-response","350","j","sufuria","false","","4"
"1629.6000000238419","","","","","3","html-slider-response","351","","","","2",""
"805","","","","","3","html-keyboard-response","352","","","","",""
"3111","boat","agalon,hamsi,pombe,kitanda","agalon","f","3","html-keyboard-response","353","n","kitanda","false","","4"
"1816.2999999523163","","","","","3","html-slider-response","354","","","","2",""
"788","","","","","3","html-keyboard-response","355","","","","",""
"3919","hill","matumbo,kushoto,kukimba,sweta","matumbo","f","3","html-keyboard-response","356","f","matumbo","true","","4"
"2457.2999999523163","","","","","3","html-slider-response","357","","","","4",""
"2189","","","","","3","html-keyboard-response","358","","","","",""
"3067","train","itik,sayari,dakika,mungu","sayari","v","3","html-keyboard-response","359","v","sayari","true","","4"
"2965","","","","","3","html-slider-response","360","","","","4",""
"1961","","","","","3","html-keyboard-response","361","","","","",""
"5939","wolf","kaburi,ndizi,lugha,mchuzi","lugha","j","3","html-keyboard-response","362","v","ndizi","false","","4"
"2191.5999999046326","","","","","3","html-slider-response","363","","","","1",""
"3108","","","","","3","html-keyboard-response","364","","","","",""
"3411","snake","jansa,karon,pagtukod,mvringo","pagtukod","j","3","html-keyboard-response","365","j","pagtukod","true","","4"
"1558.3000000715256","","","","","3","html-slider-response","366","","","","4",""
"1141","","","","","3","html-keyboard-response","367","","","","",""
"3425","tooth","kijiko,uadui,kabalaka,pahiyum","kabalaka","j","3","html-keyboard-response","368","j","kabalaka","true","","4"
"3469.5","","","","","3","html-slider-response","369","","","","4",""
"2478","","","","","3","html-keyboard-response","370","","","","",""
"3642","notebook","msitu,kemia,kila,mdudu","kemia","v","3","html-keyboard-response","371","j","kila","false","","4"
"2068","","","","","3","html-slider-response","372","","","","2",""
"848","","","","","3","html-keyboard-response","373","","","","",""
"4819","flag","ndege,trekta,mkate,kawa","trekta","v","3","html-keyboard-response","374","v","trekta","true","","4"
"1904.3999999761581","","","","","3","html-slider-response","375","","","","2",""
"812","","","","","3","html-keyboard-response","376","","","","",""
"2403","squirrel","hofu,mahugaw,ukweli,kichwa","hofu","f","3","html-keyboard-response","377","v","mahugaw","false","","4"
"2017.1999999284744","","","","","3","html-slider-response","378","","","","4",""
"705","","","","","3","html-keyboard-response","379","","","","",""
"2374","door","tena,soko,nyota,surali","surali","n","3","html-keyboard-response","380","n","surali","true","","4"
"1949.1999999284744","","","","","3","html-slider-response","381","","","","2",""
"1147","","","","","3","html-keyboard-response","382","","","","",""
"44964","salmon","mzungu,seri,baharia,sensilyo","sensilyo","n","3","html-keyboard-response","383","f","mzungu","false","","4"
"1990.8999999761581","","","","","3","html-slider-response","384","","","","2",""
"704","","","","","3","html-keyboard-response","385","","","","",""
"4298","shoulder","kelele,mkuu,ndaniya,guruwe","mkuu","v","3","html-keyboard-response","386","n","guruwe","false","","4"
"2002.5","","","","","3","html-slider-response","387","","","","2",""
"774","","","","","3","html-keyboard-response","388","","","","",""
"2954","lamp","afya,daub,bilaska,mbolea","afya","f","3","html-keyboard-response","389","j","bilaska","false","","4"
"1577","","","","","3","html-slider-response","390","","","","4",""
"1098","","","","","3","html-keyboard-response","391","","","","",""
"1718","shelf","bungtod,kadaot,pamahaw,awit","pamahaw","j","3","html-keyboard-response","392","j","pamahaw","true","","1"
"1720.3999999761581","","","","","3","html-slider-response","393","","","","5",""
"628","","","","","3","html-keyboard-response","394","","","","",""
"2649","human","tinapay,bado,kikapu,punguza","tinapay","f","3","html-keyboard-response","395","n","punguza","false","","4"
"1448.2000000476837","","","","","3","html-slider-response","396","","","","4",""
"672","","","","","3","html-keyboard-response","397","","","","",""
"5274","towel","pagpalit,tembo,funzi,pito","pagpalit","f","3","html-keyboard-response","398","f","pagpalit","true","","4"
"1611.1000000238419","","","","","3","html-slider-response","399","","","","4",""
"933","","","","","3","html-keyboard-response","400","","","","",""
"3887","cat","neyemba,baki,akili,paghukom","paghukom","n","3","html-keyboard-response","401","n","paghukom","true","","4"
"1408.5999999046326","","","","","3","html-slider-response","402","","","","4",""
"1002","","","","","3","html-keyboard-response","403","","","","",""
"2651","spider","kamwe,bunyag,mkboa,atop","kamwe","f","3","html-keyboard-response","404","f","kamwe","true","","4"
"1728","","","","","3","html-slider-response","405","","","","5",""
"581","","","","","3","html-keyboard-response","406","","","","",""
"3139","window","nanga,kujenga,umaga,kweli","kweli","n","3","html-keyboard-response","407","v","kujenga","false","","4"
"1589.3999999761581","","","","","3","html-slider-response","408","","","","4",""
"637","","","","","3","html-keyboard-response","409","","","","",""
"3741","woman","pagtabon,bandari,bituin,kovuli","pagtabon","f","3","html-keyboard-response","410","f","pagtabon","true","","1"
"1707.1000000238419","","","","","3","html-slider-response","411","","","","5",""
"489","","","","","3","html-keyboard-response","412","","","","",""
"2562","giraffe","daraja,jumatu,hangyo,mahitabo","mahitabo","n","3","html-keyboard-response","413","v","jumatu","false","","4"
"2226.100000023842","","","","","3","html-slider-response","414","","","","4",""
"664","","","","","3","html-keyboard-response","415","","","","",""
"2680","elephant","petye,pagduol,suka,kito","kito","n","3","html-keyboard-response","416","v","pagduol","false","","4"
"1419.8999999761581","","","","","3","html-slider-response","417","","","","4",""
"1230","","","","","3","html-keyboard-response","418","","","","",""
"3617","cave","ganti,maisha,nyundo,kesho","kesho","n","3","html-keyboard-response","419","v","maisha","false","","4"
"1821.6000000238419","","","","","3","html-slider-response","420","","","","2",""
"590","","","","","3","html-keyboard-response","421","","","","",""
"4857","bread","kaili,dizeli,dari,bugas","dari","j","3","html-keyboard-response","422","j","dari","true","","4"
"2457.899999976158","","","","","3","html-slider-response","423","","","","4",""
"979","","","","","3","html-keyboard-response","424","","","","",""
"2865","stone","ulimwengu,mkasi,asili,wingi","wingi","n","3","html-keyboard-response","425","n","wingi","true","","4"
"1912.5","","","","","3","html-slider-response","426","","","","4",""
"913","","","","","3","html-keyboard-response","427","","","","",""
"3108","donkey","bloke,lalake,rombus,elfu","elfu","n","3","html-keyboard-response","428","f","bloke","false","","4"
"1543.1000000238419","","","","","3","html-slider-response","429","","","","5",""
"744","","","","","3","html-keyboard-response","430","","","","",""
"3350","bridge","daima,sahani,ngono,panya","sahani","v","3","html-keyboard-response","431","n","panya","false","","4"
"1542","","","","","3","html-slider-response","432","","","","4",""
"793","","","","","3","html-keyboard-response","433","","","","",""
"2328","bonfire","mwezi,mfuko,kusanya,goti","goti","n","3","html-keyboard-response","434","n","goti","true","","4"
"1867.3999999761581","","","","","3","html-slider-response","435","","","","5",""
"431","","","","","3","html-keyboard-response","436","","","","",""
"3162","book","mali,kuhesa,picha,mara","mali","f","3","html-keyboard-response","437","f","mali","true","","4"
"3067","","","","","3","html-slider-response","438","","","","5",""
"597","","","","","3","html-keyboard-response","439","","","","",""
"4469","fish","bala,baho,buli,imani","buli","j","3","html-keyboard-response","440","f","bala","false","","4"
"1345.7999999523163","","","","","3","html-slider-response","441","","","","5",""
"720","","","","","3","html-keyboard-response","442","","","","",""
"6213","spoon","betri,pagsulod,nzuri,ngazi","pagsulod","v","3","html-keyboard-response","443","n","ngazi","false","","4"
"1806.8000000715256","","","","","3","html-slider-response","444","","","","4",""
"834","","","","","3","html-keyboard-response","445","","","","",""
"4648","scissors","tanuri,duga,mtawa,suga","tanuri","f","3","html-keyboard-response","446","f","tanuri","true","","4"
"1797.1999999284744","","","","","3","html-slider-response","447","","","","5",""
"846","","","","","3","html-keyboard-response","448","","","","",""
"3314","page","wakala,wimbo,ishiri,skina","wimbo","v","3","html-keyboard-response","449","n","skina","false","","4"
"2175.8000000715256","","","","","3","html-slider-response","450","","","","2",""
"845","","","","","3","html-keyboard-response","451","","","","",""
"1469","nose","gubat,sehemu,kopa,kidole","sehemu","v","3","html-keyboard-response","452","v","sehemu","true","","1"
"1732.5","","","","","3","html-slider-response","453","","","","5",""
"473","","","","","3","html-keyboard-response","454","","","","",""
"3775","ceiling","kugita,kawaida,maua,rayna","maua","j","3","html-keyboard-response","455","f","kugita","false","","4"
"1514.2999999523163","","","","","3","html-slider-response","456","","","","4",""
"700","","","","","3","html-keyboard-response","457","","","","",""
"4928","bucket","baga,ijayo,init,kiatu","kiatu","n","3","html-keyboard-response","458","f","baga","false","","4"
"1924.5","","","","","3","html-slider-response","459","","","","2",""
"662","","","","","3","html-keyboard-response","460","","","","",""
"1477","berry","abogado,nogozi,kofia,kinywa","kofia","j","3","html-keyboard-response","461","j","kofia","true","","1"
"1625.7999999523163","","","","","3","html-slider-response","462","","","","5",""
"839","","","","","3","html-keyboard-response","463","","","","",""
"1380","mother","kahawa,mbuzi,jokofu,babaye","babaye","n","3","html-keyboard-response","464","n","babaye","true","","1"
"1542.3999999761581","","","","","3","html-slider-response","465","","","","5",""
"742","","","","","3","html-keyboard-response","466","","","","",""
"4888","mosquito","martilyo,isda,taras,gutom","martilyo","f","3","html-keyboard-response","467","f","martilyo","true","","4"
"1902.2999999523163","","","","","3","html-slider-response","468","","","","4",""
"633","","","","","3","html-keyboard-response","469","","","","",""
"3062","perfume","katuyoan,bino,sungura,ndogo","katuyoan","f","3","html-keyboard-response","470","j","sungura","false","","4"
"1469.6000000238419","","","","","3","html-slider-response","471","","","","4",""
"1105","","","","","3","html-keyboard-response","472","","","","",""
"41307","sheet","bililhon,juuya,watu,kamantis","bililhon","f","3","html-keyboard-response","473","n","kamantis","false","","4"
"5374.200000047684","","","","","3","html-slider-response","474","","","","2",""
"1394","","","","","3","html-keyboard-response","475","","","","",""
"1684","puppet","napulo,mazishi,lamok,godoro","mazishi","v","3","html-keyboard-response","476","v","mazishi","true","","1"
"1710.1000000238419","","","","","3","html-slider-response","477","","","","5",""
"507","","","","","3","html-keyboard-response","478","","","","",""
"2957","poster","nchi,fedha,kasuko,madungog","madungog","n","3","html-keyboard-response","479","n","madungog","true","","4"
"2109.100000023842","","","","","3","html-slider-response","480","","","","4",""
"945","","","","","3","html-keyboard-response","481","","","","",""
"4579","music","mraba,mageho,baiski,tumbo","baiski","j","3","html-keyboard-response","482","j","baiski","true","","4"
"3352.600000023842","","","","","3","html-slider-response","483","","","","2",""
"2997","","","","","3","html-keyboard-response","484","","","","",""
"3662","key","miaka,goma,chombo,ahos","chombo","j","3","html-keyboard-response","485","v","goma","false","","4"
"1785.1000000238419","","","","","3","html-slider-response","486","","","","4",""
"589","","","","","3","html-keyboard-response","487","","","","",""
"3725","sock","mamba,ndoora,kimysa,mtirka","mamba","f","3","html-keyboard-response","488","j","kimysa","false","","4"
"2501.899999976158","","","","","3","html-slider-response","489","","","","4",""
"1733","","","","","3","html-keyboard-response","490","","","","",""
"3086","marker","mapafu,salita,atay,maji","maji","n","3","html-keyboard-response","491","f","mapafu","false","","4"
"1351.7000000476837","","","","","3","html-slider-response","492","","","","4",""
"564","","","","","3","html-keyboard-response","493","","","","",""
"2595","office","hazini,leso,yatima,kuna","leso","v","3","html-keyboard-response","494","v","leso","true","","4"
"2204.600000023842","","","","","3","html-slider-response","495","","","","5",""
"1274","","","","","3","html-keyboard-response","496","","","","",""
"4097","shoe","nyeusi,hatua,uyoga,kama","uyoga","j","3","html-keyboard-response","497","j","uyoga","true","","4"
"1672.5","","","","","3","html-slider-response","498","","","","4",""
"649","","","","","3","html-keyboard-response","499","","","","",""
"2440","cop","bustani,jikoni,bakus,mechezo","mechezo","n","3","html-keyboard-response","500","f","bustani","false","","4"
"2339.2000000476837","","","","","3","html-slider-response","501","","","","5",""
"563","","","","","3","html-keyboard-response","502","","","","",""
"2909","bank","silingan,kudhibi,tualya,ofisi","silingan","f","3","html-keyboard-response","503","v","kudhibi","false","","4"
"1988.6000000238419","","","","","3","html-slider-response","504","","","","2",""
"611","","","","","3","html-keyboard-response","505","","","","",""
"1462","letter","filimbi,chuma,uhuru,kifua","kifua","n","3","html-keyboard-response","506","n","kifua","true","","1"
"2067.2999999523163","","","","","3","html-slider-response","507","","","","5",""
"668","","","","","3","html-keyboard-response","508","","","","",""
"1660","dog","lubi,washia,bahari,kalamu","bahari","j","3","html-keyboard-response","509","j","bahari","true","","1"
"1996","","","","","3","html-slider-response","510","","","","5",""
"750","","","","","3","html-keyboard-response","511","","","","",""
"2906","shop","nopya,kerida,ndezu,samaki","samaki","n","3","html-keyboard-response","512","n","samaki","true","","4"
"1324.2999999523163","","","","","3","html-slider-response","513","","","","4",""
"7973","","","","","3","html-keyboard-response","514","","","","",""
"2481","flower","bega,tamasha,lobo,usiku","bega","f","3","html-keyboard-response","515","f","bega","true","","4"
"2382.2999999523163","","","","","3","html-slider-response","516","","","","5",""
"440","","","","","3","html-keyboard-response","517","","","","",""
"1291","cigar","ndugu,kuta,adhabu,mlango","adhabu","j","3","html-keyboard-response","518","j","adhabu","true","","1"
"1811.3999999761581","","","","","3","html-slider-response","519","","","","5",""
"532","","","","","3","html-keyboard-response","520","","","","",""
"2521","hammer","mekno,kitovu,layag,napakyas","napakyas","n","3","html-keyboard-response","521","f","mekno","false","","4"
"1789.3999999761581","","","","","3","html-slider-response","522","","","","4",""
"909","","","","","3","html-keyboard-response","523","","","","",""
"2365","fork","mgonjwa,baboy,paghago,gorisi","mgonjwa","f","3","html-keyboard-response","524","j","paghago","false","","4"
"1671","","","","","3","html-slider-response","525","","","","5",""
"416","","","","","3","html-keyboard-response","526","","","","",""
"1403","sun","bendi,luha,uongo,basi","basi","n","3","html-keyboard-response","527","n","basi","true","","1"
"1858.2999999523163","","","","","3","html-slider-response","528","","","","5",""
"459","","","","","3","html-keyboard-response","529","","","","",""
"2735","ladder","pangalan,mashua,mwanga,kamba","pangalan","f","3","html-keyboard-response","530","f","pangalan","true","","4"
"1582.5","","","","","3","html-slider-response","531","","","","4",""
"463","","","","","3","html-keyboard-response","532","","","","",""
"1283","banana","kasamok,hagdan,twai,kazi","kazi","n","3","html-keyboard-response","533","n","kazi","true","","1"
"1634.2999999523163","","","","","3","html-slider-response","534","","","","5",""
"495","","","","","3","html-keyboard-response","535","","","","",""
"2725","pudding","aibu,abug,mpishi,iring","aibu","f","3","html-keyboard-response","536","f","aibu","true","","4"
"1734.2000000476837","","","","","3","html-slider-response","537","","","","5",""
"1285","","","","","3","html-keyboard-response","538","","","","",""
"3660","body","tindashan,nyundu,jibini,kununa","tindashan","f","3","html-keyboard-response","539","j","jibini","false","","4"
"1468.3000000715256","","","","","3","html-slider-response","540","","","","5",""
"534","","","","","3","html-keyboard-response","541","","","","",""
"3877","bed","mapintas,kalipay,haraka,starehe","mapintas","f","3","html-keyboard-response","542","f","mapintas","true","","4"
"2041.3999999761581","","","","","3","html-slider-response","543","","","","4",""
"968","","","","","3","html-keyboard-response","544","","","","",""
"3328","tissue","lamigas,kisiwa,ugomvi,katika","ugomvi","j","3","html-keyboard-response","545","f","lamigas","false","","4"
"2172.600000023842","","","","","3","html-slider-response","546","","","","4",""
"2839","","","","","3","html-keyboard-response","547","","","","",""
"2773","candle","gabi,farasi,geza,kupanda","geza","j","3","html-keyboard-response","548","n","kupanda","false","","4"
"2049.899999976158","","","","","3","html-slider-response","549","","","","5",""
"639","","","","","3","html-keyboard-response","550","","","","",""
"1407","tomato","chupi,mvua,chupa,takatak","mvua","v","3","html-keyboard-response","551","v","mvua","true","","1"
"2406.5999999046326","","","","","3","html-slider-response","552","","","","5",""
"536","","","","","3","html-keyboard-response","553","","","","",""
"4780","list","alizeti,wingu,kuzama,kaso","wingu","v","3","html-keyboard-response","554","n","kaso","false","","4"
"1980.6999999284744","","","","","3","html-slider-response","555","","","","4",""
"711","","","","","3","html-keyboard-response","556","","","","",""
"2843","olive","bata,siagi,jiwe,welder","jiwe","j","3","html-keyboard-response","557","f","bata","false","","4"
"1730.2000000476837","","","","","3","html-slider-response","558","","","","4",""
"414","","","","","3","html-keyboard-response","559","","","","",""
"1169","picture","silya,kubwa,chaki,asin","kubwa","v","3","html-keyboard-response","560","v","kubwa","true","","1"
"1822.5","","","","","3","html-slider-response","561","","","","5",""
"650","","","","","3","html-keyboard-response","562","","","","",""
"2072","page","wakala,ishiri,skina,wimbo","wimbo","n","4","html-keyboard-response","888","v","ishiri","false","",""
"4272.5","","","","","4","html-slider-response","889","","","","2",""
"3339","sheet","bililhon,juuya,watu,kamantis","bililhon","f","4","html-keyboard-response","890","f","bililhon","true","",""
"1969.8999999761581","","","","","4","html-slider-response","891","","","","4",""
"2262","ladder","mashua,mwanga,pangalan,kamba","pangalan","j","4","html-keyboard-response","892","j","pangalan","true","",""
"1804.1000000238419","","","","","4","html-slider-response","893","","","","5",""
"3098","door","tena,soko,surali,nyota","surali","j","4","html-keyboard-response","894","j","surali","true","",""
"1675.7999999523163","","","","","4","html-slider-response","895","","","","5",""
"6514","spider","bunyag,kamwe,mkboa,atop","kamwe","v","4","html-keyboard-response","896","v","kamwe","true","",""
"2682.7999999523163","","","","","4","html-slider-response","897","","","","5",""
"4406","picture","silya,chaki,kubwa,asin","kubwa","j","4","html-keyboard-response","898","f","silya","false","",""
"1415.2000000476837","","","","","4","html-slider-response","899","","","","4",""
"3503","boat","hamsi,pombe,kitanda,agalon","agalon","n","4","html-keyboard-response","900","j","kitanda","false","",""
"2629.7999999523163","","","","","4","html-slider-response","901","","","","5",""
"2790","donkey","bloke,lalake,rombus,elfu","elfu","n","4","html-keyboard-response","902","n","elfu","true","",""
"2103.4000000953674","","","","","4","html-slider-response","903","","","","5",""
"2299","book","kuhesa,picha,mara,mali","mali","n","4","html-keyboard-response","904","n","mali","true","",""
"1410.2000000476837","","","","","4","html-slider-response","905","","","","5",""
"3065","cup","matumai,dagat,shimoni,jeraha","matumai","f","4","html-keyboard-response","906","f","matumai","true","",""
"1460.3999999761581","","","","","4","html-slider-response","907","","","","5",""
"2986","sun","bendi,luha,basi,uongo","basi","j","4","html-keyboard-response","908","n","uongo","false","",""
"1826.6000000238419","","","","","4","html-slider-response","909","","","","4",""
"3456","pudding","aibu,abug,mpishi,iring","aibu","f","4","html-keyboard-response","910","f","aibu","true","",""
"1629.1000000238419","","","","","4","html-slider-response","911","","","","5",""
"2087","human","tinapay,bado,kikapu,punguza","tinapay","f","4","html-keyboard-response","912","n","punguza","false","",""
"1406.1999999284744","","","","","4","html-slider-response","913","","","","5",""
"4588","squirrel","mahugaw,ukweli,hofu,kichwa","hofu","j","4","html-keyboard-response","914","f","mahugaw","false","",""
"1765.5999999046326","","","","","4","html-slider-response","915","","","","4",""
"3918","park","tambok,bunifu,pwani,ihalas","bunifu","v","4","html-keyboard-response","916","v","bunifu","true","",""
"2767","","","","","4","html-slider-response","917","","","","5",""
"5661","poster","nchi,fedha,kasuko,madungog","madungog","n","4","html-keyboard-response","918","n","madungog","true","",""
"1736.1000000238419","","","","","4","html-slider-response","919","","","","5",""
"3485","wolf","kaburi,ndizi,lugha,mchuzi","lugha","j","4","html-keyboard-response","920","j","lugha","true","",""
"2112","","","","","4","html-slider-response","921","","","","4",""
"2012","cat","neyemba,paghukom,baki,akili","paghukom","v","4","html-keyboard-response","922","v","paghukom","true","",""
"1920.8999999761581","","","","","4","html-slider-response","923","","","","5",""
"2256","fish","bala,baho,imani,buli","buli","n","4","html-keyboard-response","924","f","bala","false","",""
"1797","","","","","4","html-slider-response","925","","","","5",""
"5888","tooth","kabalaka,kijiko,uadui,pahiyum","kabalaka","f","4","html-keyboard-response","926","f","kabalaka","true","",""
"2876.600000023842","","","","","4","html-slider-response","927","","","","2",""
"3245","cave","ganti,kesho,maisha,nyundo","kesho","v","4","html-keyboard-response","928","v","kesho","true","",""
"3424.3000000715256","","","","","4","html-slider-response","929","","","","2",""
"4486","lamp","daub,afya,bilaska,mbolea","afya","v","4","html-keyboard-response","930","j","bilaska","false","",""
"1655.9000000953674","","","","","4","html-slider-response","931","","","","4",""
"3743","banana","kasamok,hagdan,kazi,twai","kazi","j","4","html-keyboard-response","932","f","kasamok","false","",""
"1606.5","","","","","4","html-slider-response","933","","","","5",""
"2104","bonfire","mwezi,mfuko,goti,kusanya","goti","j","4","html-keyboard-response","934","j","goti","true","",""
"1242.2000000476837","","","","","4","html-slider-response","935","","","","5",""
"3763","cop","mechezo,bustani,jikoni,bakus","mechezo","f","4","html-keyboard-response","936","f","mechezo","true","",""
"1987.2000000476837","","","","","4","html-slider-response","937","","","","5",""
"3627","marker","mapafu,salita,atay,maji","maji","n","4","html-keyboard-response","938","v","salita","false","",""
"1314.7999999523163","","","","","4","html-slider-response","939","","","","4",""
"6423","window","nanga,kujenga,umaga,kweli","kweli","n","4","html-keyboard-response","940","j","umaga","false","",""
"1750.8999999761581","","","","","4","html-slider-response","941","","","","4",""
"3044","body","nyundu,jibini,tindashan,kununa","tindashan","j","4","html-keyboard-response","942","j","tindashan","true","",""
"2753.4000000953674","","","","","4","html-slider-response","943","","","","2",""
"2906","apple","ukame,kisu,estante,edad","kisu","v","4","html-keyboard-response","944","f","ukame","false","",""
"1619.5999999046326","","","","","4","html-slider-response","945","","","","4",""
"6331","salmon","mzungu,seri,sensilyo,baharia","sensilyo","j","4","html-keyboard-response","946","f","mzungu","false","",""
"2459","","","","","4","html-slider-response","947","","","","2",""
"7052","bed","kalipay,haraka,mapintas,starehe","mapintas","j","4","html-keyboard-response","948","f","kalipay","false","",""
"2209.399999976158","","","","","4","html-slider-response","949","","","","2",""
"4168","berry","kofia,abogado,nogozi,kinywa","kofia","f","4","html-keyboard-response","950","j","nogozi","false","",""
"2158","","","","","4","html-slider-response","951","","","","2",""
"4052","mirror","rangi,kanding,furaha,sulagma","sulagma","n","4","html-keyboard-response","952","n","sulagma","true","",""
"3965.399999976158","","","","","4","html-slider-response","953","","","","3",""
"2418","flag","ndege,trekta,mkate,kawa","trekta","v","4","html-keyboard-response","954","j","mkate","false","",""
"1375.3999999761581","","","","","4","html-slider-response","955","","","","4",""
"4206","shoulder","mkuu,kelele,ndaniya,guruwe","mkuu","f","4","html-keyboard-response","956","v","kelele","false","",""
"2482.0999999046326","","","","","4","html-slider-response","957","","","","2",""
"4986","tissue","lamigas,kisiwa,katika,ugomvi","ugomvi","n","4","html-keyboard-response","958","j","katika","false","",""
"2794.7000000476837","","","","","4","html-slider-response","959","","","","2",""
"3559","notebook","msitu,kila,mdudu,kemia","kemia","n","4","html-keyboard-response","960","f","msitu","false","",""
"1637.8000000715256","","","","","4","html-slider-response","961","","","","4",""
"2487","snake","jansa,karon,mvringo,pagtukod","pagtukod","n","4","html-keyboard-response","962","n","pagtukod","true","",""
"2389.600000023842","","","","","4","html-slider-response","963","","","","5",""
"3760","finger","moyo,simu,sufuria,lima","moyo","f","4","html-keyboard-response","964","f","moyo","true","",""
"1925","","","","","4","html-slider-response","965","","","","4",""
"11093","basket","kumbuka,kumba,utepe,hasira","kumba","v","4","html-keyboard-response","966","f","kumbuka","false","",""
"1633.1000000238419","","","","","4","html-slider-response","967","","","","4",""
"2184","curtain","lisud,bulwawan,chubani,mchanga","mchanga","n","4","html-keyboard-response","968","v","bulwawan","false","",""
"1805.7999999523163","","","","","4","html-slider-response","969","","","","2",""
"2210","perfume","katuyoan,bino,sungura,ndogo","katuyoan","f","4","html-keyboard-response","970","f","katuyoan","true","",""
"1451","","","","","4","html-slider-response","971","","","","5",""
"2978","key","chombo,miaka,goma,ahos","chombo","f","4","html-keyboard-response","972","j","goma","false","",""
"1859.0999999046326","","","","","4","html-slider-response","973","","","","2",""
"2442","olive","bata,siagi,welder,jiwe","jiwe","n","4","html-keyboard-response","974","f","bata","false","",""
"1963.2999999523163","","","","","4","html-slider-response","975","","","","2",""
"1977","rose","singizi,mwanake,amani,paghalad","paghalad","n","4","html-keyboard-response","976","n","paghalad","true","",""
"2176.899999976158","","","","","4","html-slider-response","977","","","","5",""
"4544","bridge","daima,sahani,ngono,panya","sahani","v","4","html-keyboard-response","978","j","ngono","false","",""
"2709.2999999523163","","","","","4","html-slider-response","979","","","","4",""
"2963","hill","kushoto,matumbo,kukimba,sweta","matumbo","v","4","html-keyboard-response","980","j","kukimba","false","",""
"2361.399999976158","","","","","4","html-slider-response","981","","","","4",""
"3605","letter","filimbi,chuma,uhuru,kifua","kifua","n","4","html-keyboard-response","982","n","kifua","true","",""
"2536.399999976158","","","","","4","html-slider-response","983","","","","2",""
"2689","sock","ndoora,kimysa,mamba,mtirka","mamba","j","4","html-keyboard-response","984","v","kimysa","false","",""
"1956.1999999284744","","","","","4","html-slider-response","985","","","","2",""
"2396","fork","baboy,mgonjwa,paghago,gorisi","mgonjwa","v","4","html-keyboard-response","986","j","paghago","false","",""
"2401.5","","","","","4","html-slider-response","987","","","","4",""
"6274","box","kuacha,rafiki,kitande,adui","adui","n","4","html-keyboard-response","988","n","adui","true","",""
"2043.6000000238419","","","","","4","html-slider-response","989","","","","2",""
"6151","gift","baba,nyange,baso,pagtawag","pagtawag","n","4","html-keyboard-response","990","n","pagtawag","true","",""
"1778.8999999761581","","","","","4","html-slider-response","991","","","","4",""
"23800","bucket","baga,ijayo,init,kiatu","kiatu","n","4","html-keyboard-response","992","n","kiatu","true","",""
"3048.2999999523163","","","","","4","html-slider-response","993","","","","4",""
"9235","shop","nopya,kerida,ndezu,samaki","samaki","n","4","html-keyboard-response","994","n","samaki","true","",""
"2385.5","","","","","4","html-slider-response","995","","","","2",""
"4140","puppet","napulo,lamok,godoro,mazishi","mazishi","n","4","html-keyboard-response","996","j","godoro","false","",""
"2669","","","","","4","html-slider-response","997","","","","2",""
"3800","nose","gubat,sehemu,kopa,kidole","sehemu","v","4","html-keyboard-response","998","v","sehemu","true","",""
"1698.1000000238419","","","","","4","html-slider-response","999","","","","2",""
"2393","music","mraba,mageho,tumbo,baiski","baiski","n","4","html-keyboard-response","1000","n","baiski","true","",""
"2628.7999999523163","","","","","4","html-slider-response","1001","","","","2",""
"21188","dog","bahari,lubi,washia,kalamu","bahari","f","4","html-keyboard-response","1002","f","bahari","true","",""
"2276.2999999523163","","","","","4","html-slider-response","1003","","","","5",""
"3533","eel","ishara,kunywa,msumari,kabuang","msumari","j","4","html-keyboard-response","1004","j","msumari","true","",""
"2052.2999999523163","","","","","4","html-slider-response","1005","","","","4",""
"2858","number","shule,kengele,choori,mundamo","mundamo","n","4","html-keyboard-response","1006","n","mundamo","true","",""
"1818.6000000238419","","","","","4","html-slider-response","1007","","","","2",""
"4284","tomato","chupi,mvua,chupa,takatak","mvua","v","4","html-keyboard-response","1008","j","chupa","false","",""
"1992.1000000238419","","","","","4","html-slider-response","1009","","","","4",""
"3647","coffin","barua,kioo,tubag,hulma","kioo","v","4","html-keyboard-response","1010","v","kioo","true","",""
"1645.6000000238419","","","","","4","html-slider-response","1011","","","","4",""
"3379","knee","mvuke,duka,kubale,bili","duka","v","4","html-keyboard-response","1012","j","kubale","false","",""
"1641.6000000238419","","","","","4","html-slider-response","1013","","","","2",""
"4134","woman","bandari,bituin,kovuli,pagtabon","pagtabon","n","4","html-keyboard-response","1014","n","pagtabon","true","",""
"2078","","","","","4","html-slider-response","1015","","","","5",""
"3243","stone","ulimwengu,mkasi,asili,wingi","wingi","n","4","html-keyboard-response","1016","v","mkasi","false","",""
"2034.3999999761581","","","","","4","html-slider-response","1017","","","","1",""
"4196","bread","kaili,dizeli,dari,bugas","dari","j","4","html-keyboard-response","1018","j","dari","true","",""
"2145.100000023842","","","","","4","html-slider-response","1019","","","","4",""
"3289","triangle","kihozi,bentaha,kasadpan,liog","kasadpan","j","4","html-keyboard-response","1020","j","kasadpan","true","",""
"1788.7000000476837","","","","","4","html-slider-response","1021","","","","2",""
"2830","scissors","tanuri,duga,mtawa,suga","tanuri","f","4","html-keyboard-response","1022","f","tanuri","true","",""
"2847.5","","","","","4","html-slider-response","1023","","","","4",""
"16196","giraffe","mahitabo,daraja,jumatu,hangyo","mahitabo","f","4","html-keyboard-response","1024","f","mahitabo","true","",""
"1828.6000000238419","","","","","4","html-slider-response","1025","","","","2",""
"3076","flower","tamasha,lobo,usiku,bega","bega","n","4","html-keyboard-response","1026","f","tamasha","false","",""
"1521.3000000715256","","","","","4","html-slider-response","1027","","","","4",""
"2323","candle","gabi,geza,farasi,kupanda","geza","v","4","html-keyboard-response","1028","n","kupanda","false","",""
"1666.9000000953674","","","","","4","html-slider-response","1029","","","","5",""
"3381","mother","kahawa,mbuzi,babaye,jokofu","babaye","j","4","html-keyboard-response","1030","j","babaye","true","",""
"2854.3000000715256","","","","","4","html-slider-response","1031","","","","2",""
"3276","towel","tembo,funzi,pito,pagpalit","pagpalit","n","4","html-keyboard-response","1032","f","tembo","false","",""
"2273.100000023842","","","","","4","html-slider-response","1033","","","","2",""
"2572","elephant","petye,pagduol,kito,suka","kito","j","4","html-keyboard-response","1034","v","pagduol","false","",""
"1993.2999999523163","","","","","4","html-slider-response","1035","","","","5",""
"3715","shelf","bungtod,kadaot,awit,pamahaw","pamahaw","n","4","html-keyboard-response","1036","n","pamahaw","true","",""
"1770.5","","","","","4","html-slider-response","1037","","","","4",""
"2005","mosquito","martilyo,isda,taras,gutom","martilyo","f","4","html-keyboard-response","1038","f","martilyo","true","",""
"1664.7000000476837","","","","","4","html-slider-response","1039","","","","5",""
"2798","column","ufagio,pundok,dila,pala","ufagio","f","4","html-keyboard-response","1040","v","pundok","false","",""
"1719.2999999523163","","","","","4","html-slider-response","1041","","","","2",""
"2259","pants","haki,pintal,chuki,hari","haki","f","4","html-keyboard-response","1042","j","chuki","false","",""
"1506.7999999523163","","","","","4","html-slider-response","1043","","","","4",""
"5739","list","alizeti,wingu,kuzama,kaso","wingu","v","4","html-keyboard-response","1044","j","kuzama","false","",""
"2722.0999999046326","","","","","4","html-slider-response","1045","","","","2",""
"8886","bank","kudhibi,tualya,silingan,ofisi","silingan","j","4","html-keyboard-response","1046","v","tualya","false","",""
"2387.100000023842","","","","","4","html-slider-response","1047","","","","2",""
"3395","clock","kartasi,mbwa,abang,osha","mbwa","v","4","html-keyboard-response","1048","f","kartasi","false","",""
"2763.100000023842","","","","","4","html-slider-response","1049","","","","5",""
"2633","ceiling","kugita,kawaida,maua,rayna","maua","j","4","html-keyboard-response","1050","v","kawaida","false","",""
"2580.7000000476837","","","","","4","html-slider-response","1051","","","","5",""
"9247","train","itik,dakika,sayari,mungu","sayari","j","4","html-keyboard-response","1052","j","sayari","true","",""
"1502.1999999284744","","","","","4","html-slider-response","1053","","","","4",""
"7005","magazine","kiti,gundi,mchawi,bahandi","kiti","f","4","html-keyboard-response","1054","n","bahandi","false","",""
"2332.2000000476837","","","","","4","html-slider-response","1055","","","","4",""
"2714","office","hazini,leso,yatima,kuna","leso","v","4","html-keyboard-response","1056","v","leso","true","",""
"3303.8000000715256","","","","","4","html-slider-response","1057","","","","5",""
"4459","wheel","punda,bafuni,tawo,baadaye","bafuni","v","4","html-keyboard-response","1058","f","punda","false","",""
"13350.299999952316","","","","","4","html-slider-response","1059","","","","4",""
"3101","spoon","betri,nzuri,pagsulod,ngazi","pagsulod","j","4","html-keyboard-response","1060","n","ngazi","false","",""
"2792.100000023842","","","","","4","html-slider-response","1061","","","","1",""
"1881","hammer","mekno,kitovu,layag,napakyas","napakyas","n","4","html-keyboard-response","1062","n","napakyas","true","",""
"2292.399999976158","","","","","4","html-slider-response","1063","","","","4",""
"3201","cigar","ndugu,kuta,adhabu,mlango","adhabu","j","4","html-keyboard-response","1064","n","mlango","false","",""
"2100.600000023842","","","","","4","html-slider-response","1065","","","","2",""
"3816","shoe","nyeusi,hatua,uyoga,kama","uyoga","j","4","html-keyboard-response","1066","j","uyoga","true","",""
"2197.2999999523163","","","","","4","html-slider-response","1067","","","","4",""
"10946","list","wingu,alizeti,kuzama,kaso","wingu","f","5","html-keyboard-response","1069","n","kaso","false","",""
"3342.600000023842","","","","","5","html-slider-response","1070","","","","4",""
"7018","number","shule,mundamo,kengele,choori","mundamo","v","5","html-keyboard-response","1071","v","mundamo","true","",""
"1578.1000000238419","","","","","5","html-slider-response","1072","","","","5",""
"2651","apple","kisu,ukame,estante,edad","kisu","f","5","html-keyboard-response","1073","j","estante","false","",""
"1218.7999999523163","","","","","5","html-slider-response","1074","","","","4",""
"3205","knee","mvuke,kubale,bili,duka","duka","n","5","html-keyboard-response","1075","v","kubale","false","",""
"1808.5","","","","","5","html-slider-response","1076","","","","4",""
"2128","tooth","kijiko,uadui,pahiyum,kabalaka","kabalaka","n","5","html-keyboard-response","1077","j","pahiyum","false","",""
"1317.1999999284744","","","","","5","html-slider-response","1078","","","","5",""
"3218","berry","abogado,kofia,nogozi,kinywa","kofia","v","5","html-keyboard-response","1079","f","abogado","false","",""
"1164.0999999046326","","","","","5","html-slider-response","1080","","","","4",""
"3782","bridge","daima,ngono,sahani,panya","sahani","j","5","html-keyboard-response","1081","j","sahani","true","",""
"1391.1000000238419","","","","","5","html-slider-response","1082","","","","4",""
"2393","perfume","bino,sungura,katuyoan,ndogo","katuyoan","j","5","html-keyboard-response","1083","j","katuyoan","true","",""
"1676.9000000953674","","","","","5","html-slider-response","1084","","","","4",""
"2427","ladder","mashua,pangalan,mwanga,kamba","pangalan","v","5","html-keyboard-response","1085","v","pangalan","true","",""
"1718.6000000238419","","","","","5","html-slider-response","1086","","","","5",""
"2816","pants","pintal,haki,chuki,hari","haki","v","5","html-keyboard-response","1087","f","pintal","false","",""
"1661.1000000238419","","","","","5","html-slider-response","1088","","","","4",""
"3040","salmon","sensilyo,mzungu,seri,baharia","sensilyo","f","5","html-keyboard-response","1089","f","sensilyo","true","",""
"1869.4000000953674","","","","","5","html-slider-response","1090","","","","5",""
"4569","coffin","barua,tubag,kioo,hulma","kioo","j","5","html-keyboard-response","1091","j","kioo","true","",""
"2075.7999999523163","","","","","5","html-slider-response","1092","","","","4",""
"2940","park","tambok,bunifu,pwani,ihalas","bunifu","v","5","html-keyboard-response","1093","f","tambok","false","",""
"1945.2999999523163","","","","","5","html-slider-response","1094","","","","5",""
"2937","giraffe","daraja,jumatu,hangyo,mahitabo","mahitabo","n","5","html-keyboard-response","1095","v","jumatu","false","",""
"1755.1999999284744","","","","","5","html-slider-response","1096","","","","4",""
"2357","mirror","rangi,sulagma,kanding,furaha","sulagma","v","5","html-keyboard-response","1097","v","sulagma","true","",""
"1496.3999999761581","","","","","5","html-slider-response","1098","","","","4",""
"3230","ceiling","kugita,kawaida,rayna,maua","maua","n","5","html-keyboard-response","1099","f","kugita","false","",""
"1735.3000000715256","","","","","5","html-slider-response","1100","","","","2",""
"2293","marker","mapafu,salita,atay,maji","maji","n","5","html-keyboard-response","1101","f","mapafu","false","",""
"1712.2000000476837","","","","","5","html-slider-response","1102","","","","4",""
"33313","sock","mamba,ndoora,kimysa,mtirka","mamba","f","5","html-keyboard-response","1103","j","kimysa","false","",""
"5623.200000047684","","","","","5","html-slider-response","1104","","","","4",""
"1924","cop","bustani,jikoni,mechezo,bakus","mechezo","j","5","html-keyboard-response","1105","j","mechezo","true","",""
"2001.3999999761581","","","","","5","html-slider-response","1106","","","","5",""
"1921","gift","baba,nyange,baso,pagtawag","pagtawag","n","5","html-keyboard-response","1107","n","pagtawag","true","",""
"2644.4000000953674","","","","","5","html-slider-response","1108","","","","5",""
"8531","notebook","kemia,msitu,kila,mdudu","kemia","f","5","html-keyboard-response","1109","j","kila","false","",""
"2126.100000023842","","","","","5","html-slider-response","1110","","","","4",""
"3581","bank","kudhibi,tualya,ofisi,silingan","silingan","n","5","html-keyboard-response","1111","f","kudhibi","false","",""
"1987.8999999761581","","","","","5","html-slider-response","1112","","","","2",""
"2313","letter","filimbi,chuma,uhuru,kifua","kifua","n","5","html-keyboard-response","1113","n","kifua","true","",""
"1483.6999999284744","","","","","5","html-slider-response","1114","","","","4",""
"1580","candle","gabi,geza,farasi,kupanda","geza","v","5","html-keyboard-response","1115","n","kupanda","false","",""
"1684.6000000238419","","","","","5","html-slider-response","1116","","","","4",""
"2201","bread","kaili,dizeli,bugas,dari","dari","n","5","html-keyboard-response","1117","f","kaili","false","",""
"1395.6000000238419","","","","","5","html-slider-response","1118","","","","4",""
"2188","snake","pagtukod,jansa,karon,mvringo","pagtukod","f","5","html-keyboard-response","1119","f","pagtukod","true","",""
"1452.7000000476837","","","","","5","html-slider-response","1120","","","","5",""
"2299","rose","paghalad,singizi,mwanake,amani","paghalad","f","5","html-keyboard-response","1121","f","paghalad","true","",""
"1429.6999999284744","","","","","5","html-slider-response","1122","","","","5",""
"4147","hill","matumbo,kushoto,kukimba,sweta","matumbo","f","5","html-keyboard-response","1123","j","kukimba","false","",""
"2227.100000023842","","","","","5","html-slider-response","1124","","","","4",""
"2595","train","itik,dakika,mungu,sayari","sayari","n","5","html-keyboard-response","1125","n","sayari","true","",""
"2041.5","","","","","5","html-slider-response","1126","","","","5",""
"2921","shop","nopya,samaki,kerida,ndezu","samaki","v","5","html-keyboard-response","1127","v","samaki","true","",""
"1644.5","","","","","5","html-slider-response","1128","","","","4",""
"10441","nose","gubat,kopa,kidole,sehemu","sehemu","n","5","html-keyboard-response","1129","n","sehemu","true","",""
"1548.6000000238419","","","","","5","html-slider-response","1130","","","","4",""
"3023","boat","hamsi,pombe,agalon,kitanda","agalon","j","5","html-keyboard-response","1131","j","agalon","true","",""
"2030.2999999523163","","","","","5","html-slider-response","1132","","","","5",""
"4535","body","nyundu,jibini,kununa,tindashan","tindashan","n","5","html-keyboard-response","1133","n","tindashan","true","",""
"2966.4000000953674","","","","","5","html-slider-response","1134","","","","1",""
"2352","bed","mapintas,kalipay,haraka,starehe","mapintas","f","5","html-keyboard-response","1135","f","mapintas","true","",""
"2368.8000000715256","","","","","5","html-slider-response","1136","","","","2",""
"2169","squirrel","hofu,mahugaw,ukweli,kichwa","hofu","f","5","html-keyboard-response","1137","v","mahugaw","false","",""
"2224.399999976158","","","","","5","html-slider-response","1138","","","","4",""
"5257","window","kweli,nanga,kujenga,umaga","kweli","f","5","html-keyboard-response","1139","j","kujenga","false","",""
"1988.2000000476837","","","","","5","html-slider-response","1140","","","","4",""
"1585","bonfire","mwezi,mfuko,kusanya,goti","goti","n","5","html-keyboard-response","1141","n","goti","true","",""
"1732.2999999523163","","","","","5","html-slider-response","1142","","","","5",""
"2201","fish","bala,baho,imani,buli","buli","n","5","html-keyboard-response","1143","f","bala","false","",""
"1933.1000000238419","","","","","5","html-slider-response","1144","","","","5",""
"4081","cat","neyemba,baki,akili,paghukom","paghukom","n","5","html-keyboard-response","1145","n","paghukom","true","",""
"1630.8000000715256","","","","","5","html-slider-response","1146","","","","5",""
"2954","spider","bunyag,mkboa,kamwe,atop","kamwe","j","5","html-keyboard-response","1147","j","kamwe","true","",""
"1547.1999999284744","","","","","5","html-slider-response","1148","","","","5",""
"2145","eel","ishara,kunywa,msumari,kabuang","msumari","j","5","html-keyboard-response","1149","n","kabuang","false","",""
"2356","","","","","5","html-slider-response","1150","","","","4",""
"1747","woman","bandari,bituin,kovuli,pagtabon","pagtabon","n","5","html-keyboard-response","1151","n","pagtabon","true","",""
"1722.1999999284744","","","","","5","html-slider-response","1152","","","","5",""
"1803","magazine","gundi,mchawi,kiti,bahandi","kiti","j","5","html-keyboard-response","1153","v","mchawi","false","",""
"1609.1999999284744","","","","","5","html-slider-response","1154","","","","5",""
"2443","pudding","abug,mpishi,iring,aibu","aibu","n","5","html-keyboard-response","1155","n","aibu","true","",""
"2026.5","","","","","5","html-slider-response","1156","","","","4",""
"2855","lamp","afya,daub,bilaska,mbolea","afya","f","5","html-keyboard-response","1157","j","bilaska","false","",""
"1901.3999999761581","","","","","5","html-slider-response","1158","","","","4",""
"3165","cave","kesho,ganti,maisha,nyundo","kesho","f","5","html-keyboard-response","1159","f","kesho","true","",""
"1840.7999999523163","","","","","5","html-slider-response","1160","","","","4",""
"3968","shoulder","mkuu,kelele,ndaniya,guruwe","mkuu","f","5","html-keyboard-response","1161","v","kelele","false","",""
"1757.6999999284744","","","","","5","html-slider-response","1162","","","","2",""
"3085","stone","ulimwengu,mkasi,wingi,asili","wingi","j","5","html-keyboard-response","1163","f","ulimwengu","false","",""
"2216.600000023842","","","","","5","html-slider-response","1164","","","","4",""
"5258","column","pundok,ufagio,dila,pala","ufagio","v","5","html-keyboard-response","1165","v","ufagio","true","",""
"1746.8999999761581","","","","","5","html-slider-response","1166","","","","4",""
"4555","page","wakala,ishiri,wimbo,skina","wimbo","j","5","html-keyboard-response","1167","v","ishiri","false","",""
"2138.8000000715256","","","","","5","html-slider-response","1168","","","","2",""
"9862","shoe","nyeusi,hatua,uyoga,kama","uyoga","j","5","html-keyboard-response","1169","f","nyeusi","false","",""
"3075.600000023842","","","","","5","html-slider-response","1170","","","","4",""
"3492","clock","kartasi,abang,mbwa,osha","mbwa","j","5","html-keyboard-response","1171","f","kartasi","false","",""
"4056.899999976158","","","","","5","html-slider-response","1172","","","","5",""
"2747","towel","tembo,funzi,pagpalit,pito","pagpalit","j","5","html-keyboard-response","1173","f","tembo","false","",""
"2066.6999999284744","","","","","5","html-slider-response","1174","","","","1",""
"1886","tomato","chupi,chupa,takatak,mvua","mvua","n","5","html-keyboard-response","1175","f","chupi","false","",""
"1614.5","","","","","5","html-slider-response","1176","","","","4",""
"2810","bucket","baga,ijayo,init,kiatu","kiatu","n","5","html-keyboard-response","1177","n","kiatu","true","",""
"2371.5","","","","","5","html-slider-response","1178","","","","4",""
"4745","finger","simu,sufuria,lima,moyo","moyo","n","5","html-keyboard-response","1179","n","moyo","true","",""
"2259.600000023842","","","","","5","html-slider-response","1180","","","","5",""
"2962","mother","babaye,kahawa,mbuzi,jokofu","babaye","f","5","html-keyboard-response","1181","v","kahawa","false","",""
"4347.200000047684","","","","","5","html-slider-response","1182","","","","5",""
"4353","human","bado,kikapu,punguza,tinapay","tinapay","n","5","html-keyboard-response","1183","n","tinapay","true","",""
"3039.8000000715256","","","","","5","html-slider-response","1184","","","","4",""
"4326","sun","bendi,luha,uongo,basi","basi","n","5","html-keyboard-response","1185","n","basi","true","",""
"1806.9000000953674","","","","","5","html-slider-response","1186","","","","2",""
"5791","fork","baboy,mgonjwa,paghago,gorisi","mgonjwa","v","5","html-keyboard-response","1187","j","paghago","false","",""
"1945.6999999284744","","","","","5","html-slider-response","1188","","","","4",""
"10366","donkey","elfu,bloke,lalake,rombus","elfu","f","5","html-keyboard-response","1189","f","elfu","true","",""
"2194.100000023842","","","","","5","html-slider-response","1190","","","","4",""
"2422","wolf","kaburi,lugha,ndizi,mchuzi","lugha","v","5","html-keyboard-response","1191","f","kaburi","false","",""
"1551.5","","","","","5","html-slider-response","1192","","","","5",""
"3202","cigar","ndugu,kuta,mlango,adhabu","adhabu","n","5","html-keyboard-response","1193","f","ndugu","false","",""
"2274.7999999523163","","","","","5","html-slider-response","1194","","","","5",""
"3485","olive","bata,siagi,welder,jiwe","jiwe","n","5","html-keyboard-response","1195","f","bata","false","",""
"2720.9000000953674","","","","","5","html-slider-response","1196","","","","4",""
"5456","key","miaka,goma,chombo,ahos","chombo","j","5","html-keyboard-response","1197","f","miaka","false","",""
"1676.6000000238419","","","","","5","html-slider-response","1198","","","","4",""
"3834","door","surali,tena,soko,nyota","surali","f","5","html-keyboard-response","1199","n","nyota","false","",""
"2090","","","","","5","html-slider-response","1200","","","","5",""
"2916","wheel","punda,bafuni,tawo,baadaye","bafuni","v","5","html-keyboard-response","1201","v","bafuni","true","",""
"2449.7999999523163","","","","","5","html-slider-response","1202","","","","1",""
"2234","basket","kumbuka,utepe,kumba,hasira","kumba","j","5","html-keyboard-response","1203","f","kumbuka","false","",""
"1796","","","","","5","html-slider-response","1204","","","","4",""
"2833","elephant","kito,petye,pagduol,suka","kito","f","5","html-keyboard-response","1205","j","pagduol","false","",""
"1637","","","","","5","html-slider-response","1206","","","","2",""
"1347","office","leso,hazini,yatima,kuna","leso","f","5","html-keyboard-response","1207","f","leso","true","",""
"1998.9000000953674","","","","","5","html-slider-response","1208","","","","5",""
"1777","music","mraba,mageho,tumbo,baiski","baiski","n","5","html-keyboard-response","1209","v","mageho","false","",""
"1932.1999999284744","","","","","5","html-slider-response","1210","","","","2",""
"1878","tissue","lamigas,kisiwa,ugomvi,katika","ugomvi","j","5","html-keyboard-response","1211","v","kisiwa","false","",""
"1471.0999999046326","","","","","5","html-slider-response","1212","","","","4",""
"2492","curtain","lisud,bulwawan,chubani,mchanga","mchanga","n","5","html-keyboard-response","1213","v","bulwawan","false","",""
"1569.5999999046326","","","","","5","html-slider-response","1214","","","","4",""
"4517","flag","ndege,mkate,trekta,kawa","trekta","j","5","html-keyboard-response","1215","j","trekta","true","",""
"2048.2000000476837","","","","","5","html-slider-response","1216","","","","4",""
"2153","dog","lubi,bahari,washia,kalamu","bahari","v","5","html-keyboard-response","1217","v","bahari","true","",""
"2004","","","","","5","html-slider-response","1218","","","","5",""
"3089","cup","dagat,matumai,shimoni,jeraha","matumai","v","5","html-keyboard-response","1219","v","matumai","true","",""
"2116.100000023842","","","","","5","html-slider-response","1220","","","","4",""
"2836","sheet","juuya,watu,kamantis,bililhon","bililhon","n","5","html-keyboard-response","1221","v","watu","false","",""
"1921.1999999284744","","","","","5","html-slider-response","1222","","","","2",""
"3087","spoon","betri,nzuri,pagsulod,ngazi","pagsulod","j","5","html-keyboard-response","1223","v","nzuri","false","",""
"1822.7000000476837","","","","","5","html-slider-response","1224","","","","5",""
"3984","flower","tamasha,bega,lobo,usiku","bega","v","5","html-keyboard-response","1225","f","tamasha","false","",""
"1445.5","","","","","5","html-slider-response","1226","","","","4",""
"5676","picture","silya,chaki,asin,kubwa","kubwa","n","5","html-keyboard-response","1227","n","kubwa","true","",""
"1597.5","","","","","5","html-slider-response","1228","","","","4",""
"3918","puppet","napulo,lamok,mazishi,godoro","mazishi","j","5","html-keyboard-response","1229","f","napulo","false","",""
"1582.3000000715256","","","","","5","html-slider-response","1230","","","","4",""
"2585","banana","kasamok,kazi,hagdan,twai","kazi","v","5","html-keyboard-response","1231","v","kazi","true","",""
"2092.399999976158","","","","","5","html-slider-response","1232","","","","4",""
"1590","book","kuhesa,mali,picha,mara","mali","v","5","html-keyboard-response","1233","v","mali","true","",""
"1787.3999999761581","","","","","5","html-slider-response","1234","","","","5",""
"3078","triangle","kihozi,kasadpan,bentaha,liog","kasadpan","v","5","html-keyboard-response","1235","v","kasadpan","true","",""
"1919.3999999761581","","","","","5","html-slider-response","1236","","","","2",""
"1872","poster","nchi,fedha,kasuko,madungog","madungog","n","5","html-keyboard-response","1237","n","madungog","true","",""
"1937.7000000476837","","","","","5","html-slider-response","1238","","","","2",""
"3756","box","kuacha,rafiki,adui,kitande","adui","j","5","html-keyboard-response","1239","v","rafiki","false","",""
"1449.5","","","","","5","html-slider-response","1240","","","","2",""
"1647","mosquito","martilyo,isda,taras,gutom","martilyo","f","5","html-keyboard-response","1241","f","martilyo","true","",""
"1934.7999999523163","","","","","5","html-slider-response","1242","","","","5",""
"3114","shelf","bungtod,kadaot,pamahaw,awit","pamahaw","j","5","html-keyboard-response","1243","f","bungtod","false","",""
"1643.6999999284744","","","","","5","html-slider-response","1244","","","","2",""
"2703","scissors","tanuri,duga,mtawa,suga","tanuri","f","5","html-keyboard-response","1245","n","suga","false","",""
"3350.899999976158","","","","","5","html-slider-response","1246","","","","4",""
"5184","hammer","mekno,kitovu,layag,napakyas","napakyas","n","5","html-keyboard-response","1247","n","napakyas","true","",""
"2285.3000000715256","","","","","5","html-slider-response","1248","","","","2",""
