"rt","en_word","options","swa_word","correct_answer","phase","trial_type","trial_index","input_answer","input_word","accuracy","certainty","amt_choices"
"2457","bonfire","mwezi,mfuko,goti,kusanya","goti","j","2","html-keyboard-response","106","j","goti","true","",""
"2691.8000000044703","","","","","2","html-slider-response","107","","","","2",""
"2644","flower","tamasha,lobo,bega,usiku","bega","j","2","html-keyboard-response","108","v","lobo","false","",""
"2983.6999999955297","","","","","2","html-slider-response","109","","","","2",""
"3438","column","pundok,ufagio,dila,pala","ufagio","v","2","html-keyboard-response","110","n","pala","false","",""
"2865.4000000059605","","","","","2","html-slider-response","111","","","","2",""
"4720","music","baiski,mraba,mageho,tumbo","baiski","f","2","html-keyboard-response","112","f","baiski","true","",""
"4065.10000000149","","","","","2","html-slider-response","113","","","","1",""
"3442","spider","bunyag,kamwe,mkboa,atop","kamwe","v","2","html-keyboard-response","114","j","mkboa","false","",""
"4223.89999999851","","","","","2","html-slider-response","115","","","","2",""
"3373","fork","baboy,paghago,gorisi,mgonjwa","mgonjwa","n","2","html-keyboard-response","116","v","paghago","false","",""
"2686.10000000149","","","","","2","html-slider-response","117","","","","1",""
"2613","mosquito","isda,taras,gutom,martilyo","martilyo","n","2","html-keyboard-response","118","n","martilyo","true","",""
"5155.5","","","","","2","html-slider-response","119","","","","3",""
"2243","banana","kasamok,hagdan,twai,kazi","kazi","n","2","html-keyboard-response","120","v","hagdan","false","",""
"2941.4000000059605","","","","","2","html-slider-response","121","","","","2",""
"4163","cup","dagat,matumai,shimoni,jeraha","matumai","v","2","html-keyboard-response","122","v","matumai","true","",""
"2585.60000000149","","","","","2","html-slider-response","123","","","","1",""
"3617","shop","samaki,nopya,kerida,ndezu","samaki","f","2","html-keyboard-response","124","f","samaki","true","",""
"3035","","","","","2","html-slider-response","125","","","","2",""
"2649","elephant","petye,pagduol,kito,suka","kito","j","2","html-keyboard-response","126","j","kito","true","",""
"2721.1999999955297","","","","","2","html-slider-response","127","","","","4",""
"4328","bucket","kiatu,baga,ijayo,init","kiatu","f","2","html-keyboard-response","128","f","kiatu","true","",""
"2273","","","","","2","html-slider-response","129","","","","2",""
"3268","book","mali,kuhesa,picha,mara","mali","f","2","html-keyboard-response","130","f","mali","true","",""
"2439","","","","","2","html-slider-response","131","","","","1",""
"3310","mirror","rangi,kanding,sulagma,furaha","sulagma","j","2","html-keyboard-response","132","j","sulagma","true","",""
"2390.10000000149","","","","","2","html-slider-response","133","","","","1",""
"3455","office","hazini,yatima,leso,kuna","leso","j","2","html-keyboard-response","134","v","yatima","false","",""
"2693.6999999955297","","","","","2","html-slider-response","135","","","","2",""
"4053","body","nyundu,tindashan,jibini,kununa","tindashan","v","2","html-keyboard-response","136","n","kununa","false","",""
"2215.8000000044703","","","","","2","html-slider-response","137","","","","2",""
"3887","perfume","katuyoan,bino,sungura,ndogo","katuyoan","f","2","html-keyboard-response","138","v","bino","false","",""
"2817.7000000029802","","","","","2","html-slider-response","139","","","","2",""
"5082","olive","bata,siagi,jiwe,welder","jiwe","j","2","html-keyboard-response","140","j","jiwe","true","",""
"2569.1999999955297","","","","","2","html-slider-response","141","","","","1",""
"4849","magazine","kiti,gundi,mchawi,bahandi","kiti","f","2","html-keyboard-response","142","f","kiti","true","",""
"2216.1999999955297","","","","","2","html-slider-response","143","","","","2",""
"3481","bread","kaili,dari,dizeli,bugas","dari","v","2","html-keyboard-response","144","v","dari","true","",""
"2163","","","","","2","html-slider-response","145","","","","2",""
"3121","cave","ganti,maisha,nyundo,kesho","kesho","n","2","html-keyboard-response","146","j","nyundo","false","",""
"5250.4000000059605","","","","","2","html-slider-response","147","","","","3",""
"4582","ladder","mashua,mwanga,kamba,pangalan","pangalan","n","2","html-keyboard-response","148","n","pangalan","true","",""
"2288","","","","","2","html-slider-response","149","","","","2",""
"4072","human","tinapay,bado,kikapu,punguza","tinapay","f","2","html-keyboard-response","150","f","tinapay","true","",""
"2512.89999999851","","","","","2","html-slider-response","151","","","","4",""
"3932","clock","kartasi,abang,osha,mbwa","mbwa","n","2","html-keyboard-response","152","n","mbwa","true","",""
"2577.2999999970198","","","","","2","html-slider-response","153","","","","2",""
"2577","shelf","bungtod,kadaot,pamahaw,awit","pamahaw","j","2","html-keyboard-response","154","n","awit","false","",""
"3066.2000000029802","","","","","2","html-slider-response","155","","","","3",""
"4393","salmon","sensilyo,mzungu,seri,baharia","sensilyo","f","2","html-keyboard-response","156","n","baharia","false","",""
"2288.5999999940395","","","","","2","html-slider-response","157","","","","1",""
"2419","coffin","kioo,barua,tubag,hulma","kioo","f","2","html-keyboard-response","158","f","kioo","true","",""
"2553","","","","","2","html-slider-response","159","","","","5",""
"6371","notebook","msitu,kila,mdudu,kemia","kemia","n","2","html-keyboard-response","160","v","kila","false","",""
"4690.39999999851","","","","","2","html-slider-response","161","","","","3",""
"4826","shoulder","kelele,ndaniya,guruwe,mkuu","mkuu","n","2","html-keyboard-response","162","f","kelele","false","",""
"2772.2000000029802","","","","","2","html-slider-response","163","","","","2",""
"3830","park","bunifu,tambok,pwani,ihalas","bunifu","f","2","html-keyboard-response","164","v","tambok","false","",""
"2017.1000000014901","","","","","2","html-slider-response","165","","","","2",""
"4474","number","shule,kengele,choori,mundamo","mundamo","n","2","html-keyboard-response","166","v","kengele","false","",""
"2584.0999999940395","","","","","2","html-slider-response","167","","","","2",""
"3024","apple","ukame,kisu,estante,edad","kisu","v","2","html-keyboard-response","168","v","kisu","true","",""
"3039.39999999851","","","","","2","html-slider-response","169","","","","5",""
"2792","letter","kifua,filimbi,chuma,uhuru","kifua","f","2","html-keyboard-response","170","f","kifua","true","",""
"3636.89999999851","","","","","2","html-slider-response","171","","","","3",""
"4419","eel","msumari,ishara,kunywa,kabuang","msumari","f","2","html-keyboard-response","172","j","kunywa","false","",""
"2486.8000000044703","","","","","2","html-slider-response","173","","","","1",""
"5546","cop","bustani,jikoni,bakus,mechezo","mechezo","n","2","html-keyboard-response","174","n","mechezo","true","",""
"2229.39999999851","","","","","2","html-slider-response","175","","","","1",""
"3814","wolf","kaburi,ndizi,mchuzi,lugha","lugha","n","2","html-keyboard-response","176","f","kaburi","false","",""
"2016.9000000059605","","","","","2","html-slider-response","177","","","","2",""
"5501","squirrel","mahugaw,ukweli,hofu,kichwa","hofu","j","2","html-keyboard-response","178","v","ukweli","false","",""
"2238","","","","","2","html-slider-response","179","","","","2",""
"3785","nose","gubat,sehemu,kopa,kidole","sehemu","v","2","html-keyboard-response","180","j","kopa","false","",""
"3413.4000000059605","","","","","2","html-slider-response","181","","","","3",""
"3609","sock","ndoora,kimysa,mamba,mtirka","mamba","j","2","html-keyboard-response","182","j","mamba","true","",""
"2664.2000000029802","","","","","2","html-slider-response","183","","","","5",""
"4890","bank","kudhibi,tualya,ofisi,silingan","silingan","n","2","html-keyboard-response","184","v","tualya","false","",""
"2108.3000000044703","","","","","2","html-slider-response","185","","","","2",""
"5827","donkey","bloke,lalake,elfu,rombus","elfu","j","2","html-keyboard-response","186","v","lalake","false","",""
"2470","","","","","2","html-slider-response","187","","","","2",""
"5450","poster","nchi,madungog,fedha,kasuko","madungog","v","2","html-keyboard-response","188","v","madungog","true","",""
"3291.0999999940395","","","","","2","html-slider-response","189","","","","3",""
"4379","puppet","mazishi,napulo,lamok,godoro","mazishi","f","2","html-keyboard-response","190","n","godoro","false","",""
"3437.1999999955297","","","","","2","html-slider-response","191","","","","3",""
"8091","hill","kushoto,matumbo,kukimba,sweta","matumbo","v","2","html-keyboard-response","192","f","kushoto","false","",""
"2757.2000000029802","","","","","2","html-slider-response","193","","","","2",""
"3982","tooth","kijiko,kabalaka,uadui,pahiyum","kabalaka","v","2","html-keyboard-response","194","n","pahiyum","false","",""
"3299.60000000149","","","","","2","html-slider-response","195","","","","1",""
"3321","woman","bandari,pagtabon,bituin,kovuli","pagtabon","v","2","html-keyboard-response","196","f","bandari","false","",""
"2798.39999999851","","","","","2","html-slider-response","197","","","","3",""
"2867","wheel","punda,tawo,bafuni,baadaye","bafuni","j","2","html-keyboard-response","198","f","punda","false","",""
"2056.3000000044703","","","","","2","html-slider-response","199","","","","2",""
"4639","mother","babaye,kahawa,mbuzi,jokofu","babaye","f","2","html-keyboard-response","200","j","mbuzi","false","",""
"2633.7999999970198","","","","","2","html-slider-response","201","","","","3",""
"3271","bed","kalipay,haraka,mapintas,starehe","mapintas","j","2","html-keyboard-response","202","j","mapintas","true","",""
"3583.7999999970198","","","","","2","html-slider-response","203","","","","3",""
"4364","key","miaka,goma,chombo,ahos","chombo","j","2","html-keyboard-response","204","j","chombo","true","",""
"2053.39999999851","","","","","2","html-slider-response","205","","","","2",""
"3361","page","wakala,ishiri,wimbo,skina","wimbo","j","2","html-keyboard-response","206","f","wakala","false","",""
"2150.7999999970198","","","","","2","html-slider-response","207","","","","1",""
"4453","pants","pintal,haki,chuki,hari","haki","v","2","html-keyboard-response","208","v","haki","true","",""
"2326.5","","","","","2","html-slider-response","209","","","","5",""
"3120","sun","basi,bendi,luha,uongo","basi","f","2","html-keyboard-response","210","f","basi","true","",""
"2846.6999999955297","","","","","2","html-slider-response","211","","","","4",""
"5866","finger","simu,sufuria,lima,moyo","moyo","n","2","html-keyboard-response","212","n","moyo","true","",""
"2456.39999999851","","","","","2","html-slider-response","213","","","","2",""
"3405","shoe","nyeusi,hatua,uyoga,kama","uyoga","j","2","html-keyboard-response","214","n","kama","false","",""
"2678.2000000029802","","","","","2","html-slider-response","215","","","","3",""
"8170","giraffe","daraja,jumatu,mahitabo,hangyo","mahitabo","j","2","html-keyboard-response","216","j","mahitabo","true","",""
"3561","","","","","2","html-slider-response","217","","","","2",""
"2806","dog","lubi,washia,bahari,kalamu","bahari","j","2","html-keyboard-response","218","j","bahari","true","",""
"2556.7000000029802","","","","","2","html-slider-response","219","","","","2",""
"5783","box","adui,kuacha,rafiki,kitande","adui","f","2","html-keyboard-response","220","n","kitande","false","",""
"1951.8999999985099","","","","","2","html-slider-response","221","","","","2",""
"5542","scissors","duga,mtawa,suga,tanuri","tanuri","n","2","html-keyboard-response","222","v","mtawa","false","",""
"2433.2999999970198","","","","","2","html-slider-response","223","","","","2",""
"2632","cat","neyemba,baki,paghukom,akili","paghukom","j","2","html-keyboard-response","224","v","baki","false","",""
"3255.2000000029802","","","","","2","html-slider-response","225","","","","1",""
"2928","basket","kumbuka,utepe,kumba,hasira","kumba","j","2","html-keyboard-response","226","j","kumba","true","",""
"2540.8000000044703","","","","","2","html-slider-response","227","","","","2",""
"3538","snake","jansa,karon,mvringo,pagtukod","pagtukod","n","2","html-keyboard-response","228","f","jansa","false","",""
"2031.7000000029802","","","","","2","html-slider-response","229","","","","2",""
"4319","gift","pagtawag,baba,nyange,baso","pagtawag","f","2","html-keyboard-response","230","j","nyange","false","",""
"3273.7000000029802","","","","","2","html-slider-response","231","","","","3",""
"2748","train","itik,sayari,dakika,mungu","sayari","v","2","html-keyboard-response","232","v","sayari","true","",""
"2526.2999999970198","","","","","2","html-slider-response","233","","","","1",""
"3105","pudding","abug,aibu,mpishi,iring","aibu","v","2","html-keyboard-response","234","j","mpishi","false","",""
"2657.7000000029802","","","","","2","html-slider-response","235","","","","1",""
"4708","tomato","mvua,chupi,chupa,takatak","mvua","f","2","html-keyboard-response","236","j","chupa","false","",""
"2729.3000000044703","","","","","2","html-slider-response","237","","","","2",""
"4943","stone","ulimwengu,wingi,mkasi,asili","wingi","v","2","html-keyboard-response","238","n","asili","false","",""
"4127.79999999702","","","","","2","html-slider-response","239","","","","3",""
"3375","hammer","mekno,kitovu,napakyas,layag","napakyas","j","2","html-keyboard-response","240","n","layag","false","",""
"3110","","","","","2","html-slider-response","241","","","","1",""
"2720","knee","duka,mvuke,kubale,bili","duka","f","2","html-keyboard-response","242","n","bili","false","",""
"2843.3000000044703","","","","","2","html-slider-response","243","","","","1",""
"3808","ceiling","maua,kugita,kawaida,rayna","maua","f","2","html-keyboard-response","244","n","rayna","false","",""
"2023.4000000059605","","","","","2","html-slider-response","245","","","","1",""
"4462","spoon","betri,pagsulod,nzuri,ngazi","pagsulod","v","2","html-keyboard-response","246","v","pagsulod","true","",""
"1981.5","","","","","2","html-slider-response","247","","","","2",""
"2942","marker","mapafu,salita,maji,atay","maji","j","2","html-keyboard-response","248","j","maji","true","",""
"2253.10000000149","","","","","2","html-slider-response","249","","","","4",""
"3276","candle","gabi,geza,farasi,kupanda","geza","v","2","html-keyboard-response","250","v","geza","true","",""
"1940.5","","","","","2","html-slider-response","251","","","","2",""
"6476","tissue","ugomvi,lamigas,kisiwa,katika","ugomvi","f","2","html-keyboard-response","252","f","ugomvi","true","",""
"4174.79999999702","","","","","2","html-slider-response","253","","","","1",""
"4465","bridge","daima,ngono,panya,sahani","sahani","n","2","html-keyboard-response","254","n","sahani","true","",""
"4454.69999999553","","","","","2","html-slider-response","255","","","","3",""
"4101","berry","abogado,kofia,nogozi,kinywa","kofia","v","2","html-keyboard-response","256","v","kofia","true","",""
"2151.5","","","","","2","html-slider-response","257","","","","2",""
"3234","triangle","kasadpan,kihozi,bentaha,liog","kasadpan","f","2","html-keyboard-response","258","n","liog","false","",""
"2778.1999999955297","","","","","2","html-slider-response","259","","","","1",""
"3638","door","tena,soko,nyota,surali","surali","n","2","html-keyboard-response","260","f","tena","false","",""
"2300.4000000059605","","","","","2","html-slider-response","261","","","","2",""
"5925","fish","bala,buli,baho,imani","buli","v","2","html-keyboard-response","262","v","buli","true","",""
"3675.1999999955297","","","","","2","html-slider-response","263","","","","2",""
"8413","curtain","lisud,bulwawan,mchanga,chubani","mchanga","j","2","html-keyboard-response","264","v","bulwawan","false","",""
"2689","","","","","2","html-slider-response","265","","","","1",""
"3194","flag","trekta,ndege,mkate,kawa","trekta","f","2","html-keyboard-response","266","f","trekta","true","",""
"3053.7999999970198","","","","","2","html-slider-response","267","","","","1",""
"4859","boat","hamsi,agalon,pombe,kitanda","agalon","v","2","html-keyboard-response","268","j","pombe","false","",""
"2052.7000000029802","","","","","2","html-slider-response","269","","","","1",""
"3857","rose","singizi,paghalad,mwanake,amani","paghalad","v","2","html-keyboard-response","270","n","amani","false","",""
"3436.3000000044703","","","","","2","html-slider-response","271","","","","3",""
"2257","lamp","afya,daub,bilaska,mbolea","afya","f","2","html-keyboard-response","272","f","afya","true","",""
"3409.39999999851","","","","","2","html-slider-response","273","","","","3",""
"3047","cigar","ndugu,kuta,mlango,adhabu","adhabu","n","2","html-keyboard-response","274","v","kuta","false","",""
"2149.7000000029802","","","","","2","html-slider-response","275","","","","1",""
"4413","list","alizeti,kuzama,kaso,wingu","wingu","n","2","html-keyboard-response","276","j","kaso","false","",""
"2662.5","","","","","2","html-slider-response","277","","","","3",""
"4114","sheet","juuya,bililhon,watu,kamantis","bililhon","v","2","html-keyboard-response","278","f","juuya","false","",""
"2602.6999999955297","","","","","2","html-slider-response","279","","","","2",""
"3539","picture","silya,chaki,kubwa,asin","kubwa","j","2","html-keyboard-response","280","n","asin","false","",""
"2614.2000000029802","","","","","2","html-slider-response","281","","","","1",""
"4929","towel","tembo,pagpalit,funzi,pito","pagpalit","v","2","html-keyboard-response","282","f","tembo","false","",""
"4534.79999999702","","","","","2","html-slider-response","283","","","","3",""
"7174","window","nanga,kujenga,umaga,kweli","kweli","n","2","html-keyboard-response","284","n","kweli","true","",""
"2486","","","","","2","html-slider-response","285","","","","1",""
"4898","box","adui,kuacha,rafiki,kitande","adui","f","3","html-keyboard-response","293","j","rafiki","false","","4"
"2480.60000000149","","","","","3","html-slider-response","294","","","","1",""
"5326","","","","","3","html-keyboard-response","295","","","","",""
"5017","pants","pintal,chuki,hari,haki","haki","n","3","html-keyboard-response","296","n","haki","true","","4"
"2583.5","","","","","3","html-slider-response","297","","","","5",""
"1735","","","","","3","html-keyboard-response","298","","","","",""
"4010","cup","matumai,dagat,shimoni,jeraha","matumai","f","3","html-keyboard-response","299","j","shimoni","false","","4"
"2493.6999999955297","","","","","3","html-slider-response","300","","","","1",""
"5703","","","","","3","html-keyboard-response","301","","","","",""
"3067","triangle","kihozi,bentaha,liog,kasadpan","kasadpan","n","3","html-keyboard-response","302","j","liog","false","","4"
"1978.3999999985099","","","","","3","html-slider-response","303","","","","2",""
"5574","","","","","3","html-keyboard-response","304","","","","",""
"3979","curtain","mchanga,lisud,bulwawan,chubani","mchanga","f","3","html-keyboard-response","305","f","mchanga","true","","4"
"2950.39999999851","","","","","3","html-slider-response","306","","","","1",""
"3661","","","","","3","html-keyboard-response","307","","","","",""
"2811","clock","mbwa,kartasi,abang,osha","mbwa","f","3","html-keyboard-response","308","n","osha","false","","4"
"6023.30000000447","","","","","3","html-slider-response","309","","","","3",""
"3462","","","","","3","html-keyboard-response","310","","","","",""
"4415","mirror","rangi,kanding,sulagma,furaha","sulagma","j","3","html-keyboard-response","311","f","rangi","false","","4"
"2630","","","","","3","html-slider-response","312","","","","1",""
"6027","","","","","3","html-keyboard-response","313","","","","",""
"3054","coffin","barua,kioo,tubag,hulma","kioo","v","3","html-keyboard-response","314","v","kioo","true","","1"
"2374.2999999970198","","","","","3","html-slider-response","315","","","","5",""
"3065","","","","","3","html-keyboard-response","316","","","","",""
"2821","magazine","kiti,gundi,mchawi,bahandi","kiti","f","3","html-keyboard-response","317","f","kiti","true","","4"
"2136.5","","","","","3","html-slider-response","318","","","","1",""
"4021","","","","","3","html-keyboard-response","319","","","","",""
"3620","column","pundok,dila,pala,ufagio","ufagio","n","3","html-keyboard-response","320","n","ufagio","true","","1"
"2482.1999999955297","","","","","3","html-slider-response","321","","","","1",""
"3691","","","","","3","html-keyboard-response","322","","","","",""
"5100","number","shule,kengele,choori,mundamo","mundamo","n","3","html-keyboard-response","323","n","mundamo","true","","4"
"3071.10000000149","","","","","3","html-slider-response","324","","","","2",""
"4954","","","","","3","html-keyboard-response","325","","","","",""
"2690","rose","paghalad,singizi,mwanake,amani","paghalad","f","3","html-keyboard-response","326","n","amani","false","","4"
"2923.3000000044703","","","","","3","html-slider-response","327","","","","3",""
"3431","","","","","3","html-keyboard-response","328","","","","",""
"3912","eel","ishara,kunywa,kabuang,msumari","msumari","n","3","html-keyboard-response","329","v","kunywa","false","","4"
"2259.2000000029802","","","","","3","html-slider-response","330","","","","1",""
"2864","","","","","3","html-keyboard-response","331","","","","",""
"3831","gift","baba,pagtawag,nyange,baso","pagtawag","v","3","html-keyboard-response","332","n","baso","false","","4"
"3811","","","","","3","html-slider-response","333","","","","3",""
"3571","","","","","3","html-keyboard-response","334","","","","",""
"2526","apple","ukame,estante,edad,kisu","kisu","n","3","html-keyboard-response","335","n","kisu","true","","1"
"2587.2999999970198","","","","","3","html-slider-response","336","","","","4",""
"3511","","","","","3","html-keyboard-response","337","","","","",""
"3380","wheel","punda,bafuni,tawo,baadaye","bafuni","v","3","html-keyboard-response","338","v","bafuni","true","","1"
"7642.20000000298","","","","","3","html-slider-response","339","","","","3",""
"2232","","","","","3","html-keyboard-response","340","","","","",""
"5086","knee","duka,mvuke,kubale,bili","duka","f","3","html-keyboard-response","341","v","mvuke","false","","4"
"2272.7999999970198","","","","","3","html-slider-response","342","","","","2",""
"2430","","","","","3","html-keyboard-response","343","","","","",""
"3537","basket","kumbuka,utepe,hasira,kumba","kumba","n","3","html-keyboard-response","344","n","kumba","true","","1"
"3870.39999999851","","","","","3","html-slider-response","345","","","","3",""
"3729","","","","","3","html-keyboard-response","346","","","","",""
"4564","park","tambok,pwani,bunifu,ihalas","bunifu","j","3","html-keyboard-response","347","v","pwani","false","","4"
"2192.3000000044703","","","","","3","html-slider-response","348","","","","2",""
"2631","","","","","3","html-keyboard-response","349","","","","",""
"2755","finger","simu,moyo,sufuria,lima","moyo","v","3","html-keyboard-response","350","v","moyo","true","","4"
"2113.6999999955297","","","","","3","html-slider-response","351","","","","2",""
"2946","","","","","3","html-keyboard-response","352","","","","",""
"3164","boat","agalon,hamsi,pombe,kitanda","agalon","f","3","html-keyboard-response","353","n","kitanda","false","","4"
"2047.2999999970198","","","","","3","html-slider-response","354","","","","2",""
"2420","","","","","3","html-keyboard-response","355","","","","",""
"3552","hill","kushoto,matumbo,kukimba,sweta","matumbo","v","3","html-keyboard-response","356","v","matumbo","true","","4"
"2647.7999999970198","","","","","3","html-slider-response","357","","","","2",""
"5450","","","","","3","html-keyboard-response","358","","","","",""
"3951","train","itik,dakika,sayari,mungu","sayari","j","3","html-keyboard-response","359","f","itik","false","","4"
"2303.2000000029802","","","","","3","html-slider-response","360","","","","1",""
"5779","","","","","3","html-keyboard-response","361","","","","",""
"3812","wolf","kaburi,lugha,ndizi,mchuzi","lugha","v","3","html-keyboard-response","362","f","kaburi","false","","4"
"3089.7000000029802","","","","","3","html-slider-response","363","","","","3",""
"2499","","","","","3","html-keyboard-response","364","","","","",""
"3406","snake","jansa,karon,mvringo,pagtukod","pagtukod","n","3","html-keyboard-response","365","f","jansa","false","","4"
"3177.4000000059605","","","","","3","html-slider-response","366","","","","2",""
"3327","","","","","3","html-keyboard-response","367","","","","",""
"3693","tooth","kijiko,kabalaka,uadui,pahiyum","kabalaka","v","3","html-keyboard-response","368","v","kabalaka","true","","4"
"2674.6999999955297","","","","","3","html-slider-response","369","","","","2",""
"2613","","","","","3","html-keyboard-response","370","","","","",""
"3834","notebook","kemia,msitu,kila,mdudu","kemia","f","3","html-keyboard-response","371","f","kemia","true","","4"
"2018.8000000044703","","","","","3","html-slider-response","372","","","","2",""
"2347","","","","","3","html-keyboard-response","373","","","","",""
"3868","flag","trekta,ndege,mkate,kawa","trekta","f","3","html-keyboard-response","374","v","ndege","false","","4"
"2037.7000000029802","","","","","3","html-slider-response","375","","","","1",""
"4417","","","","","3","html-keyboard-response","376","","","","",""
"3340","squirrel","mahugaw,ukweli,hofu,kichwa","hofu","j","3","html-keyboard-response","377","v","ukweli","false","","4"
"2724.60000000149","","","","","3","html-slider-response","378","","","","2",""
"5751","","","","","3","html-keyboard-response","379","","","","",""
"4084","door","surali,tena,soko,nyota","surali","f","3","html-keyboard-response","380","j","soko","false","","4"
"2890.7999999970198","","","","","3","html-slider-response","381","","","","2",""
"1645","","","","","3","html-keyboard-response","382","","","","",""
"4232","salmon","sensilyo,mzungu,seri,baharia","sensilyo","f","3","html-keyboard-response","383","f","sensilyo","true","","4"
"1884.8000000044703","","","","","3","html-slider-response","384","","","","2",""
"2402","","","","","3","html-keyboard-response","385","","","","",""
"2901","shoulder","kelele,mkuu,ndaniya,guruwe","mkuu","v","3","html-keyboard-response","386","f","kelele","false","","4"
"2628.60000000149","","","","","3","html-slider-response","387","","","","2",""
"2607","","","","","3","html-keyboard-response","388","","","","",""
"2563","lamp","daub,bilaska,afya,mbolea","afya","j","3","html-keyboard-response","389","j","afya","true","","4"
"1969.6999999955297","","","","","3","html-slider-response","390","","","","2",""
"2672","","","","","3","html-keyboard-response","391","","","","",""
"4298","shelf","bungtod,kadaot,awit,pamahaw","pamahaw","n","3","html-keyboard-response","392","n","pamahaw","true","","1"
"4509.29999999702","","","","","3","html-slider-response","393","","","","3",""
"3911","","","","","3","html-keyboard-response","394","","","","",""
"5115","human","bado,kikapu,punguza,tinapay","tinapay","n","3","html-keyboard-response","395","n","tinapay","true","","4"
"2231.10000000149","","","","","3","html-slider-response","396","","","","4",""
"3034","","","","","3","html-keyboard-response","397","","","","",""
"3371","towel","tembo,funzi,pito,pagpalit","pagpalit","n","3","html-keyboard-response","398","j","pito","false","","4"
"3303.39999999851","","","","","3","html-slider-response","399","","","","2",""
"2380","","","","","3","html-keyboard-response","400","","","","",""
"3038","cat","paghukom,neyemba,baki,akili","paghukom","f","3","html-keyboard-response","401","j","baki","false","","4"
"2684.39999999851","","","","","3","html-slider-response","402","","","","2",""
"2773","","","","","3","html-keyboard-response","403","","","","",""
"4417","spider","bunyag,kamwe,mkboa,atop","kamwe","v","3","html-keyboard-response","404","j","mkboa","false","","4"
"2899.5","","","","","3","html-slider-response","405","","","","2",""
"3181","","","","","3","html-keyboard-response","406","","","","",""
"3700","window","nanga,kujenga,kweli,umaga","kweli","j","3","html-keyboard-response","407","v","kujenga","false","","4"
"2223.2000000029802","","","","","3","html-slider-response","408","","","","2",""
"4058","","","","","3","html-keyboard-response","409","","","","",""
"3025","woman","bandari,bituin,kovuli,pagtabon","pagtabon","n","3","html-keyboard-response","410","n","pagtabon","true","","1"
"3196.7999999970198","","","","","3","html-slider-response","411","","","","3",""
"2564","","","","","3","html-keyboard-response","412","","","","",""
"3659","giraffe","daraja,jumatu,hangyo,mahitabo","mahitabo","n","3","html-keyboard-response","413","n","mahitabo","true","","4"
"3385.60000000149","","","","","3","html-slider-response","414","","","","2",""
"2504","","","","","3","html-keyboard-response","415","","","","",""
"3860","elephant","petye,pagduol,suka,kito","kito","n","3","html-keyboard-response","416","n","kito","true","","4"
"3129.9000000059605","","","","","3","html-slider-response","417","","","","2",""
"1538","","","","","3","html-keyboard-response","418","","","","",""
"3028","cave","ganti,maisha,nyundo,kesho","kesho","n","3","html-keyboard-response","419","j","nyundo","false","","4"
"2050.3000000044703","","","","","3","html-slider-response","420","","","","2",""
"2570","","","","","3","html-keyboard-response","421","","","","",""
"4658","bread","dari,kaili,dizeli,bugas","dari","f","3","html-keyboard-response","422","n","bugas","false","","4"
"2944.5999999940395","","","","","3","html-slider-response","423","","","","1",""
"4041","","","","","3","html-keyboard-response","424","","","","",""
"3779","stone","ulimwengu,wingi,mkasi,asili","wingi","v","3","html-keyboard-response","425","f","ulimwengu","false","","4"
"3291.89999999851","","","","","3","html-slider-response","426","","","","1",""
"2063","","","","","3","html-keyboard-response","427","","","","",""
"3253","donkey","elfu,bloke,lalake,rombus","elfu","f","3","html-keyboard-response","428","v","bloke","false","","4"
"2599.10000000149","","","","","3","html-slider-response","429","","","","2",""
"2067","","","","","3","html-keyboard-response","430","","","","",""
"4524","bridge","daima,sahani,ngono,panya","sahani","v","3","html-keyboard-response","431","f","daima","false","","4"
"1981.8999999985099","","","","","3","html-slider-response","432","","","","2",""
"2466","","","","","3","html-keyboard-response","433","","","","",""
"3592","bonfire","mwezi,mfuko,goti,kusanya","goti","j","3","html-keyboard-response","434","n","kusanya","false","","4"
"2703.2000000029802","","","","","3","html-slider-response","435","","","","2",""
"2896","","","","","3","html-keyboard-response","436","","","","",""
"2829","book","kuhesa,mali,picha,mara","mali","v","3","html-keyboard-response","437","v","mali","true","","4"
"3658.39999999851","","","","","3","html-slider-response","438","","","","1",""
"2598","","","","","3","html-keyboard-response","439","","","","",""
"4679","fish","buli,bala,baho,imani","buli","f","3","html-keyboard-response","440","j","baho","false","","4"
"2406.7000000029802","","","","","3","html-slider-response","441","","","","2",""
"2099","","","","","3","html-keyboard-response","442","","","","",""
"3492","spoon","betri,pagsulod,nzuri,ngazi","pagsulod","v","3","html-keyboard-response","443","v","pagsulod","true","","4"
"3920.7000000029802","","","","","3","html-slider-response","444","","","","1",""
"2088","","","","","3","html-keyboard-response","445","","","","",""
"3341","scissors","duga,tanuri,mtawa,suga","tanuri","v","3","html-keyboard-response","446","j","mtawa","false","","4"
"2094.89999999851","","","","","3","html-slider-response","447","","","","2",""
"2443","","","","","3","html-keyboard-response","448","","","","",""
"3032","page","wakala,ishiri,wimbo,skina","wimbo","j","3","html-keyboard-response","449","f","wakala","false","","4"
"2790.7999999970198","","","","","3","html-slider-response","450","","","","1",""
"2597","","","","","3","html-keyboard-response","451","","","","",""
"3402","nose","gubat,kopa,sehemu,kidole","sehemu","j","3","html-keyboard-response","452","j","sehemu","true","","1"
"3598.3000000044703","","","","","3","html-slider-response","453","","","","3",""
"2403","","","","","3","html-keyboard-response","454","","","","",""
"3088","ceiling","kugita,maua,kawaida,rayna","maua","v","3","html-keyboard-response","455","n","rayna","false","","4"
"2341.2999999970198","","","","","3","html-slider-response","456","","","","2",""
"1995","","","","","3","html-keyboard-response","457","","","","",""
"3865","bucket","kiatu,baga,ijayo,init","kiatu","f","3","html-keyboard-response","458","j","ijayo","false","","4"
"2157.1999999955297","","","","","3","html-slider-response","459","","","","1",""
"2269","","","","","3","html-keyboard-response","460","","","","",""
"2576","berry","kofia,abogado,nogozi,kinywa","kofia","f","3","html-keyboard-response","461","f","kofia","true","","1"
"3470.6999999955297","","","","","3","html-slider-response","462","","","","3",""
"1276","","","","","3","html-keyboard-response","463","","","","",""
"3481","mother","babaye,kahawa,mbuzi,jokofu","babaye","f","3","html-keyboard-response","464","f","babaye","true","","1"
"3108.8000000044703","","","","","3","html-slider-response","465","","","","3",""
"4361","","","","","3","html-keyboard-response","466","","","","",""
"2298","mosquito","isda,taras,martilyo,gutom","martilyo","j","3","html-keyboard-response","467","j","martilyo","true","","4"
"3555.10000000149","","","","","3","html-slider-response","468","","","","3",""
"2478","","","","","3","html-keyboard-response","469","","","","",""
"2812","perfume","bino,sungura,ndogo,katuyoan","katuyoan","n","3","html-keyboard-response","470","f","bino","false","","4"
"2832","","","","","3","html-slider-response","471","","","","3",""
"2084","","","","","3","html-keyboard-response","472","","","","",""
"3021","sheet","bililhon,juuya,watu,kamantis","bililhon","f","3","html-keyboard-response","473","v","juuya","false","","4"
"2105.3000000044703","","","","","3","html-slider-response","474","","","","2",""
"2533","","","","","3","html-keyboard-response","475","","","","",""
"3731","puppet","napulo,mazishi,lamok,godoro","mazishi","v","3","html-keyboard-response","476","v","mazishi","true","","1"
"4939.5","","","","","3","html-slider-response","477","","","","3",""
"3010","","","","","3","html-keyboard-response","478","","","","",""
"3545","poster","nchi,fedha,kasuko,madungog","madungog","n","3","html-keyboard-response","479","f","nchi","false","","4"
"2244.1999999955297","","","","","3","html-slider-response","480","","","","2",""
"2108","","","","","3","html-keyboard-response","481","","","","",""
"3743","music","mraba,baiski,mageho,tumbo","baiski","v","3","html-keyboard-response","482","n","tumbo","false","","4"
"3052.6999999955297","","","","","3","html-slider-response","483","","","","2",""
"2134","","","","","3","html-keyboard-response","484","","","","",""
"3001","key","miaka,chombo,goma,ahos","chombo","v","3","html-keyboard-response","485","j","goma","false","","4"
"4777.5","","","","","3","html-slider-response","486","","","","3",""
"2378","","","","","3","html-keyboard-response","487","","","","",""
"3114","sock","mamba,ndoora,kimysa,mtirka","mamba","f","3","html-keyboard-response","488","f","mamba","true","","4"
"2506.39999999851","","","","","3","html-slider-response","489","","","","5",""
"1540","","","","","3","html-keyboard-response","490","","","","",""
"5070","marker","mapafu,salita,maji,atay","maji","j","3","html-keyboard-response","491","f","mapafu","false","","4"
"3469","","","","","3","html-slider-response","492","","","","3",""
"1605","","","","","3","html-keyboard-response","493","","","","",""
"2673","office","hazini,yatima,kuna,leso","leso","n","3","html-keyboard-response","494","n","leso","true","","4"
"2768.2999999970198","","","","","3","html-slider-response","495","","","","1",""
"2212","","","","","3","html-keyboard-response","496","","","","",""
"4187","shoe","nyeusi,hatua,uyoga,kama","uyoga","j","3","html-keyboard-response","497","n","kama","false","","4"
"2322.89999999851","","","","","3","html-slider-response","498","","","","4",""
"2215","","","","","3","html-keyboard-response","499","","","","",""
"3217","cop","bustani,jikoni,bakus,mechezo","mechezo","n","3","html-keyboard-response","500","n","mechezo","true","","4"
"2843.8000000044703","","","","","3","html-slider-response","501","","","","2",""
"1856","","","","","3","html-keyboard-response","502","","","","",""
"4825","bank","silingan,kudhibi,tualya,ofisi","silingan","f","3","html-keyboard-response","503","f","silingan","true","","4"
"2466.60000000149","","","","","3","html-slider-response","504","","","","1",""
"2210","","","","","3","html-keyboard-response","505","","","","",""
"2786","letter","filimbi,kifua,chuma,uhuru","kifua","v","3","html-keyboard-response","506","v","kifua","true","","1"
"4458.10000000149","","","","","3","html-slider-response","507","","","","4",""
"1555","","","","","3","html-keyboard-response","508","","","","",""
"2292","dog","bahari,lubi,washia,kalamu","bahari","f","3","html-keyboard-response","509","f","bahari","true","","1"
"2798.60000000149","","","","","3","html-slider-response","510","","","","4",""
"2184","","","","","3","html-keyboard-response","511","","","","",""
"3417","shop","samaki,nopya,kerida,ndezu","samaki","f","3","html-keyboard-response","512","v","nopya","false","","4"
"2111.7000000029802","","","","","3","html-slider-response","513","","","","2",""
"3759","","","","","3","html-keyboard-response","514","","","","",""
"3020","flower","tamasha,bega,lobo,usiku","bega","v","3","html-keyboard-response","515","f","tamasha","false","","4"
"2109.2000000029802","","","","","3","html-slider-response","516","","","","2",""
"1785","","","","","3","html-keyboard-response","517","","","","",""
"2982","cigar","adhabu,ndugu,kuta,mlango","adhabu","f","3","html-keyboard-response","518","f","adhabu","true","","1"
"2508.39999999851","","","","","3","html-slider-response","519","","","","4",""
"1562","","","","","3","html-keyboard-response","520","","","","",""
"3530","hammer","mekno,kitovu,layag,napakyas","napakyas","n","3","html-keyboard-response","521","v","kitovu","false","","4"
"2296.6999999955297","","","","","3","html-slider-response","522","","","","2",""
"1438","","","","","3","html-keyboard-response","523","","","","",""
"3459","fork","mgonjwa,baboy,paghago,gorisi","mgonjwa","f","3","html-keyboard-response","524","j","paghago","false","","4"
"2837.5","","","","","3","html-slider-response","525","","","","4",""
"2877","","","","","3","html-keyboard-response","526","","","","",""
"3295","sun","bendi,luha,basi,uongo","basi","j","3","html-keyboard-response","527","j","basi","true","","1"
"2386.7999999970198","","","","","3","html-slider-response","528","","","","4",""
"2754","","","","","3","html-keyboard-response","529","","","","",""
"3432","ladder","mashua,mwanga,kamba,pangalan","pangalan","n","3","html-keyboard-response","530","v","mwanga","false","","4"
"2430.0999999940395","","","","","3","html-slider-response","531","","","","2",""
"2501","","","","","3","html-keyboard-response","532","","","","",""
"2929","banana","kasamok,hagdan,kazi,twai","kazi","j","3","html-keyboard-response","533","j","kazi","true","","1"
"2864","","","","","3","html-slider-response","534","","","","4",""
"1785","","","","","3","html-keyboard-response","535","","","","",""
"2620","pudding","abug,aibu,mpishi,iring","aibu","v","3","html-keyboard-response","536","j","mpishi","false","","4"
"2768.5","","","","","3","html-slider-response","537","","","","3",""
"2384","","","","","3","html-keyboard-response","538","","","","",""
"3609","body","nyundu,jibini,kununa,tindashan","tindashan","n","3","html-keyboard-response","539","j","kununa","false","","4"
"2057.1999999955297","","","","","3","html-slider-response","540","","","","2",""
"2671","","","","","3","html-keyboard-response","541","","","","",""
"2670","bed","kalipay,haraka,starehe,mapintas","mapintas","n","3","html-keyboard-response","542","n","mapintas","true","","4"
"2555.5","","","","","3","html-slider-response","543","","","","4",""
"1919","","","","","3","html-keyboard-response","544","","","","",""
"2714","tissue","lamigas,ugomvi,kisiwa,katika","ugomvi","v","3","html-keyboard-response","545","n","katika","false","","4"
"2049.3000000044703","","","","","3","html-slider-response","546","","","","2",""
"5781","","","","","3","html-keyboard-response","547","","","","",""
"2911","candle","gabi,farasi,geza,kupanda","geza","j","3","html-keyboard-response","548","n","kupanda","false","","4"
"3054","","","","","3","html-slider-response","549","","","","2",""
"1946","","","","","3","html-keyboard-response","550","","","","",""
"3129","tomato","chupi,chupa,takatak,mvua","mvua","n","3","html-keyboard-response","551","n","mvua","true","","1"
"2807.60000000149","","","","","3","html-slider-response","552","","","","4",""
"1919","","","","","3","html-keyboard-response","553","","","","",""
"1832","list","alizeti,kuzama,wingu,kaso","wingu","j","3","html-keyboard-response","554","v","kuzama","false","","4"
"1929.6000000014901","","","","","3","html-slider-response","555","","","","2",""
"3819","","","","","3","html-keyboard-response","556","","","","",""
"3411","olive","bata,siagi,welder,jiwe","jiwe","n","3","html-keyboard-response","557","f","bata","false","","4"
"2613.60000000149","","","","","3","html-slider-response","558","","","","3",""
"2020","","","","","3","html-keyboard-response","559","","","","",""
"4053","picture","silya,kubwa,chaki,asin","kubwa","v","3","html-keyboard-response","560","v","kubwa","true","","1"
"2995.5999999940395","","","","","3","html-slider-response","561","","","","4",""
"2056","","","","","3","html-keyboard-response","562","","","","",""
"4346","page","wakala,wimbo,ishiri,skina","wimbo","v","4","html-keyboard-response","888","f","wakala","false","",""
"3317.1999999955297","","","","","4","html-slider-response","889","","","","1",""
"2309","sheet","juuya,watu,bililhon,kamantis","bililhon","j","4","html-keyboard-response","890","v","watu","false","",""
"2406.39999999851","","","","","4","html-slider-response","891","","","","1",""
"5515","ladder","pangalan,mashua,mwanga,kamba","pangalan","f","4","html-keyboard-response","892","n","kamba","false","",""
"3563.60000000149","","","","","4","html-slider-response","893","","","","1",""
"2985","door","tena,soko,surali,nyota","surali","j","4","html-keyboard-response","894","f","tena","false","",""
"2568.10000000149","","","","","4","html-slider-response","895","","","","1",""
"2996","spider","kamwe,bunyag,mkboa,atop","kamwe","f","4","html-keyboard-response","896","v","bunyag","false","",""
"3159.0999999940395","","","","","4","html-slider-response","897","","","","2",""
"4430","picture","silya,chaki,kubwa,asin","kubwa","j","4","html-keyboard-response","898","n","asin","false","",""
"2528.39999999851","","","","","4","html-slider-response","899","","","","1",""
"2953","boat","hamsi,pombe,kitanda,agalon","agalon","n","4","html-keyboard-response","900","n","agalon","true","",""
"1952.6999999955297","","","","","4","html-slider-response","901","","","","2",""
"2406","donkey","elfu,bloke,lalake,rombus","elfu","f","4","html-keyboard-response","902","f","elfu","true","",""
"2324","","","","","4","html-slider-response","903","","","","4",""
"5817","book","mali,kuhesa,picha,mara","mali","f","4","html-keyboard-response","904","n","mara","false","",""
"2446.0999999940395","","","","","4","html-slider-response","905","","","","1",""
"2044","cup","dagat,matumai,shimoni,jeraha","matumai","v","4","html-keyboard-response","906","j","shimoni","false","",""
"5081.30000000447","","","","","4","html-slider-response","907","","","","1",""
"5163","sun","bendi,basi,luha,uongo","basi","v","4","html-keyboard-response","908","v","basi","true","",""
"6568","","","","","4","html-slider-response","909","","","","3",""
"2666","pudding","aibu,abug,mpishi,iring","aibu","f","4","html-keyboard-response","910","f","aibu","true","",""
"2677.1999999955297","","","","","4","html-slider-response","911","","","","4",""
"3053","human","bado,kikapu,punguza,tinapay","tinapay","n","4","html-keyboard-response","912","n","tinapay","true","",""
"2116.10000000149","","","","","4","html-slider-response","913","","","","4",""
"3384","squirrel","mahugaw,ukweli,kichwa,hofu","hofu","n","4","html-keyboard-response","914","j","kichwa","false","",""
"2359.39999999851","","","","","4","html-slider-response","915","","","","1",""
"1920","park","tambok,pwani,bunifu,ihalas","bunifu","j","4","html-keyboard-response","916","v","pwani","false","",""
"2396.60000000149","","","","","4","html-slider-response","917","","","","1",""
"2427","poster","nchi,madungog,fedha,kasuko","madungog","v","4","html-keyboard-response","918","v","madungog","true","",""
"1897.1000000014901","","","","","4","html-slider-response","919","","","","2",""
"2271","wolf","kaburi,lugha,ndizi,mchuzi","lugha","v","4","html-keyboard-response","920","v","lugha","true","",""
"3150.7000000029802","","","","","4","html-slider-response","921","","","","5",""
"5308","cat","neyemba,paghukom,baki,akili","paghukom","v","4","html-keyboard-response","922","v","paghukom","true","",""
"2057.60000000149","","","","","4","html-slider-response","923","","","","1",""
"3423","fish","bala,baho,buli,imani","buli","j","4","html-keyboard-response","924","v","baho","false","",""
"3034.6999999955297","","","","","4","html-slider-response","925","","","","2",""
"2856","tooth","kabalaka,kijiko,uadui,pahiyum","kabalaka","f","4","html-keyboard-response","926","f","kabalaka","true","",""
"2988.5999999940395","","","","","4","html-slider-response","927","","","","3",""
"4076","cave","ganti,maisha,nyundo,kesho","kesho","n","4","html-keyboard-response","928","j","nyundo","false","",""
"3153.2999999970198","","","","","4","html-slider-response","929","","","","1",""
"7608","lamp","daub,bilaska,afya,mbolea","afya","j","4","html-keyboard-response","930","n","mbolea","false","",""
"3431.39999999851","","","","","4","html-slider-response","931","","","","2",""
"2115","banana","kazi,kasamok,hagdan,twai","kazi","f","4","html-keyboard-response","932","v","kasamok","false","",""
"2459.3000000044703","","","","","4","html-slider-response","933","","","","1",""
"1814","bonfire","mwezi,goti,mfuko,kusanya","goti","v","4","html-keyboard-response","934","v","goti","true","",""
"2496.5","","","","","4","html-slider-response","935","","","","2",""
"3124","cop","mechezo,bustani,jikoni,bakus","mechezo","f","4","html-keyboard-response","936","f","mechezo","true","",""
"2525.2999999970198","","","","","4","html-slider-response","937","","","","2",""
"3311","marker","maji,mapafu,salita,atay","maji","f","4","html-keyboard-response","938","f","maji","true","",""
"2539.5","","","","","4","html-slider-response","939","","","","4",""
"2633","window","nanga,kweli,kujenga,umaga","kweli","v","4","html-keyboard-response","940","n","umaga","false","",""
"4655.89999999851","","","","","4","html-slider-response","941","","","","1",""
"3180","body","nyundu,tindashan,jibini,kununa","tindashan","v","4","html-keyboard-response","942","v","tindashan","true","",""
"2987.89999999851","","","","","4","html-slider-response","943","","","","3",""
"3115","apple","ukame,estante,edad,kisu","kisu","n","4","html-keyboard-response","944","n","kisu","true","",""
"2869.3000000044703","","","","","4","html-slider-response","945","","","","5",""
"2764","salmon","mzungu,seri,baharia,sensilyo","sensilyo","n","4","html-keyboard-response","946","n","sensilyo","true","",""
"2275.89999999851","","","","","4","html-slider-response","947","","","","5",""
"3827","bed","kalipay,haraka,mapintas,starehe","mapintas","j","4","html-keyboard-response","948","j","mapintas","true","",""
"1991","","","","","4","html-slider-response","949","","","","1",""
"2523","berry","abogado,nogozi,kinywa,kofia","kofia","n","4","html-keyboard-response","950","n","kofia","true","",""
"3284.9000000059605","","","","","4","html-slider-response","951","","","","3",""
"2667","mirror","sulagma,rangi,kanding,furaha","sulagma","f","4","html-keyboard-response","952","j","kanding","false","",""
"3508.6999999955297","","","","","4","html-slider-response","953","","","","2",""
"2935","flag","ndege,mkate,kawa,trekta","trekta","n","4","html-keyboard-response","954","f","ndege","false","",""
"2565","","","","","4","html-slider-response","955","","","","1",""
"3253","shoulder","kelele,ndaniya,guruwe,mkuu","mkuu","n","4","html-keyboard-response","956","v","ndaniya","false","",""
"2753.39999999851","","","","","4","html-slider-response","957","","","","3",""
"4136","tissue","lamigas,ugomvi,kisiwa,katika","ugomvi","v","4","html-keyboard-response","958","v","ugomvi","true","",""
"2756.89999999851","","","","","4","html-slider-response","959","","","","1",""
"5246","notebook","msitu,kemia,kila,mdudu","kemia","v","4","html-keyboard-response","960","v","kemia","true","",""
"4769.5","","","","","4","html-slider-response","961","","","","3",""
"7725","snake","pagtukod,jansa,karon,mvringo","pagtukod","f","4","html-keyboard-response","962","v","jansa","false","",""
"3626.60000000149","","","","","4","html-slider-response","963","","","","3",""
"1995","finger","moyo,simu,sufuria,lima","moyo","f","4","html-keyboard-response","964","f","moyo","true","",""
"3737.3000000044703","","","","","4","html-slider-response","965","","","","3",""
"3250","basket","kumbuka,utepe,hasira,kumba","kumba","n","4","html-keyboard-response","966","n","kumba","true","",""
"2059.60000000149","","","","","4","html-slider-response","967","","","","1",""
"3382","curtain","lisud,bulwawan,chubani,mchanga","mchanga","n","4","html-keyboard-response","968","n","mchanga","true","",""
"2549.2000000029802","","","","","4","html-slider-response","969","","","","1",""
"3997","perfume","bino,katuyoan,sungura,ndogo","katuyoan","v","4","html-keyboard-response","970","j","sungura","false","",""
"1981.5","","","","","4","html-slider-response","971","","","","1",""
"1967","key","miaka,chombo,goma,ahos","chombo","v","4","html-keyboard-response","972","f","miaka","false","",""
"1948.1999999955297","","","","","4","html-slider-response","973","","","","2",""
"3108","olive","bata,siagi,welder,jiwe","jiwe","n","4","html-keyboard-response","974","n","jiwe","true","",""
"2229.39999999851","","","","","4","html-slider-response","975","","","","5",""
"5383","rose","singizi,paghalad,mwanake,amani","paghalad","v","4","html-keyboard-response","976","v","paghalad","true","",""
"4019.2000000029802","","","","","4","html-slider-response","977","","","","3",""
"3253","bridge","daima,ngono,panya,sahani","sahani","n","4","html-keyboard-response","978","n","sahani","true","",""
"2407.10000000149","","","","","4","html-slider-response","979","","","","3",""
"2558","hill","matumbo,kushoto,kukimba,sweta","matumbo","f","4","html-keyboard-response","980","f","matumbo","true","",""
"2595.7000000029802","","","","","4","html-slider-response","981","","","","1",""
"3701","letter","filimbi,chuma,kifua,uhuru","kifua","j","4","html-keyboard-response","982","j","kifua","true","",""
"2404.89999999851","","","","","4","html-slider-response","983","","","","1",""
"1939","sock","mamba,ndoora,kimysa,mtirka","mamba","f","4","html-keyboard-response","984","f","mamba","true","",""
"2487.6999999955297","","","","","4","html-slider-response","985","","","","5",""
"3076","fork","baboy,paghago,gorisi,mgonjwa","mgonjwa","n","4","html-keyboard-response","986","v","paghago","false","",""
"3335","","","","","4","html-slider-response","987","","","","2",""
"5138","box","kuacha,rafiki,adui,kitande","adui","j","4","html-keyboard-response","988","n","kitande","false","",""
"3273.39999999851","","","","","4","html-slider-response","989","","","","2",""
"3994","gift","baba,nyange,baso,pagtawag","pagtawag","n","4","html-keyboard-response","990","f","baba","false","",""
"2967.2999999970198","","","","","4","html-slider-response","991","","","","1",""
"2120","bucket","baga,ijayo,init,kiatu","kiatu","n","4","html-keyboard-response","992","f","baga","false","",""
"2459.89999999851","","","","","4","html-slider-response","993","","","","1",""
"4016","shop","nopya,kerida,samaki,ndezu","samaki","j","4","html-keyboard-response","994","j","samaki","true","",""
"2260.5","","","","","4","html-slider-response","995","","","","2",""
"3616","puppet","mazishi,napulo,lamok,godoro","mazishi","f","4","html-keyboard-response","996","v","napulo","false","",""
"3382","","","","","4","html-slider-response","997","","","","1",""
"2992","nose","gubat,kopa,kidole,sehemu","sehemu","n","4","html-keyboard-response","998","n","sehemu","true","",""
"4900.5","","","","","4","html-slider-response","999","","","","3",""
"4720","music","mraba,baiski,mageho,tumbo","baiski","v","4","html-keyboard-response","1000","v","baiski","true","",""
"3078.60000000149","","","","","4","html-slider-response","1001","","","","1",""
"3397","dog","lubi,washia,bahari,kalamu","bahari","j","4","html-keyboard-response","1002","j","bahari","true","",""
"2654.89999999851","","","","","4","html-slider-response","1003","","","","2",""
"6235","eel","msumari,ishara,kunywa,kabuang","msumari","f","4","html-keyboard-response","1004","n","kabuang","false","",""
"2165.2000000029802","","","","","4","html-slider-response","1005","","","","1",""
"2630","number","shule,mundamo,kengele,choori","mundamo","v","4","html-keyboard-response","1006","n","choori","false","",""
"3428.39999999851","","","","","4","html-slider-response","1007","","","","1",""
"4141","tomato","chupi,mvua,chupa,takatak","mvua","v","4","html-keyboard-response","1008","j","chupa","false","",""
"2041","","","","","4","html-slider-response","1009","","","","1",""
"2000","coffin","kioo,barua,tubag,hulma","kioo","f","4","html-keyboard-response","1010","f","kioo","true","",""
"2840.89999999851","","","","","4","html-slider-response","1011","","","","5",""
"2239","knee","duka,mvuke,kubale,bili","duka","f","4","html-keyboard-response","1012","j","kubale","false","",""
"3207.2999999970198","","","","","4","html-slider-response","1013","","","","3",""
"4195","woman","bandari,pagtabon,bituin,kovuli","pagtabon","v","4","html-keyboard-response","1014","v","pagtabon","true","",""
"3274.6999999955297","","","","","4","html-slider-response","1015","","","","3",""
"2706","stone","wingi,ulimwengu,mkasi,asili","wingi","f","4","html-keyboard-response","1016","n","asili","false","",""
"1940.6000000014901","","","","","4","html-slider-response","1017","","","","1",""
"6604","bread","kaili,dizeli,dari,bugas","dari","j","4","html-keyboard-response","1018","n","bugas","false","",""
"3026.4000000059605","","","","","4","html-slider-response","1019","","","","3",""
"2157","triangle","kihozi,bentaha,liog,kasadpan","kasadpan","n","4","html-keyboard-response","1020","j","liog","false","",""
"3027.3000000044703","","","","","4","html-slider-response","1021","","","","2",""
"2748","scissors","duga,mtawa,suga,tanuri","tanuri","n","4","html-keyboard-response","1022","v","mtawa","false","",""
"2964","","","","","4","html-slider-response","1023","","","","1",""
"4292","giraffe","daraja,jumatu,mahitabo,hangyo","mahitabo","j","4","html-keyboard-response","1024","j","mahitabo","true","",""
"1910.1999999955297","","","","","4","html-slider-response","1025","","","","2",""
"3098","flower","tamasha,lobo,bega,usiku","bega","j","4","html-keyboard-response","1026","j","bega","true","",""
"3224.2000000029802","","","","","4","html-slider-response","1027","","","","2",""
"4844","candle","gabi,farasi,geza,kupanda","geza","j","4","html-keyboard-response","1028","j","geza","true","",""
"3082.6999999955297","","","","","4","html-slider-response","1029","","","","2",""
"3643","mother","kahawa,mbuzi,jokofu,babaye","babaye","n","4","html-keyboard-response","1030","n","babaye","true","",""
"2542.0999999940395","","","","","4","html-slider-response","1031","","","","3",""
"3174","towel","tembo,pagpalit,funzi,pito","pagpalit","v","4","html-keyboard-response","1032","n","pito","false","",""
"2483.5","","","","","4","html-slider-response","1033","","","","3",""
"3115","elephant","petye,pagduol,kito,suka","kito","j","4","html-keyboard-response","1034","v","pagduol","false","",""
"3401.89999999851","","","","","4","html-slider-response","1035","","","","1",""
"2416","shelf","bungtod,kadaot,pamahaw,awit","pamahaw","j","4","html-keyboard-response","1036","n","awit","false","",""
"2656.5","","","","","4","html-slider-response","1037","","","","2",""
"1920","mosquito","isda,taras,gutom,martilyo","martilyo","n","4","html-keyboard-response","1038","n","martilyo","true","",""
"3176.5","","","","","4","html-slider-response","1039","","","","4",""
"1537","column","pundok,dila,ufagio,pala","ufagio","j","4","html-keyboard-response","1040","v","dila","false","",""
"2191.60000000149","","","","","4","html-slider-response","1041","","","","1",""
"2496","pants","haki,pintal,chuki,hari","haki","f","4","html-keyboard-response","1042","f","haki","true","",""
"2315.10000000149","","","","","4","html-slider-response","1043","","","","5",""
"1487","list","alizeti,wingu,kuzama,kaso","wingu","v","4","html-keyboard-response","1044","v","wingu","true","",""
"1978.2999999970198","","","","","4","html-slider-response","1045","","","","2",""
"5289","bank","kudhibi,tualya,silingan,ofisi","silingan","j","4","html-keyboard-response","1046","j","silingan","true","",""
"3746","","","","","4","html-slider-response","1047","","","","1",""
"4370","clock","kartasi,abang,osha,mbwa","mbwa","n","4","html-keyboard-response","1048","f","kartasi","false","",""
"1995.8999999985099","","","","","4","html-slider-response","1049","","","","1",""
"2308","ceiling","maua,kugita,kawaida,rayna","maua","f","4","html-keyboard-response","1050","f","maua","true","",""
"2194","","","","","4","html-slider-response","1051","","","","1",""
"2361","train","itik,dakika,mungu,sayari","sayari","n","4","html-keyboard-response","1052","j","mungu","false","",""
"1808.2000000029802","","","","","4","html-slider-response","1053","","","","1",""
"1600","magazine","gundi,mchawi,bahandi,kiti","kiti","n","4","html-keyboard-response","1054","v","mchawi","false","",""
"3098.5","","","","","4","html-slider-response","1055","","","","3",""
"3764","office","leso,hazini,yatima,kuna","leso","f","4","html-keyboard-response","1056","v","hazini","false","",""
"4778.30000000447","","","","","4","html-slider-response","1057","","","","1",""
"6286","wheel","punda,tawo,baadaye,bafuni","bafuni","n","4","html-keyboard-response","1058","n","bafuni","true","",""
"2738.10000000149","","","","","4","html-slider-response","1059","","","","1",""
"3441","spoon","betri,pagsulod,nzuri,ngazi","pagsulod","v","4","html-keyboard-response","1060","v","pagsulod","true","",""
"3798.2000000029802","","","","","4","html-slider-response","1061","","","","2",""
"3377","hammer","mekno,kitovu,layag,napakyas","napakyas","n","4","html-keyboard-response","1062","v","kitovu","false","",""
"1978.1999999955297","","","","","4","html-slider-response","1063","","","","1",""
"4271","cigar","ndugu,kuta,adhabu,mlango","adhabu","j","4","html-keyboard-response","1064","j","adhabu","true","",""
"2453.1999999955297","","","","","4","html-slider-response","1065","","","","1",""
"4386","shoe","uyoga,nyeusi,hatua,kama","uyoga","f","4","html-keyboard-response","1066","n","kama","false","",""
"3184.5","","","","","4","html-slider-response","1067","","","","3",""
"5126","list","alizeti,wingu,kuzama,kaso","wingu","v","5","html-keyboard-response","1069","v","wingu","true","",""
"2021","","","","","5","html-slider-response","1070","","","","1",""
"2313","number","mundamo,shule,kengele,choori","mundamo","f","5","html-keyboard-response","1071","j","kengele","false","",""
"2464.0999999940395","","","","","5","html-slider-response","1072","","","","1",""
"1628","apple","kisu,ukame,estante,edad","kisu","f","5","html-keyboard-response","1073","f","kisu","true","",""
"2367","","","","","5","html-slider-response","1074","","","","5",""
"1846","knee","mvuke,kubale,duka,bili","duka","j","5","html-keyboard-response","1075","v","kubale","false","",""
"1918","","","","","5","html-slider-response","1076","","","","1",""
"5056","tooth","kabalaka,kijiko,uadui,pahiyum","kabalaka","f","5","html-keyboard-response","1077","f","kabalaka","true","",""
"2501.7000000029802","","","","","5","html-slider-response","1078","","","","1",""
"4423","berry","abogado,nogozi,kinywa,kofia","kofia","n","5","html-keyboard-response","1079","n","kofia","true","",""
"4481.79999999702","","","","","5","html-slider-response","1080","","","","4",""
"1728","bridge","daima,sahani,ngono,panya","sahani","v","5","html-keyboard-response","1081","v","sahani","true","",""
"1959.6000000014901","","","","","5","html-slider-response","1082","","","","2",""
"3491","perfume","bino,sungura,ndogo,katuyoan","katuyoan","n","5","html-keyboard-response","1083","v","sungura","false","",""
"1916.2999999970198","","","","","5","html-slider-response","1084","","","","1",""
"1996","ladder","mashua,mwanga,pangalan,kamba","pangalan","j","5","html-keyboard-response","1085","v","mwanga","false","",""
"1995","","","","","5","html-slider-response","1086","","","","1",""
"3654","pants","pintal,haki,chuki,hari","haki","v","5","html-keyboard-response","1087","v","haki","true","",""
"3028.10000000149","","","","","5","html-slider-response","1088","","","","5",""
"2573","salmon","mzungu,sensilyo,seri,baharia","sensilyo","v","5","html-keyboard-response","1089","v","sensilyo","true","",""
"2583.10000000149","","","","","5","html-slider-response","1090","","","","5",""
"1827","coffin","kioo,barua,tubag,hulma","kioo","f","5","html-keyboard-response","1091","f","kioo","true","",""
"2460.2000000029802","","","","","5","html-slider-response","1092","","","","5",""
"4794","park","bunifu,tambok,pwani,ihalas","bunifu","f","5","html-keyboard-response","1093","j","pwani","false","",""
"2101","","","","","5","html-slider-response","1094","","","","1",""
"5212","giraffe","daraja,jumatu,mahitabo,hangyo","mahitabo","j","5","html-keyboard-response","1095","j","mahitabo","true","",""
"3087.3000000044703","","","","","5","html-slider-response","1096","","","","1",""
"4490","mirror","rangi,kanding,sulagma,furaha","sulagma","j","5","html-keyboard-response","1097","v","kanding","false","",""
"1825.3000000044703","","","","","5","html-slider-response","1098","","","","1",""
"3255","ceiling","kugita,kawaida,rayna,maua","maua","n","5","html-keyboard-response","1099","n","maua","true","",""
"2563","","","","","5","html-slider-response","1100","","","","3",""
"4451","marker","mapafu,salita,atay,maji","maji","n","5","html-keyboard-response","1101","n","maji","true","",""
"5868","","","","","5","html-slider-response","1102","","","","3",""
"2775","sock","ndoora,kimysa,mamba,mtirka","mamba","j","5","html-keyboard-response","1103","j","mamba","true","",""
"2442.39999999851","","","","","5","html-slider-response","1104","","","","5",""
"2954","cop","bustani,jikoni,bakus,mechezo","mechezo","n","5","html-keyboard-response","1105","f","bustani","false","",""
"3240.10000000149","","","","","5","html-slider-response","1106","","","","1",""
"3831","gift","baba,nyange,baso,pagtawag","pagtawag","n","5","html-keyboard-response","1107","n","pagtawag","true","",""
"1888.1000000014901","","","","","5","html-slider-response","1108","","","","1",""
"2586","notebook","kemia,msitu,kila,mdudu","kemia","f","5","html-keyboard-response","1109","f","kemia","true","",""
"2786.7000000029802","","","","","5","html-slider-response","1110","","","","4",""
"3993","bank","kudhibi,tualya,silingan,ofisi","silingan","j","5","html-keyboard-response","1111","j","silingan","true","",""
"2542.39999999851","","","","","5","html-slider-response","1112","","","","1",""
"2288","letter","kifua,filimbi,chuma,uhuru","kifua","f","5","html-keyboard-response","1113","f","kifua","true","",""
"3044.60000000149","","","","","5","html-slider-response","1114","","","","2",""
"2153","candle","geza,gabi,farasi,kupanda","geza","f","5","html-keyboard-response","1115","n","kupanda","false","",""
"1872.1000000014901","","","","","5","html-slider-response","1116","","","","1",""
"3593","bread","dari,kaili,dizeli,bugas","dari","f","5","html-keyboard-response","1117","f","dari","true","",""
"2875.39999999851","","","","","5","html-slider-response","1118","","","","1",""
"2070","snake","pagtukod,jansa,karon,mvringo","pagtukod","f","5","html-keyboard-response","1119","v","jansa","false","",""
"2549.9000000059605","","","","","5","html-slider-response","1120","","","","1",""
"4460","rose","singizi,paghalad,mwanake,amani","paghalad","v","5","html-keyboard-response","1121","f","singizi","false","",""
"1908.3999999985099","","","","","5","html-slider-response","1122","","","","2",""
"2489","hill","matumbo,kushoto,kukimba,sweta","matumbo","f","5","html-keyboard-response","1123","f","matumbo","true","",""
"3606.39999999851","","","","","5","html-slider-response","1124","","","","2",""
"4546","train","itik,sayari,dakika,mungu","sayari","v","5","html-keyboard-response","1125","v","sayari","true","",""
"2522.2999999970198","","","","","5","html-slider-response","1126","","","","2",""
"2934","shop","nopya,kerida,samaki,ndezu","samaki","j","5","html-keyboard-response","1127","j","samaki","true","",""
"2730.89999999851","","","","","5","html-slider-response","1128","","","","1",""
"6187","nose","gubat,kopa,sehemu,kidole","sehemu","j","5","html-keyboard-response","1129","j","sehemu","true","",""
"1965.1000000014901","","","","","5","html-slider-response","1130","","","","1",""
"3316","boat","hamsi,pombe,kitanda,agalon","agalon","n","5","html-keyboard-response","1131","f","hamsi","false","",""
"1942.3000000044703","","","","","5","html-slider-response","1132","","","","1",""
"5870","body","nyundu,tindashan,jibini,kununa","tindashan","v","5","html-keyboard-response","1133","f","nyundu","false","",""
"2150.5","","","","","5","html-slider-response","1134","","","","1",""
"3951","bed","kalipay,mapintas,haraka,starehe","mapintas","v","5","html-keyboard-response","1135","v","mapintas","true","",""
"4866.60000000149","","","","","5","html-slider-response","1136","","","","2",""
"3182","squirrel","mahugaw,hofu,ukweli,kichwa","hofu","v","5","html-keyboard-response","1137","n","kichwa","false","",""
"2055.7000000029802","","","","","5","html-slider-response","1138","","","","1",""
"8697","window","nanga,kweli,kujenga,umaga","kweli","v","5","html-keyboard-response","1139","v","kweli","true","",""
"2591.89999999851","","","","","5","html-slider-response","1140","","","","1",""
"2393","bonfire","mwezi,mfuko,kusanya,goti","goti","n","5","html-keyboard-response","1141","n","goti","true","",""
"2253.7000000029802","","","","","5","html-slider-response","1142","","","","1",""
"4623","fish","bala,buli,baho,imani","buli","v","5","html-keyboard-response","1143","v","buli","true","",""
"2054.6999999955297","","","","","5","html-slider-response","1144","","","","2",""
"2266","cat","paghukom,neyemba,baki,akili","paghukom","f","5","html-keyboard-response","1145","j","baki","false","",""
"3218","","","","","5","html-slider-response","1146","","","","2",""
"2588","spider","bunyag,mkboa,atop,kamwe","kamwe","n","5","html-keyboard-response","1147","j","atop","false","",""
"2128.60000000149","","","","","5","html-slider-response","1148","","","","1",""
"3139","eel","msumari,ishara,kunywa,kabuang","msumari","f","5","html-keyboard-response","1149","f","msumari","true","",""
"2516.60000000149","","","","","5","html-slider-response","1150","","","","1",""
"4310","woman","bandari,bituin,pagtabon,kovuli","pagtabon","j","5","html-keyboard-response","1151","j","pagtabon","true","",""
"2514.2999999970198","","","","","5","html-slider-response","1152","","","","1",""
"3666","magazine","gundi,kiti,mchawi,bahandi","kiti","v","5","html-keyboard-response","1153","j","mchawi","false","",""
"1947.1000000014901","","","","","5","html-slider-response","1154","","","","1",""
"3734","pudding","aibu,abug,mpishi,iring","aibu","f","5","html-keyboard-response","1155","n","iring","false","",""
"2555.39999999851","","","","","5","html-slider-response","1156","","","","4",""
"3810","lamp","afya,daub,bilaska,mbolea","afya","f","5","html-keyboard-response","1157","n","mbolea","false","",""
"2095.7000000029802","","","","","5","html-slider-response","1158","","","","1",""
"3263","cave","ganti,maisha,kesho,nyundo","kesho","j","5","html-keyboard-response","1159","n","nyundo","false","",""
"2623.2000000029802","","","","","5","html-slider-response","1160","","","","1",""
"3592","shoulder","kelele,ndaniya,guruwe,mkuu","mkuu","n","5","html-keyboard-response","1161","n","mkuu","true","",""
"2609.10000000149","","","","","5","html-slider-response","1162","","","","2",""
"2693","stone","ulimwengu,wingi,mkasi,asili","wingi","v","5","html-keyboard-response","1163","v","wingi","true","",""
"2507.60000000149","","","","","5","html-slider-response","1164","","","","1",""
"2653","column","pundok,dila,pala,ufagio","ufagio","n","5","html-keyboard-response","1165","j","pala","false","",""
"2045.3000000044703","","","","","5","html-slider-response","1166","","","","1",""
"4650","page","wakala,wimbo,ishiri,skina","wimbo","v","5","html-keyboard-response","1167","f","wakala","false","",""
"2083.60000000149","","","","","5","html-slider-response","1168","","","","1",""
"3483","shoe","nyeusi,hatua,kama,uyoga","uyoga","n","5","html-keyboard-response","1169","j","kama","false","",""
"5189.29999999702","","","","","5","html-slider-response","1170","","","","3",""
"2724","clock","mbwa,kartasi,abang,osha","mbwa","f","5","html-keyboard-response","1171","n","osha","false","",""
"2670.89999999851","","","","","5","html-slider-response","1172","","","","2",""
"2198","towel","tembo,pagpalit,funzi,pito","pagpalit","v","5","html-keyboard-response","1173","n","pito","false","",""
"2686.7000000029802","","","","","5","html-slider-response","1174","","","","1",""
"4443","tomato","chupi,chupa,mvua,takatak","mvua","j","5","html-keyboard-response","1175","n","takatak","false","",""
"2117.6999999955297","","","","","5","html-slider-response","1176","","","","1",""
"3884","bucket","kiatu,baga,ijayo,init","kiatu","f","5","html-keyboard-response","1177","v","baga","false","",""
"2850.89999999851","","","","","5","html-slider-response","1178","","","","1",""
"2519","finger","moyo,simu,sufuria,lima","moyo","f","5","html-keyboard-response","1179","f","moyo","true","",""
"2100.7999999970198","","","","","5","html-slider-response","1180","","","","1",""
"3260","mother","babaye,kahawa,mbuzi,jokofu","babaye","f","5","html-keyboard-response","1181","f","babaye","true","",""
"2002.3999999985099","","","","","5","html-slider-response","1182","","","","2",""
"1868","human","bado,kikapu,tinapay,punguza","tinapay","j","5","html-keyboard-response","1183","n","punguza","false","",""
"2842.39999999851","","","","","5","html-slider-response","1184","","","","3",""
"5829","sun","basi,bendi,luha,uongo","basi","f","5","html-keyboard-response","1185","j","luha","false","",""
"2422.6999999955297","","","","","5","html-slider-response","1186","","","","1",""
"3817","fork","mgonjwa,baboy,paghago,gorisi","mgonjwa","f","5","html-keyboard-response","1187","j","paghago","false","",""
"3288.60000000149","","","","","5","html-slider-response","1188","","","","1",""
"3685","donkey","bloke,lalake,rombus,elfu","elfu","n","5","html-keyboard-response","1189","v","lalake","false","",""
"2052.5","","","","","5","html-slider-response","1190","","","","2",""
"1937","wolf","lugha,kaburi,ndizi,mchuzi","lugha","f","5","html-keyboard-response","1191","f","lugha","true","",""
"3043.6999999955297","","","","","5","html-slider-response","1192","","","","5",""
"2838","cigar","ndugu,kuta,adhabu,mlango","adhabu","j","5","html-keyboard-response","1193","v","kuta","false","",""
"4093.60000000149","","","","","5","html-slider-response","1194","","","","3",""
"2763","olive","bata,jiwe,siagi,welder","jiwe","v","5","html-keyboard-response","1195","v","jiwe","true","",""
"2623","","","","","5","html-slider-response","1196","","","","2",""
"2719","key","miaka,goma,ahos,chombo","chombo","n","5","html-keyboard-response","1197","v","goma","false","",""
"2872.2000000029802","","","","","5","html-slider-response","1198","","","","1",""
"3295","door","surali,tena,soko,nyota","surali","f","5","html-keyboard-response","1199","v","tena","false","",""
"3543.60000000149","","","","","5","html-slider-response","1200","","","","2",""
"3273","wheel","bafuni,punda,tawo,baadaye","bafuni","f","5","html-keyboard-response","1201","j","tawo","false","",""
"3309.2000000029802","","","","","5","html-slider-response","1202","","","","1",""
"2748","basket","kumbuka,utepe,hasira,kumba","kumba","n","5","html-keyboard-response","1203","n","kumba","true","",""
"3765.9000000059605","","","","","5","html-slider-response","1204","","","","1",""
"3354","elephant","petye,pagduol,suka,kito","kito","n","5","html-keyboard-response","1205","v","pagduol","false","",""
"5082.5","","","","","5","html-slider-response","1206","","","","3",""
"2108","office","leso,hazini,yatima,kuna","leso","f","5","html-keyboard-response","1207","f","leso","true","",""
"2216.2999999970198","","","","","5","html-slider-response","1208","","","","1",""
"2403","music","baiski,mraba,mageho,tumbo","baiski","f","5","html-keyboard-response","1209","f","baiski","true","",""
"1982.3999999985099","","","","","5","html-slider-response","1210","","","","1",""
"2313","tissue","lamigas,kisiwa,katika,ugomvi","ugomvi","n","5","html-keyboard-response","1211","j","katika","false","",""
"2921.5","","","","","5","html-slider-response","1212","","","","1",""
"7960","curtain","mchanga,lisud,bulwawan,chubani","mchanga","f","5","html-keyboard-response","1213","v","lisud","false","",""
"2601.2000000029802","","","","","5","html-slider-response","1214","","","","1",""
"2531","flag","trekta,ndege,mkate,kawa","trekta","f","5","html-keyboard-response","1215","n","kawa","false","",""
"2713.8000000044703","","","","","5","html-slider-response","1216","","","","1",""
"3209","dog","lubi,washia,kalamu,bahari","bahari","n","5","html-keyboard-response","1217","n","bahari","true","",""
"2491.0999999940395","","","","","5","html-slider-response","1218","","","","2",""
"3505","cup","matumai,dagat,shimoni,jeraha","matumai","f","5","html-keyboard-response","1219","v","dagat","false","",""
"2067.7999999970198","","","","","5","html-slider-response","1220","","","","1",""
"9518","sheet","juuya,bililhon,watu,kamantis","bililhon","v","5","html-keyboard-response","1221","f","juuya","false","",""
"3254.60000000149","","","","","5","html-slider-response","1222","","","","1",""
"2457","spoon","pagsulod,betri,nzuri,ngazi","pagsulod","f","5","html-keyboard-response","1223","f","pagsulod","true","",""
"2883.2000000029802","","","","","5","html-slider-response","1224","","","","2",""
"3907","flower","tamasha,lobo,bega,usiku","bega","j","5","html-keyboard-response","1225","j","bega","true","",""
"2964.60000000149","","","","","5","html-slider-response","1226","","","","2",""
"5024","picture","silya,chaki,kubwa,asin","kubwa","j","5","html-keyboard-response","1227","j","kubwa","true","",""
"2699.60000000149","","","","","5","html-slider-response","1228","","","","1",""
"2189","puppet","napulo,mazishi,lamok,godoro","mazishi","v","5","html-keyboard-response","1229","f","napulo","false","",""
"2829.2000000029802","","","","","5","html-slider-response","1230","","","","1",""
"1599","banana","kasamok,hagdan,kazi,twai","kazi","j","5","html-keyboard-response","1231","v","hagdan","false","",""
"2121.89999999851","","","","","5","html-slider-response","1232","","","","1",""
"7056","book","kuhesa,picha,mara,mali","mali","n","5","html-keyboard-response","1233","f","kuhesa","false","",""
"3167.4000000059605","","","","","5","html-slider-response","1234","","","","1",""
"3415","triangle","kasadpan,kihozi,bentaha,liog","kasadpan","f","5","html-keyboard-response","1235","n","liog","false","",""
"3713.0999999940395","","","","","5","html-slider-response","1236","","","","3",""
"2078","poster","nchi,fedha,kasuko,madungog","madungog","n","5","html-keyboard-response","1237","n","madungog","true","",""
"2306.2999999970198","","","","","5","html-slider-response","1238","","","","5",""
"1878","box","adui,kuacha,rafiki,kitande","adui","f","5","html-keyboard-response","1239","f","adui","true","",""
"2675.3000000044703","","","","","5","html-slider-response","1240","","","","1",""
"3253","mosquito","isda,martilyo,taras,gutom","martilyo","v","5","html-keyboard-response","1241","v","martilyo","true","",""
"3766.2999999970198","","","","","5","html-slider-response","1242","","","","4",""
"1909","shelf","bungtod,kadaot,awit,pamahaw","pamahaw","n","5","html-keyboard-response","1243","j","awit","false","",""
"2751.60000000149","","","","","5","html-slider-response","1244","","","","1",""
"4290","scissors","tanuri,duga,mtawa,suga","tanuri","f","5","html-keyboard-response","1245","j","mtawa","false","",""
"2073.7000000029802","","","","","5","html-slider-response","1246","","","","1",""
"3982","hammer","mekno,kitovu,layag,napakyas","napakyas","n","5","html-keyboard-response","1247","j","layag","false","",""
"2534.5999999940395","","","","","5","html-slider-response","1248","","","","1",""
