"rt","en_word","options","swa_word","correct_answer","phase","trial_type","trial_index","input_answer","input_word","accuracy","certainty","amt_choices"
"10869","bonfire","goti,mwezi,mfuko,kusanya","goti","f","2","html-keyboard-response","106","f","goti","true","",""
"2112.1999999284744","","","","","2","html-slider-response","107","","","","4",""
"15292","flower","tamasha,lobo,bega,usiku","bega","j","2","html-keyboard-response","108","f","tamasha","false","",""
"6679.5","","","","","2","html-slider-response","109","","","","3",""
"17903","column","pundok,dila,ufagio,pala","ufagio","j","2","html-keyboard-response","110","f","pundok","false","",""
"2822.600000023842","","","","","2","html-slider-response","111","","","","2",""
"21722","music","baiski,mraba,mageho,tumbo","baiski","f","2","html-keyboard-response","112","j","mageho","false","",""
"2699.2000000476837","","","","","2","html-slider-response","113","","","","2",""
"15348","spider","bunyag,kamwe,mkboa,atop","kamwe","v","2","html-keyboard-response","114","j","mkboa","false","",""
"2492.7000000476837","","","","","2","html-slider-response","115","","","","2",""
"18777","fork","baboy,paghago,mgonjwa,gorisi","mgonjwa","j","2","html-keyboard-response","116","v","paghago","false","",""
"2434.899999976158","","","","","2","html-slider-response","117","","","","2",""
"12633","mosquito","isda,taras,gutom,martilyo","martilyo","n","2","html-keyboard-response","118","n","martilyo","true","",""
"2195.4000000953674","","","","","2","html-slider-response","119","","","","2",""
"17041","banana","kasamok,hagdan,kazi,twai","kazi","j","2","html-keyboard-response","120","j","kazi","true","",""
"2640.2000000476837","","","","","2","html-slider-response","121","","","","2",""
"16763","cup","dagat,matumai,shimoni,jeraha","matumai","v","2","html-keyboard-response","122","v","matumai","true","",""
"2986.7000000476837","","","","","2","html-slider-response","123","","","","3",""
"3349","shop","nopya,samaki,kerida,ndezu","samaki","v","2","html-keyboard-response","124","n","ndezu","false","",""
"2287.100000023842","","","","","2","html-slider-response","125","","","","2",""
"21081","elephant","petye,pagduol,suka,kito","kito","n","2","html-keyboard-response","126","v","pagduol","false","",""
"2447.899999976158","","","","","2","html-slider-response","127","","","","3",""
"5177","bucket","baga,ijayo,kiatu,init","kiatu","j","2","html-keyboard-response","128","f","baga","false","",""
"3212.600000023842","","","","","2","html-slider-response","129","","","","2",""
"4395","book","kuhesa,picha,mara,mali","mali","n","2","html-keyboard-response","130","v","picha","false","",""
"2475","","","","","2","html-slider-response","131","","","","3",""
"13442","mirror","rangi,sulagma,kanding,furaha","sulagma","v","2","html-keyboard-response","132","n","furaha","false","",""
"2096.2000000476837","","","","","2","html-slider-response","133","","","","2",""
"3744","office","hazini,yatima,leso,kuna","leso","j","2","html-keyboard-response","134","f","hazini","false","",""
"1594.1000000238419","","","","","2","html-slider-response","135","","","","2",""
"8357","body","nyundu,jibini,kununa,tindashan","tindashan","n","2","html-keyboard-response","136","v","jibini","false","",""
"1448.8999999761581","","","","","2","html-slider-response","137","","","","2",""
"4657","perfume","bino,sungura,katuyoan,ndogo","katuyoan","j","2","html-keyboard-response","138","j","katuyoan","true","",""
"1552.3999999761581","","","","","2","html-slider-response","139","","","","2",""
"5263","olive","bata,siagi,jiwe,welder","jiwe","j","2","html-keyboard-response","140","j","jiwe","true","",""
"2166.100000023842","","","","","2","html-slider-response","141","","","","3",""
"6827","magazine","kiti,gundi,mchawi,bahandi","kiti","f","2","html-keyboard-response","142","n","bahandi","false","",""
"1375","","","","","2","html-slider-response","143","","","","4",""
"4159","bread","kaili,dizeli,dari,bugas","dari","j","2","html-keyboard-response","144","j","dari","true","",""
"2742.7000000476837","","","","","2","html-slider-response","145","","","","3",""
"20179","cave","ganti,maisha,nyundo,kesho","kesho","n","2","html-keyboard-response","146","v","maisha","false","",""
"1467.5","","","","","2","html-slider-response","147","","","","2",""
"4240","ladder","mashua,pangalan,mwanga,kamba","pangalan","v","2","html-keyboard-response","148","j","mwanga","false","",""
"1913.6999999284744","","","","","2","html-slider-response","149","","","","2",""
"5657","human","tinapay,bado,kikapu,punguza","tinapay","f","2","html-keyboard-response","150","f","tinapay","true","",""
"1274.3999999761581","","","","","2","html-slider-response","151","","","","4",""
"3402","clock","mbwa,kartasi,abang,osha","mbwa","f","2","html-keyboard-response","152","f","mbwa","true","",""
"1640.2999999523163","","","","","2","html-slider-response","153","","","","4",""
"4504","shelf","bungtod,kadaot,awit,pamahaw","pamahaw","n","2","html-keyboard-response","154","n","pamahaw","true","",""
"1220.5","","","","","2","html-slider-response","155","","","","5",""
"4017","salmon","mzungu,seri,baharia,sensilyo","sensilyo","n","2","html-keyboard-response","156","v","seri","false","",""
"3557.600000023842","","","","","2","html-slider-response","157","","","","3",""
"5855","coffin","kioo,barua,tubag,hulma","kioo","f","2","html-keyboard-response","158","j","tubag","false","",""
"2076.5999999046326","","","","","2","html-slider-response","159","","","","3",""
"3632","notebook","msitu,kemia,kila,mdudu","kemia","v","2","html-keyboard-response","160","n","mdudu","false","",""
"1271.6999999284744","","","","","2","html-slider-response","161","","","","2",""
"4561","shoulder","mkuu,kelele,ndaniya,guruwe","mkuu","f","2","html-keyboard-response","162","f","mkuu","true","",""
"2513.100000023842","","","","","2","html-slider-response","163","","","","1",""
"4457","park","tambok,bunifu,pwani,ihalas","bunifu","v","2","html-keyboard-response","164","j","pwani","false","",""
"1857.1999999284744","","","","","2","html-slider-response","165","","","","4",""
"4228","number","shule,mundamo,kengele,choori","mundamo","v","2","html-keyboard-response","166","v","mundamo","true","",""
"2740.2999999523163","","","","","2","html-slider-response","167","","","","3",""
"14954","apple","kisu,ukame,estante,edad","kisu","f","2","html-keyboard-response","168","j","estante","false","",""
"1596.2999999523163","","","","","2","html-slider-response","169","","","","4",""
"3768","letter","kifua,filimbi,chuma,uhuru","kifua","f","2","html-keyboard-response","170","v","filimbi","false","",""
"1414.6000000238419","","","","","2","html-slider-response","171","","","","2",""
"15642","eel","ishara,msumari,kunywa,kabuang","msumari","v","2","html-keyboard-response","172","n","kabuang","false","",""
"3866.5999999046326","","","","","2","html-slider-response","173","","","","4",""
"3379","cop","mechezo,bustani,jikoni,bakus","mechezo","f","2","html-keyboard-response","174","f","mechezo","true","",""
"1753.2999999523163","","","","","2","html-slider-response","175","","","","1",""
"3479","wolf","kaburi,lugha,ndizi,mchuzi","lugha","v","2","html-keyboard-response","176","f","kaburi","false","",""
"1547.7999999523163","","","","","2","html-slider-response","177","","","","4",""
"5481","squirrel","mahugaw,hofu,ukweli,kichwa","hofu","v","2","html-keyboard-response","178","v","hofu","true","",""
"1114.7999999523163","","","","","2","html-slider-response","179","","","","5",""
"12453","nose","gubat,sehemu,kopa,kidole","sehemu","v","2","html-keyboard-response","180","v","sehemu","true","",""
"1722.8999999761581","","","","","2","html-slider-response","181","","","","5",""
"3294","sock","mamba,ndoora,kimysa,mtirka","mamba","f","2","html-keyboard-response","182","f","mamba","true","",""
"1524","","","","","2","html-slider-response","183","","","","5",""
"9155","bank","silingan,kudhibi,tualya,ofisi","silingan","f","2","html-keyboard-response","184","f","silingan","true","",""
"1819.8000000715256","","","","","2","html-slider-response","185","","","","2",""
"5543","donkey","elfu,bloke,lalake,rombus","elfu","f","2","html-keyboard-response","186","f","elfu","true","",""
"1702.7000000476837","","","","","2","html-slider-response","187","","","","4",""
"3258","poster","madungog,nchi,fedha,kasuko","madungog","f","2","html-keyboard-response","188","f","madungog","true","",""
"1434","","","","","2","html-slider-response","189","","","","5",""
"9867","puppet","napulo,lamok,godoro,mazishi","mazishi","n","2","html-keyboard-response","190","n","mazishi","true","",""
"1720.7999999523163","","","","","2","html-slider-response","191","","","","1",""
"7296","hill","kushoto,kukimba,matumbo,sweta","matumbo","j","2","html-keyboard-response","192","v","kukimba","false","",""
"1732.4000000953674","","","","","2","html-slider-response","193","","","","1",""
"6765","tooth","kijiko,uadui,pahiyum,kabalaka","kabalaka","n","2","html-keyboard-response","194","j","pahiyum","false","",""
"1344.8000000715256","","","","","2","html-slider-response","195","","","","2",""
"3919","woman","bandari,bituin,kovuli,pagtabon","pagtabon","n","2","html-keyboard-response","196","n","pagtabon","true","",""
"1792.6999999284744","","","","","2","html-slider-response","197","","","","5",""
"4069","wheel","punda,bafuni,tawo,baadaye","bafuni","v","2","html-keyboard-response","198","v","bafuni","true","",""
"1778.7000000476837","","","","","2","html-slider-response","199","","","","4",""
"2458","mother","kahawa,mbuzi,jokofu,babaye","babaye","n","2","html-keyboard-response","200","n","babaye","true","",""
"1258.1000000238419","","","","","2","html-slider-response","201","","","","5",""
"9096","bed","kalipay,haraka,starehe,mapintas","mapintas","n","2","html-keyboard-response","202","v","haraka","false","",""
"1686.1999999284744","","","","","2","html-slider-response","203","","","","3",""
"6301","key","miaka,goma,ahos,chombo","chombo","n","2","html-keyboard-response","204","n","chombo","true","",""
"3139.9000000953674","","","","","2","html-slider-response","205","","","","3",""
"3287","page","wimbo,wakala,ishiri,skina","wimbo","f","2","html-keyboard-response","206","f","wimbo","true","",""
"1705","","","","","2","html-slider-response","207","","","","4",""
"5015","pants","pintal,chuki,haki,hari","haki","j","2","html-keyboard-response","208","j","haki","true","",""
"1950.4000000953674","","","","","2","html-slider-response","209","","","","3",""
"3478","sun","bendi,luha,uongo,basi","basi","n","2","html-keyboard-response","210","f","bendi","false","",""
"1726.2999999523163","","","","","2","html-slider-response","211","","","","1",""
"3374","finger","moyo,simu,sufuria,lima","moyo","f","2","html-keyboard-response","212","f","moyo","true","",""
"1594.7000000476837","","","","","2","html-slider-response","213","","","","5",""
"4708","shoe","nyeusi,hatua,kama,uyoga","uyoga","n","2","html-keyboard-response","214","n","uyoga","true","",""
"1493.8000000715256","","","","","2","html-slider-response","215","","","","4",""
"6006","giraffe","daraja,mahitabo,jumatu,hangyo","mahitabo","v","2","html-keyboard-response","216","n","hangyo","false","",""
"1706.2000000476837","","","","","2","html-slider-response","217","","","","2",""
"3047","dog","lubi,bahari,washia,kalamu","bahari","v","2","html-keyboard-response","218","v","bahari","true","",""
"1804.8000000715256","","","","","2","html-slider-response","219","","","","4",""
"3708","box","kuacha,rafiki,kitande,adui","adui","n","2","html-keyboard-response","220","n","adui","true","",""
"2097.7000000476837","","","","","2","html-slider-response","221","","","","5",""
"11635","scissors","duga,tanuri,mtawa,suga","tanuri","v","2","html-keyboard-response","222","n","suga","false","",""
"1968.3000000715256","","","","","2","html-slider-response","223","","","","1",""
"4513","cat","paghukom,neyemba,baki,akili","paghukom","f","2","html-keyboard-response","224","f","paghukom","true","",""
"2130.5","","","","","2","html-slider-response","225","","","","3",""
"4203","basket","kumbuka,kumba,utepe,hasira","kumba","v","2","html-keyboard-response","226","v","kumba","true","",""
"2656.600000023842","","","","","2","html-slider-response","227","","","","4",""
"3069","snake","pagtukod,jansa,karon,mvringo","pagtukod","f","2","html-keyboard-response","228","f","pagtukod","true","",""
"2280.5","","","","","2","html-slider-response","229","","","","3",""
"5235","gift","baba,pagtawag,nyange,baso","pagtawag","v","2","html-keyboard-response","230","v","pagtawag","true","",""
"3341","","","","","2","html-slider-response","231","","","","4",""
"5386","train","itik,dakika,sayari,mungu","sayari","j","2","html-keyboard-response","232","f","itik","false","",""
"2179.5999999046326","","","","","2","html-slider-response","233","","","","2",""
"7442","pudding","abug,mpishi,aibu,iring","aibu","j","2","html-keyboard-response","234","j","aibu","true","",""
"1277.1000000238419","","","","","2","html-slider-response","235","","","","4",""
"7086","tomato","chupi,chupa,mvua,takatak","mvua","j","2","html-keyboard-response","236","j","mvua","true","",""
"1223.8000000715256","","","","","2","html-slider-response","237","","","","5",""
"13877","stone","wingi,ulimwengu,mkasi,asili","wingi","f","2","html-keyboard-response","238","f","wingi","true","",""
"1512.7999999523163","","","","","2","html-slider-response","239","","","","3",""
"3441","hammer","napakyas,mekno,kitovu,layag","napakyas","f","2","html-keyboard-response","240","v","mekno","false","",""
"2275.100000023842","","","","","2","html-slider-response","241","","","","1",""
"5937","knee","mvuke,kubale,bili,duka","duka","n","2","html-keyboard-response","242","n","duka","true","",""
"1916.5","","","","","2","html-slider-response","243","","","","4",""
"6213","ceiling","kugita,kawaida,maua,rayna","maua","j","2","html-keyboard-response","244","n","rayna","false","",""
"2247","","","","","2","html-slider-response","245","","","","1",""
"5896","spoon","betri,nzuri,ngazi,pagsulod","pagsulod","n","2","html-keyboard-response","246","n","pagsulod","true","",""
"1716.1000000238419","","","","","2","html-slider-response","247","","","","2",""
"4172","marker","maji,mapafu,salita,atay","maji","f","2","html-keyboard-response","248","f","maji","true","",""
"2240.100000023842","","","","","2","html-slider-response","249","","","","4",""
"13713","candle","gabi,farasi,kupanda,geza","geza","n","2","html-keyboard-response","250","n","geza","true","",""
"3614.7000000476837","","","","","2","html-slider-response","251","","","","5",""
"5553","tissue","ugomvi,lamigas,kisiwa,katika","ugomvi","f","2","html-keyboard-response","252","n","katika","false","",""
"2985","","","","","2","html-slider-response","253","","","","2",""
"4116","bridge","sahani,daima,ngono,panya","sahani","f","2","html-keyboard-response","254","f","sahani","true","",""
"3442.1999999284744","","","","","2","html-slider-response","255","","","","3",""
"4638","berry","abogado,nogozi,kofia,kinywa","kofia","j","2","html-keyboard-response","256","j","kofia","true","",""
"2206.3000000715256","","","","","2","html-slider-response","257","","","","4",""
"4081","triangle","kihozi,bentaha,liog,kasadpan","kasadpan","n","2","html-keyboard-response","258","n","kasadpan","true","",""
"1506.6000000238419","","","","","2","html-slider-response","259","","","","5",""
"7627","door","tena,surali,soko,nyota","surali","v","2","html-keyboard-response","260","j","soko","false","",""
"1573.7999999523163","","","","","2","html-slider-response","261","","","","2",""
"4264","fish","bala,baho,imani,buli","buli","n","2","html-keyboard-response","262","f","bala","false","",""
"1829.8000000715256","","","","","2","html-slider-response","263","","","","1",""
"8057","curtain","lisud,bulwawan,chubani,mchanga","mchanga","n","2","html-keyboard-response","264","j","chubani","false","",""
"2596.600000023842","","","","","2","html-slider-response","265","","","","3",""
"4956","flag","trekta,ndege,mkate,kawa","trekta","f","2","html-keyboard-response","266","f","trekta","true","",""
"1765.6000000238419","","","","","2","html-slider-response","267","","","","4",""
"4016","boat","agalon,hamsi,pombe,kitanda","agalon","f","2","html-keyboard-response","268","f","agalon","true","",""
"2373.100000023842","","","","","2","html-slider-response","269","","","","4",""
"4261","rose","paghalad,singizi,mwanake,amani","paghalad","f","2","html-keyboard-response","270","f","paghalad","true","",""
"2266.399999976158","","","","","2","html-slider-response","271","","","","5",""
"8882","lamp","daub,afya,bilaska,mbolea","afya","v","2","html-keyboard-response","272","n","mbolea","false","",""
"2187.2000000476837","","","","","2","html-slider-response","273","","","","1",""
"6424","cigar","ndugu,kuta,adhabu,mlango","adhabu","j","2","html-keyboard-response","274","n","mlango","false","",""
"1444.8000000715256","","","","","2","html-slider-response","275","","","","2",""
"3665","list","wingu,alizeti,kuzama,kaso","wingu","f","2","html-keyboard-response","276","f","wingu","true","",""
"2349.1999999284744","","","","","2","html-slider-response","277","","","","4",""
"5547","sheet","juuya,watu,bililhon,kamantis","bililhon","j","2","html-keyboard-response","278","j","bililhon","true","",""
"2223.6999999284744","","","","","2","html-slider-response","279","","","","3",""
"5973","picture","silya,chaki,kubwa,asin","kubwa","j","2","html-keyboard-response","280","j","kubwa","true","",""
"1742.6000000238419","","","","","2","html-slider-response","281","","","","2",""
"4134","towel","pagpalit,tembo,funzi,pito","pagpalit","f","2","html-keyboard-response","282","j","funzi","false","",""
"1828.1999999284744","","","","","2","html-slider-response","283","","","","1",""
"5675","window","nanga,kweli,kujenga,umaga","kweli","v","2","html-keyboard-response","284","v","kweli","true","",""
"1538.0999999046326","","","","","2","html-slider-response","285","","","","2",""
"9174","box","kuacha,rafiki,adui,kitande","adui","j","3","html-keyboard-response","293","j","adui","true","","4"
"3078.399999976158","","","","","3","html-slider-response","294","","","","5",""
"2963","","","","","3","html-keyboard-response","295","","","","",""
"17472","pants","pintal,haki,chuki,hari","haki","v","3","html-keyboard-response","296","v","haki","true","","4"
"2857.6999999284744","","","","","3","html-slider-response","297","","","","2",""
"2503","","","","","3","html-keyboard-response","298","","","","",""
"15943","cup","dagat,shimoni,jeraha,matumai","matumai","n","3","html-keyboard-response","299","n","matumai","true","","4"
"2938","","","","","3","html-slider-response","300","","","","1",""
"2378","","","","","3","html-keyboard-response","301","","","","",""
"5206","triangle","kasadpan,kihozi,bentaha,liog","kasadpan","f","3","html-keyboard-response","302","j","bentaha","false","","4"
"2262.899999976158","","","","","3","html-slider-response","303","","","","1",""
"3309","","","","","3","html-keyboard-response","304","","","","",""
"9770","curtain","mchanga,lisud,bulwawan,chubani","mchanga","f","3","html-keyboard-response","305","f","mchanga","true","","4"
"1809.2000000476837","","","","","3","html-slider-response","306","","","","4",""
"1127","","","","","3","html-keyboard-response","307","","","","",""
"13427","clock","kartasi,abang,mbwa,osha","mbwa","j","3","html-keyboard-response","308","j","mbwa","true","","4"
"3146.399999976158","","","","","3","html-slider-response","309","","","","3",""
"751","","","","","3","html-keyboard-response","310","","","","",""
"5391","mirror","sulagma,rangi,kanding,furaha","sulagma","f","3","html-keyboard-response","311","f","sulagma","true","","4"
"1708.3999999761581","","","","","3","html-slider-response","312","","","","2",""
"608","","","","","3","html-keyboard-response","313","","","","",""
"2079","coffin","barua,tubag,kioo,hulma","kioo","j","3","html-keyboard-response","314","j","kioo","true","","1"
"2440.1999999284744","","","","","3","html-slider-response","315","","","","5",""
"720","","","","","3","html-keyboard-response","316","","","","",""
"14029","magazine","kiti,gundi,mchawi,bahandi","kiti","f","3","html-keyboard-response","317","n","bahandi","false","","4"
"1922","","","","","3","html-slider-response","318","","","","2",""
"1276","","","","","3","html-keyboard-response","319","","","","",""
"1576","column","pundok,ufagio,dila,pala","ufagio","v","3","html-keyboard-response","320","v","ufagio","true","","1"
"1513.2000000476837","","","","","3","html-slider-response","321","","","","5",""
"849","","","","","3","html-keyboard-response","322","","","","",""
"5428","number","mundamo,shule,kengele,choori","mundamo","f","3","html-keyboard-response","323","v","shule","false","","4"
"2015.9000000953674","","","","","3","html-slider-response","324","","","","1",""
"1366","","","","","3","html-keyboard-response","325","","","","",""
"6044","rose","singizi,mwanake,paghalad,amani","paghalad","j","3","html-keyboard-response","326","j","paghalad","true","","4"
"1897.2999999523163","","","","","3","html-slider-response","327","","","","3",""
"1197","","","","","3","html-keyboard-response","328","","","","",""
"13642","eel","ishara,kunywa,kabuang,msumari","msumari","n","3","html-keyboard-response","329","n","msumari","true","","4"
"1862.6999999284744","","","","","3","html-slider-response","330","","","","2",""
"1082","","","","","3","html-keyboard-response","331","","","","",""
"4230","gift","baba,nyange,pagtawag,baso","pagtawag","j","3","html-keyboard-response","332","j","pagtawag","true","","4"
"1958.6000000238419","","","","","3","html-slider-response","333","","","","2",""
"855","","","","","3","html-keyboard-response","334","","","","",""
"1758","apple","kisu,ukame,estante,edad","kisu","f","3","html-keyboard-response","335","f","kisu","true","","1"
"1532.1000000238419","","","","","3","html-slider-response","336","","","","5",""
"846","","","","","3","html-keyboard-response","337","","","","",""
"1390","wheel","punda,bafuni,tawo,baadaye","bafuni","v","3","html-keyboard-response","338","v","bafuni","true","","1"
"1345.8000000715256","","","","","3","html-slider-response","339","","","","5",""
"621","","","","","3","html-keyboard-response","340","","","","",""
"9215","knee","mvuke,kubale,duka,bili","duka","j","3","html-keyboard-response","341","v","kubale","false","","4"
"1344.6000000238419","","","","","3","html-slider-response","342","","","","2",""
"1260","","","","","3","html-keyboard-response","343","","","","",""
"1506","basket","kumbuka,kumba,utepe,hasira","kumba","v","3","html-keyboard-response","344","v","kumba","true","","1"
"1275","","","","","3","html-slider-response","345","","","","5",""
"621","","","","","3","html-keyboard-response","346","","","","",""
"6920","park","tambok,pwani,ihalas,bunifu","bunifu","n","3","html-keyboard-response","347","n","bunifu","true","","4"
"2308.5999999046326","","","","","3","html-slider-response","348","","","","1",""
"1323","","","","","3","html-keyboard-response","349","","","","",""
"6906","finger","simu,sufuria,lima,moyo","moyo","n","3","html-keyboard-response","350","j","lima","false","","4"
"1918.3000000715256","","","","","3","html-slider-response","351","","","","2",""
"1188","","","","","3","html-keyboard-response","352","","","","",""
"6035","boat","agalon,hamsi,pombe,kitanda","agalon","f","3","html-keyboard-response","353","j","pombe","false","","4"
"2088.2000000476837","","","","","3","html-slider-response","354","","","","1",""
"1041","","","","","3","html-keyboard-response","355","","","","",""
"7279","hill","kushoto,kukimba,matumbo,sweta","matumbo","j","3","html-keyboard-response","356","j","matumbo","true","","4"
"1450.8000000715256","","","","","3","html-slider-response","357","","","","4",""
"697","","","","","3","html-keyboard-response","358","","","","",""
"5383","train","itik,dakika,sayari,mungu","sayari","j","3","html-keyboard-response","359","j","sayari","true","","4"
"1657","","","","","3","html-slider-response","360","","","","1",""
"778","","","","","3","html-keyboard-response","361","","","","",""
"3483","wolf","lugha,kaburi,ndizi,mchuzi","lugha","f","3","html-keyboard-response","362","v","kaburi","false","","4"
"1281.7000000476837","","","","","3","html-slider-response","363","","","","4",""
"2514","","","","","3","html-keyboard-response","364","","","","",""
"14317","snake","jansa,karon,mvringo,pagtukod","pagtukod","n","3","html-keyboard-response","365","n","pagtukod","true","","4"
"1718.2000000476837","","","","","3","html-slider-response","366","","","","4",""
"672","","","","","3","html-keyboard-response","367","","","","",""
"7116","tooth","kijiko,uadui,kabalaka,pahiyum","kabalaka","j","3","html-keyboard-response","368","j","kabalaka","true","","4"
"2224.7000000476837","","","","","3","html-slider-response","369","","","","2",""
"1038","","","","","3","html-keyboard-response","370","","","","",""
"4415","notebook","kemia,msitu,kila,mdudu","kemia","f","3","html-keyboard-response","371","j","kila","false","","4"
"1854","","","","","3","html-slider-response","372","","","","2",""
"1387","","","","","3","html-keyboard-response","373","","","","",""
"5334","flag","ndege,mkate,trekta,kawa","trekta","j","3","html-keyboard-response","374","v","mkate","false","","4"
"1321","","","","","3","html-slider-response","375","","","","2",""
"1349","","","","","3","html-keyboard-response","376","","","","",""
"3677","squirrel","mahugaw,ukweli,kichwa,hofu","hofu","n","3","html-keyboard-response","377","n","hofu","true","","4"
"1235.8000000715256","","","","","3","html-slider-response","378","","","","4",""
"677","","","","","3","html-keyboard-response","379","","","","",""
"5828","door","tena,soko,nyota,surali","surali","n","3","html-keyboard-response","380","n","surali","true","","4"
"1823.8999999761581","","","","","3","html-slider-response","381","","","","1",""
"976","","","","","3","html-keyboard-response","382","","","","",""
"20392","salmon","mzungu,sensilyo,seri,baharia","sensilyo","v","3","html-keyboard-response","383","j","seri","false","","4"
"1694.3000000715256","","","","","3","html-slider-response","384","","","","2",""
"1302","","","","","3","html-keyboard-response","385","","","","",""
"13949","shoulder","kelele,ndaniya,guruwe,mkuu","mkuu","n","3","html-keyboard-response","386","j","guruwe","false","","4"
"1977","","","","","3","html-slider-response","387","","","","1",""
"1121","","","","","3","html-keyboard-response","388","","","","",""
"11895","lamp","afya,daub,bilaska,mbolea","afya","f","3","html-keyboard-response","389","j","bilaska","false","","4"
"3592.2000000476837","","","","","3","html-slider-response","390","","","","3",""
"1102","","","","","3","html-keyboard-response","391","","","","",""
"1388","shelf","bungtod,kadaot,awit,pamahaw","pamahaw","n","3","html-keyboard-response","392","n","pamahaw","true","","1"
"1463.2000000476837","","","","","3","html-slider-response","393","","","","5",""
"600","","","","","3","html-keyboard-response","394","","","","",""
"9472","human","bado,kikapu,tinapay,punguza","tinapay","j","3","html-keyboard-response","395","j","tinapay","true","","4"
"2910.399999976158","","","","","3","html-slider-response","396","","","","3",""
"1344","","","","","3","html-keyboard-response","397","","","","",""
"14388","towel","tembo,funzi,pagpalit,pito","pagpalit","j","3","html-keyboard-response","398","j","pagpalit","true","","4"
"1442.3000000715256","","","","","3","html-slider-response","399","","","","4",""
"518","","","","","3","html-keyboard-response","400","","","","",""
"11423","cat","neyemba,paghukom,baki,akili","paghukom","v","3","html-keyboard-response","401","v","paghukom","true","","4"
"1958.3999999761581","","","","","3","html-slider-response","402","","","","5",""
"1111","","","","","3","html-keyboard-response","403","","","","",""
"5004","spider","bunyag,mkboa,kamwe,atop","kamwe","j","3","html-keyboard-response","404","j","kamwe","true","","4"
"1289.5","","","","","3","html-slider-response","405","","","","2",""
"840","","","","","3","html-keyboard-response","406","","","","",""
"5509","window","nanga,kujenga,kweli,umaga","kweli","j","3","html-keyboard-response","407","j","kweli","true","","4"
"1330.2999999523163","","","","","3","html-slider-response","408","","","","1",""
"700","","","","","3","html-keyboard-response","409","","","","",""
"1503","woman","bandari,pagtabon,bituin,kovuli","pagtabon","v","3","html-keyboard-response","410","v","pagtabon","true","","1"
"1122.3999999761581","","","","","3","html-slider-response","411","","","","5",""
"651","","","","","3","html-keyboard-response","412","","","","",""
"19919","giraffe","daraja,jumatu,hangyo,mahitabo","mahitabo","n","3","html-keyboard-response","413","n","mahitabo","true","","4"
"1532.1000000238419","","","","","3","html-slider-response","414","","","","4",""
"469","","","","","3","html-keyboard-response","415","","","","",""
"3033","elephant","petye,kito,pagduol,suka","kito","v","3","html-keyboard-response","416","v","kito","true","","4"
"2078.100000023842","","","","","3","html-slider-response","417","","","","2",""
"539","","","","","3","html-keyboard-response","418","","","","",""
"3142","cave","ganti,maisha,kesho,nyundo","kesho","j","3","html-keyboard-response","419","f","ganti","false","","4"
"1693.2999999523163","","","","","3","html-slider-response","420","","","","1",""
"416","","","","","3","html-keyboard-response","421","","","","",""
"4363","bread","kaili,dari,dizeli,bugas","dari","v","3","html-keyboard-response","422","n","bugas","false","","4"
"1720.2999999523163","","","","","3","html-slider-response","423","","","","1",""
"3004","","","","","3","html-keyboard-response","424","","","","",""
"5024","stone","ulimwengu,mkasi,asili,wingi","wingi","n","3","html-keyboard-response","425","n","wingi","true","","4"
"1783.7999999523163","","","","","3","html-slider-response","426","","","","2",""
"8859","","","","","3","html-keyboard-response","427","","","","",""
"3389","donkey","elfu,bloke,lalake,rombus","elfu","f","3","html-keyboard-response","428","f","elfu","true","","4"
"7876.600000023842","","","","","3","html-slider-response","429","","","","3",""
"5712","","","","","3","html-keyboard-response","430","","","","",""
"3014","bridge","daima,ngono,panya,sahani","sahani","n","3","html-keyboard-response","431","j","panya","false","","4"
"1702.7000000476837","","","","","3","html-slider-response","432","","","","2",""
"1312","","","","","3","html-keyboard-response","433","","","","",""
"5141","bonfire","mwezi,mfuko,goti,kusanya","goti","j","3","html-keyboard-response","434","v","mfuko","false","","4"
"1488.6999999284744","","","","","3","html-slider-response","435","","","","4",""
"1298","","","","","3","html-keyboard-response","436","","","","",""
"6189","book","kuhesa,picha,mali,mara","mali","j","3","html-keyboard-response","437","v","picha","false","","4"
"1634","","","","","3","html-slider-response","438","","","","2",""
"586","","","","","3","html-keyboard-response","439","","","","",""
"8885","fish","bala,buli,baho,imani","buli","v","3","html-keyboard-response","440","v","buli","true","","4"
"1896","","","","","3","html-slider-response","441","","","","4",""
"1224","","","","","3","html-keyboard-response","442","","","","",""
"14290","spoon","betri,nzuri,pagsulod,ngazi","pagsulod","j","3","html-keyboard-response","443","j","pagsulod","true","","4"
"2194.399999976158","","","","","3","html-slider-response","444","","","","3",""
"1167","","","","","3","html-keyboard-response","445","","","","",""
"7924","scissors","duga,mtawa,tanuri,suga","tanuri","j","3","html-keyboard-response","446","j","tanuri","true","","4"
"1928.6000000238419","","","","","3","html-slider-response","447","","","","4",""
"1245","","","","","3","html-keyboard-response","448","","","","",""
"6533","page","wimbo,wakala,ishiri,skina","wimbo","f","3","html-keyboard-response","449","v","wakala","false","","4"
"1179","","","","","3","html-slider-response","450","","","","2",""
"959","","","","","3","html-keyboard-response","451","","","","",""
"1530","nose","sehemu,gubat,kopa,kidole","sehemu","f","3","html-keyboard-response","452","f","sehemu","true","","1"
"1611.1000000238419","","","","","3","html-slider-response","453","","","","5",""
"1482","","","","","3","html-keyboard-response","454","","","","",""
"25683","ceiling","maua,kugita,kawaida,rayna","maua","f","3","html-keyboard-response","455","v","kugita","false","","4"
"1804.5999999046326","","","","","3","html-slider-response","456","","","","1",""
"583","","","","","3","html-keyboard-response","457","","","","",""
"4353","bucket","kiatu,baga,ijayo,init","kiatu","f","3","html-keyboard-response","458","n","init","false","","4"
"3071.600000023842","","","","","3","html-slider-response","459","","","","2",""
"481","","","","","3","html-keyboard-response","460","","","","",""
"1541","berry","kofia,abogado,nogozi,kinywa","kofia","f","3","html-keyboard-response","461","f","kofia","true","","1"
"1334.0999999046326","","","","","3","html-slider-response","462","","","","5",""
"539","","","","","3","html-keyboard-response","463","","","","",""
"1167","mother","kahawa,mbuzi,jokofu,babaye","babaye","n","3","html-keyboard-response","464","n","babaye","true","","1"
"1324.5999999046326","","","","","3","html-slider-response","465","","","","5",""
"566","","","","","3","html-keyboard-response","466","","","","",""
"14482","mosquito","martilyo,isda,taras,gutom","martilyo","f","3","html-keyboard-response","467","j","taras","false","","4"
"1536","","","","","3","html-slider-response","468","","","","2",""
"454","","","","","3","html-keyboard-response","469","","","","",""
"11868","perfume","katuyoan,bino,sungura,ndogo","katuyoan","f","3","html-keyboard-response","470","j","sungura","false","","4"
"2313.6999999284744","","","","","3","html-slider-response","471","","","","2",""
"1213","","","","","3","html-keyboard-response","472","","","","",""
"4846","sheet","juuya,watu,kamantis,bililhon","bililhon","n","3","html-keyboard-response","473","v","watu","false","","4"
"1635.9000000953674","","","","","3","html-slider-response","474","","","","2",""
"1049","","","","","3","html-keyboard-response","475","","","","",""
"1422","puppet","mazishi,napulo,lamok,godoro","mazishi","f","3","html-keyboard-response","476","f","mazishi","true","","1"
"1270.8999999761581","","","","","3","html-slider-response","477","","","","5",""
"591","","","","","3","html-keyboard-response","478","","","","",""
"3283","poster","nchi,madungog,fedha,kasuko","madungog","v","3","html-keyboard-response","479","v","madungog","true","","4"
"1334.7999999523163","","","","","3","html-slider-response","480","","","","5",""
"877","","","","","3","html-keyboard-response","481","","","","",""
"4597","music","mraba,mageho,tumbo,baiski","baiski","n","3","html-keyboard-response","482","j","tumbo","false","","4"
"1907.1000000238419","","","","","3","html-slider-response","483","","","","4",""
"772","","","","","3","html-keyboard-response","484","","","","",""
"5628","key","miaka,goma,chombo,ahos","chombo","j","3","html-keyboard-response","485","j","chombo","true","","4"
"2043.1000000238419","","","","","3","html-slider-response","486","","","","3",""
"828","","","","","3","html-keyboard-response","487","","","","",""
"8686","sock","mamba,ndoora,kimysa,mtirka","mamba","f","3","html-keyboard-response","488","f","mamba","true","","4"
"2265.2000000476837","","","","","3","html-slider-response","489","","","","3",""
"519","","","","","3","html-keyboard-response","490","","","","",""
"8999","marker","mapafu,salita,maji,atay","maji","j","3","html-keyboard-response","491","f","mapafu","false","","4"
"1994.6000000238419","","","","","3","html-slider-response","492","","","","2",""
"475","","","","","3","html-keyboard-response","493","","","","",""
"3198","office","hazini,leso,yatima,kuna","leso","v","3","html-keyboard-response","494","j","yatima","false","","4"
"2060","","","","","3","html-slider-response","495","","","","3",""
"923","","","","","3","html-keyboard-response","496","","","","",""
"13106","shoe","nyeusi,hatua,kama,uyoga","uyoga","n","3","html-keyboard-response","497","n","uyoga","true","","4"
"1902.5","","","","","3","html-slider-response","498","","","","4",""
"1088","","","","","3","html-keyboard-response","499","","","","",""
"13456","cop","bustani,jikoni,bakus,mechezo","mechezo","n","3","html-keyboard-response","500","j","bakus","false","","4"
"1412.6999999284744","","","","","3","html-slider-response","501","","","","2",""
"863","","","","","3","html-keyboard-response","502","","","","",""
"7920","bank","kudhibi,tualya,silingan,ofisi","silingan","j","3","html-keyboard-response","503","f","kudhibi","false","","4"
"2103.3000000715256","","","","","3","html-slider-response","504","","","","2",""
"837","","","","","3","html-keyboard-response","505","","","","",""
"1503","letter","filimbi,chuma,kifua,uhuru","kifua","j","3","html-keyboard-response","506","j","kifua","true","","1"
"1187.2999999523163","","","","","3","html-slider-response","507","","","","5",""
"548","","","","","3","html-keyboard-response","508","","","","",""
"1469","dog","lubi,bahari,washia,kalamu","bahari","v","3","html-keyboard-response","509","v","bahari","true","","1"
"1696.2000000476837","","","","","3","html-slider-response","510","","","","5",""
"592","","","","","3","html-keyboard-response","511","","","","",""
"6306","shop","nopya,kerida,samaki,ndezu","samaki","j","3","html-keyboard-response","512","j","samaki","true","","4"
"2079.9000000953674","","","","","3","html-slider-response","513","","","","2",""
"461","","","","","3","html-keyboard-response","514","","","","",""
"5998","flower","bega,tamasha,lobo,usiku","bega","f","3","html-keyboard-response","515","v","tamasha","false","","4"
"1600.3000000715256","","","","","3","html-slider-response","516","","","","4",""
"787","","","","","3","html-keyboard-response","517","","","","",""
"1105","cigar","ndugu,kuta,mlango,adhabu","adhabu","n","3","html-keyboard-response","518","n","adhabu","true","","1"
"1197","","","","","3","html-slider-response","519","","","","5",""
"496","","","","","3","html-keyboard-response","520","","","","",""
"8537","hammer","napakyas,mekno,kitovu,layag","napakyas","f","3","html-keyboard-response","521","f","napakyas","true","","4"
"2288.8000000715256","","","","","3","html-slider-response","522","","","","4",""
"332","","","","","3","html-keyboard-response","523","","","","",""
"6508","fork","baboy,mgonjwa,paghago,gorisi","mgonjwa","v","3","html-keyboard-response","524","j","paghago","false","","4"
"1724.2999999523163","","","","","3","html-slider-response","525","","","","2",""
"462","","","","","3","html-keyboard-response","526","","","","",""
"1409","sun","basi,bendi,luha,uongo","basi","f","3","html-keyboard-response","527","f","basi","true","","1"
"1187.7000000476837","","","","","3","html-slider-response","528","","","","5",""
"434","","","","","3","html-keyboard-response","529","","","","",""
"3622","ladder","mashua,mwanga,kamba,pangalan","pangalan","n","3","html-keyboard-response","530","n","pangalan","true","","4"
"3547.399999976158","","","","","3","html-slider-response","531","","","","4",""
"513","","","","","3","html-keyboard-response","532","","","","",""
"1282","banana","kazi,kasamok,hagdan,twai","kazi","f","3","html-keyboard-response","533","f","kazi","true","","1"
"1468.5","","","","","3","html-slider-response","534","","","","5",""
"371","","","","","3","html-keyboard-response","535","","","","",""
"5667","pudding","abug,mpishi,aibu,iring","aibu","j","3","html-keyboard-response","536","j","aibu","true","","4"
"1727.5","","","","","3","html-slider-response","537","","","","2",""
"531","","","","","3","html-keyboard-response","538","","","","",""
"5051","body","tindashan,nyundu,jibini,kununa","tindashan","f","3","html-keyboard-response","539","f","tindashan","true","","4"
"1955.8999999761581","","","","","3","html-slider-response","540","","","","3",""
"904","","","","","3","html-keyboard-response","541","","","","",""
"5858","bed","kalipay,haraka,mapintas,starehe","mapintas","j","3","html-keyboard-response","542","f","kalipay","false","","4"
"1752.1000000238419","","","","","3","html-slider-response","543","","","","3",""
"547","","","","","3","html-keyboard-response","544","","","","",""
"7340","tissue","lamigas,ugomvi,kisiwa,katika","ugomvi","v","3","html-keyboard-response","545","f","lamigas","false","","4"
"2528.3000000715256","","","","","3","html-slider-response","546","","","","1",""
"1144","","","","","3","html-keyboard-response","547","","","","",""
"9595","candle","gabi,geza,farasi,kupanda","geza","v","3","html-keyboard-response","548","v","geza","true","","4"
"1809.3999999761581","","","","","3","html-slider-response","549","","","","4",""
"832","","","","","3","html-keyboard-response","550","","","","",""
"1368","tomato","chupi,chupa,mvua,takatak","mvua","j","3","html-keyboard-response","551","j","mvua","true","","1"
"2481.4000000953674","","","","","3","html-slider-response","552","","","","5",""
"495","","","","","3","html-keyboard-response","553","","","","",""
"12292","list","alizeti,kuzama,kaso,wingu","wingu","n","3","html-keyboard-response","554","n","wingu","true","","4"
"1740.2000000476837","","","","","3","html-slider-response","555","","","","3",""
"757","","","","","3","html-keyboard-response","556","","","","",""
"3118","olive","bata,jiwe,siagi,welder","jiwe","v","3","html-keyboard-response","557","v","jiwe","true","","4"
"1637.1999999284744","","","","","3","html-slider-response","558","","","","4",""
"533","","","","","3","html-keyboard-response","559","","","","",""
"1283","picture","silya,chaki,kubwa,asin","kubwa","j","3","html-keyboard-response","560","j","kubwa","true","","1"
"1314.3999999761581","","","","","3","html-slider-response","561","","","","5",""
"533","","","","","3","html-keyboard-response","562","","","","",""
"8932","page","wakala,wimbo,ishiri,skina","wimbo","v","4","html-keyboard-response","888","f","wakala","false","",""
"5006.799999952316","","","","","4","html-slider-response","889","","","","2",""
"4314","sheet","bililhon,juuya,watu,kamantis","bililhon","f","4","html-keyboard-response","890","n","kamantis","false","",""
"1738","","","","","4","html-slider-response","891","","","","4",""
"2102","ladder","pangalan,mashua,mwanga,kamba","pangalan","f","4","html-keyboard-response","892","f","pangalan","true","",""
"1201.7000000476837","","","","","4","html-slider-response","893","","","","5",""
"4293","door","tena,surali,soko,nyota","surali","v","4","html-keyboard-response","894","v","surali","true","",""
"1613.8000000715256","","","","","4","html-slider-response","895","","","","2",""
"3701","spider","bunyag,kamwe,mkboa,atop","kamwe","v","4","html-keyboard-response","896","v","kamwe","true","",""
"1644.3000000715256","","","","","4","html-slider-response","897","","","","4",""
"4546","picture","silya,kubwa,chaki,asin","kubwa","v","4","html-keyboard-response","898","n","asin","false","",""
"1481.2000000476837","","","","","4","html-slider-response","899","","","","2",""
"2270","boat","agalon,hamsi,pombe,kitanda","agalon","f","4","html-keyboard-response","900","f","agalon","true","",""
"1178.7999999523163","","","","","4","html-slider-response","901","","","","5",""
"4801","donkey","elfu,bloke,lalake,rombus","elfu","f","4","html-keyboard-response","902","f","elfu","true","",""
"1142.2000000476837","","","","","4","html-slider-response","903","","","","4",""
"4145","book","kuhesa,picha,mara,mali","mali","n","4","html-keyboard-response","904","j","mara","false","",""
"1179.6000000238419","","","","","4","html-slider-response","905","","","","4",""
"4746","cup","dagat,matumai,shimoni,jeraha","matumai","v","4","html-keyboard-response","906","v","matumai","true","",""
"2326.600000023842","","","","","4","html-slider-response","907","","","","3",""
"3055","sun","bendi,luha,uongo,basi","basi","n","4","html-keyboard-response","908","f","bendi","false","",""
"1143.5999999046326","","","","","4","html-slider-response","909","","","","2",""
"5257","pudding","aibu,abug,mpishi,iring","aibu","f","4","html-keyboard-response","910","f","aibu","true","",""
"1394.6000000238419","","","","","4","html-slider-response","911","","","","4",""
"2443","human","bado,kikapu,tinapay,punguza","tinapay","j","4","html-keyboard-response","912","j","tinapay","true","",""
"1193.6000000238419","","","","","4","html-slider-response","913","","","","5",""
"2508","squirrel","mahugaw,ukweli,kichwa,hofu","hofu","n","4","html-keyboard-response","914","n","hofu","true","",""
"1174.5","","","","","4","html-slider-response","915","","","","5",""
"6750","park","tambok,pwani,ihalas,bunifu","bunifu","n","4","html-keyboard-response","916","n","bunifu","true","",""
"2214.4000000953674","","","","","4","html-slider-response","917","","","","2",""
"4255","poster","nchi,madungog,fedha,kasuko","madungog","v","4","html-keyboard-response","918","v","madungog","true","",""
"1259.1000000238419","","","","","4","html-slider-response","919","","","","4",""
"2577","wolf","kaburi,ndizi,lugha,mchuzi","lugha","j","4","html-keyboard-response","920","j","lugha","true","",""
"1425.6000000238419","","","","","4","html-slider-response","921","","","","5",""
"4454","cat","neyemba,baki,paghukom,akili","paghukom","j","4","html-keyboard-response","922","j","paghukom","true","",""
"1290.8999999761581","","","","","4","html-slider-response","923","","","","5",""
"5974","fish","buli,bala,baho,imani","buli","f","4","html-keyboard-response","924","f","buli","true","",""
"2218.399999976158","","","","","4","html-slider-response","925","","","","4",""
"3260","tooth","kabalaka,kijiko,uadui,pahiyum","kabalaka","f","4","html-keyboard-response","926","n","pahiyum","false","",""
"2030.2000000476837","","","","","4","html-slider-response","927","","","","3",""
"6836","cave","ganti,kesho,maisha,nyundo","kesho","v","4","html-keyboard-response","928","v","kesho","true","",""
"1520.2999999523163","","","","","4","html-slider-response","929","","","","2",""
"8325","lamp","daub,bilaska,afya,mbolea","afya","j","4","html-keyboard-response","930","n","mbolea","false","",""
"2587.899999976158","","","","","4","html-slider-response","931","","","","1",""
"6164","banana","kazi,kasamok,hagdan,twai","kazi","f","4","html-keyboard-response","932","f","kazi","true","",""
"1497.5","","","","","4","html-slider-response","933","","","","2",""
"6202","bonfire","mwezi,mfuko,goti,kusanya","goti","j","4","html-keyboard-response","934","j","goti","true","",""
"2296.7000000476837","","","","","4","html-slider-response","935","","","","4",""
"4775","cop","bustani,jikoni,bakus,mechezo","mechezo","n","4","html-keyboard-response","936","n","mechezo","true","",""
"2748.7000000476837","","","","","4","html-slider-response","937","","","","3",""
"4697","marker","mapafu,salita,maji,atay","maji","j","4","html-keyboard-response","938","j","maji","true","",""
"1674.8999999761581","","","","","4","html-slider-response","939","","","","2",""
"7719","window","nanga,kweli,kujenga,umaga","kweli","v","4","html-keyboard-response","940","v","kweli","true","",""
"1827.1000000238419","","","","","4","html-slider-response","941","","","","3",""
"3986","body","tindashan,nyundu,jibini,kununa","tindashan","f","4","html-keyboard-response","942","f","tindashan","true","",""
"1834.5","","","","","4","html-slider-response","943","","","","5",""
"6803","apple","ukame,estante,edad,kisu","kisu","n","4","html-keyboard-response","944","n","kisu","true","",""
"2307.7000000476837","","","","","4","html-slider-response","945","","","","1",""
"6117","salmon","mzungu,seri,sensilyo,baharia","sensilyo","j","4","html-keyboard-response","946","f","mzungu","false","",""
"1758.8999999761581","","","","","4","html-slider-response","947","","","","3",""
"3208","bed","mapintas,kalipay,haraka,starehe","mapintas","f","4","html-keyboard-response","948","v","kalipay","false","",""
"1573","","","","","4","html-slider-response","949","","","","4",""
"4005","berry","abogado,nogozi,kinywa,kofia","kofia","n","4","html-keyboard-response","950","n","kofia","true","",""
"1398","","","","","4","html-slider-response","951","","","","5",""
"4030","mirror","rangi,sulagma,kanding,furaha","sulagma","v","4","html-keyboard-response","952","v","sulagma","true","",""
"1260","","","","","4","html-slider-response","953","","","","4",""
"2581","flag","ndege,mkate,kawa,trekta","trekta","n","4","html-keyboard-response","954","n","trekta","true","",""
"1264.0999999046326","","","","","4","html-slider-response","955","","","","5",""
"12019","shoulder","kelele,ndaniya,mkuu,guruwe","mkuu","j","4","html-keyboard-response","956","j","mkuu","true","",""
"1224.1000000238419","","","","","4","html-slider-response","957","","","","2",""
"3050","tissue","ugomvi,lamigas,kisiwa,katika","ugomvi","f","4","html-keyboard-response","958","v","lamigas","false","",""
"3791.399999976158","","","","","4","html-slider-response","959","","","","3",""
"27144","notebook","msitu,kemia,kila,mdudu","kemia","v","4","html-keyboard-response","960","j","kila","false","",""
"1894","","","","","4","html-slider-response","961","","","","2",""
"6150","snake","pagtukod,jansa,karon,mvringo","pagtukod","f","4","html-keyboard-response","962","j","karon","false","",""
"4278.699999928474","","","","","4","html-slider-response","963","","","","3",""
"6269","finger","moyo,simu,sufuria,lima","moyo","f","4","html-keyboard-response","964","n","lima","false","",""
"1263.5","","","","","4","html-slider-response","965","","","","4",""
"28287","basket","kumba,kumbuka,utepe,hasira","kumba","f","4","html-keyboard-response","966","f","kumba","true","",""
"2040.7000000476837","","","","","4","html-slider-response","967","","","","5",""
"16168","curtain","lisud,bulwawan,chubani,mchanga","mchanga","n","4","html-keyboard-response","968","n","mchanga","true","",""
"1249.6999999284744","","","","","4","html-slider-response","969","","","","4",""
"9579","perfume","bino,sungura,ndogo,katuyoan","katuyoan","n","4","html-keyboard-response","970","j","ndogo","false","",""
"2166.5","","","","","4","html-slider-response","971","","","","1",""
"6561","key","chombo,miaka,goma,ahos","chombo","f","4","html-keyboard-response","972","v","miaka","false","",""
"1526.1999999284744","","","","","4","html-slider-response","973","","","","2",""
"4479","olive","jiwe,bata,siagi,welder","jiwe","f","4","html-keyboard-response","974","f","jiwe","true","",""
"1218.7000000476837","","","","","4","html-slider-response","975","","","","5",""
"4926","rose","singizi,mwanake,amani,paghalad","paghalad","n","4","html-keyboard-response","976","n","paghalad","true","",""
"1483.1999999284744","","","","","4","html-slider-response","977","","","","4",""
"4849","bridge","daima,ngono,panya,sahani","sahani","n","4","html-keyboard-response","978","n","sahani","true","",""
"1706.0999999046326","","","","","4","html-slider-response","979","","","","3",""
"7259","hill","kushoto,kukimba,matumbo,sweta","matumbo","j","4","html-keyboard-response","980","v","kukimba","false","",""
"1431.5999999046326","","","","","4","html-slider-response","981","","","","2",""
"6584","letter","filimbi,kifua,chuma,uhuru","kifua","v","4","html-keyboard-response","982","j","chuma","false","",""
"1302.1000000238419","","","","","4","html-slider-response","983","","","","2",""
"1973","sock","ndoora,kimysa,mamba,mtirka","mamba","j","4","html-keyboard-response","984","j","mamba","true","",""
"1613.3999999761581","","","","","4","html-slider-response","985","","","","5",""
"6577","fork","baboy,mgonjwa,paghago,gorisi","mgonjwa","v","4","html-keyboard-response","986","v","mgonjwa","true","",""
"1530","","","","","4","html-slider-response","987","","","","3",""
"9017","box","adui,kuacha,rafiki,kitande","adui","f","4","html-keyboard-response","988","v","kuacha","false","",""
"1549.7000000476837","","","","","4","html-slider-response","989","","","","3",""
"2619","gift","baba,pagtawag,nyange,baso","pagtawag","v","4","html-keyboard-response","990","v","pagtawag","true","",""
"1379.1000000238419","","","","","4","html-slider-response","991","","","","5",""
"29743","bucket","baga,ijayo,kiatu,init","kiatu","j","4","html-keyboard-response","992","n","init","false","",""
"1581.6000000238419","","","","","4","html-slider-response","993","","","","2",""
"3184","shop","nopya,samaki,kerida,ndezu","samaki","v","4","html-keyboard-response","994","v","samaki","true","",""
"1990.4000000953674","","","","","4","html-slider-response","995","","","","3",""
"21171","puppet","napulo,mazishi,lamok,godoro","mazishi","v","4","html-keyboard-response","996","v","mazishi","true","",""
"1988.5","","","","","4","html-slider-response","997","","","","2",""
"8896","nose","gubat,kopa,sehemu,kidole","sehemu","j","4","html-keyboard-response","998","v","kopa","false","",""
"1905.2999999523163","","","","","4","html-slider-response","999","","","","3",""
"2723","music","mraba,mageho,tumbo,baiski","baiski","n","4","html-keyboard-response","1000","j","tumbo","false","",""
"1795.5","","","","","4","html-slider-response","1001","","","","4",""
"4765","dog","lubi,washia,kalamu,bahari","bahari","n","4","html-keyboard-response","1002","n","bahari","true","",""
"1538.1000000238419","","","","","4","html-slider-response","1003","","","","4",""
"7955","eel","ishara,msumari,kunywa,kabuang","msumari","v","4","html-keyboard-response","1004","n","kabuang","false","",""
"1263.3000000715256","","","","","4","html-slider-response","1005","","","","2",""
"6998","number","mundamo,shule,kengele,choori","mundamo","f","4","html-keyboard-response","1006","f","mundamo","true","",""
"1929.1999999284744","","","","","4","html-slider-response","1007","","","","3",""
"11443","tomato","chupi,chupa,mvua,takatak","mvua","j","4","html-keyboard-response","1008","j","mvua","true","",""
"1298.1000000238419","","","","","4","html-slider-response","1009","","","","5",""
"4742","coffin","kioo,barua,tubag,hulma","kioo","f","4","html-keyboard-response","1010","j","tubag","false","",""
"1847.3999999761581","","","","","4","html-slider-response","1011","","","","4",""
"3041","knee","mvuke,duka,kubale,bili","duka","v","4","html-keyboard-response","1012","n","bili","false","",""
"1149.1999999284744","","","","","4","html-slider-response","1013","","","","4",""
"7100","woman","pagtabon,bandari,bituin,kovuli","pagtabon","f","4","html-keyboard-response","1014","f","pagtabon","true","",""
"1173.2000000476837","","","","","4","html-slider-response","1015","","","","4",""
"3972","stone","wingi,ulimwengu,mkasi,asili","wingi","f","4","html-keyboard-response","1016","n","asili","false","",""
"1255.6000000238419","","","","","4","html-slider-response","1017","","","","2",""
"14384","bread","dari,kaili,dizeli,bugas","dari","f","4","html-keyboard-response","1018","f","dari","true","",""
"1369.2999999523163","","","","","4","html-slider-response","1019","","","","2",""
"9473","triangle","kihozi,bentaha,kasadpan,liog","kasadpan","j","4","html-keyboard-response","1020","j","kasadpan","true","",""
"1318.2000000476837","","","","","4","html-slider-response","1021","","","","4",""
"9001","scissors","duga,mtawa,tanuri,suga","tanuri","j","4","html-keyboard-response","1022","j","tanuri","true","",""
"1483","","","","","4","html-slider-response","1023","","","","5",""
"7360","giraffe","daraja,jumatu,mahitabo,hangyo","mahitabo","j","4","html-keyboard-response","1024","j","mahitabo","true","",""
"3549.2000000476837","","","","","4","html-slider-response","1025","","","","4",""
"27384","flower","tamasha,lobo,usiku,bega","bega","n","4","html-keyboard-response","1026","f","tamasha","false","",""
"2448.2999999523163","","","","","4","html-slider-response","1027","","","","3",""
"9139","candle","gabi,farasi,geza,kupanda","geza","j","4","html-keyboard-response","1028","j","geza","true","",""
"1456.6000000238419","","","","","4","html-slider-response","1029","","","","4",""
"3860","mother","kahawa,mbuzi,babaye,jokofu","babaye","j","4","html-keyboard-response","1030","j","babaye","true","",""
"1252.4000000953674","","","","","4","html-slider-response","1031","","","","5",""
"18017","towel","tembo,pagpalit,funzi,pito","pagpalit","v","4","html-keyboard-response","1032","v","pagpalit","true","",""
"1570.6999999284744","","","","","4","html-slider-response","1033","","","","4",""
"5237","elephant","petye,pagduol,suka,kito","kito","n","4","html-keyboard-response","1034","n","kito","true","",""
"2327","","","","","4","html-slider-response","1035","","","","2",""
"8354","shelf","pamahaw,bungtod,kadaot,awit","pamahaw","f","4","html-keyboard-response","1036","f","pamahaw","true","",""
"1490.3999999761581","","","","","4","html-slider-response","1037","","","","4",""
"3824","mosquito","isda,taras,martilyo,gutom","martilyo","j","4","html-keyboard-response","1038","j","martilyo","true","",""
"1113.7000000476837","","","","","4","html-slider-response","1039","","","","4",""
"3125","column","ufagio,pundok,dila,pala","ufagio","f","4","html-keyboard-response","1040","v","pundok","false","",""
"1535","","","","","4","html-slider-response","1041","","","","3",""
"2952","pants","haki,pintal,chuki,hari","haki","f","4","html-keyboard-response","1042","n","hari","false","",""
"1655.1000000238419","","","","","4","html-slider-response","1043","","","","3",""
"5458","list","alizeti,kuzama,kaso,wingu","wingu","n","4","html-keyboard-response","1044","n","wingu","true","",""
"2795.6999999284744","","","","","4","html-slider-response","1045","","","","2",""
"8693","bank","kudhibi,tualya,ofisi,silingan","silingan","n","4","html-keyboard-response","1046","j","ofisi","false","",""
"2563.600000023842","","","","","4","html-slider-response","1047","","","","3",""
"7150","clock","kartasi,abang,mbwa,osha","mbwa","j","4","html-keyboard-response","1048","j","mbwa","true","",""
"1359","","","","","4","html-slider-response","1049","","","","4",""
"9581","ceiling","kugita,kawaida,maua,rayna","maua","j","4","html-keyboard-response","1050","j","maua","true","",""
"1837.7999999523163","","","","","4","html-slider-response","1051","","","","5",""
"18956","train","itik,dakika,mungu,sayari","sayari","n","4","html-keyboard-response","1052","j","mungu","false","",""
"1860.3000000715256","","","","","4","html-slider-response","1053","","","","3",""
"7180","magazine","kiti,gundi,mchawi,bahandi","kiti","f","4","html-keyboard-response","1054","f","kiti","true","",""
"2070.2999999523163","","","","","4","html-slider-response","1055","","","","3",""
"7484","office","hazini,yatima,kuna,leso","leso","n","4","html-keyboard-response","1056","v","yatima","false","",""
"1505.6000000238419","","","","","4","html-slider-response","1057","","","","2",""
"4315","wheel","punda,tawo,bafuni,baadaye","bafuni","j","4","html-keyboard-response","1058","j","bafuni","true","",""
"1536.0999999046326","","","","","4","html-slider-response","1059","","","","4",""
"11180","spoon","betri,pagsulod,nzuri,ngazi","pagsulod","v","4","html-keyboard-response","1060","v","pagsulod","true","",""
"1387.5","","","","","4","html-slider-response","1061","","","","5",""
"7701","hammer","mekno,kitovu,napakyas,layag","napakyas","j","4","html-keyboard-response","1062","j","napakyas","true","",""
"1841.8999999761581","","","","","4","html-slider-response","1063","","","","3",""
"19142","cigar","adhabu,ndugu,kuta,mlango","adhabu","f","4","html-keyboard-response","1064","f","adhabu","true","",""
"2388.600000023842","","","","","4","html-slider-response","1065","","","","4",""
"7960","shoe","nyeusi,uyoga,hatua,kama","uyoga","v","4","html-keyboard-response","1066","j","hatua","false","",""
"3241.100000023842","","","","","4","html-slider-response","1067","","","","3",""
"2856","list","wingu,alizeti,kuzama,kaso","wingu","f","5","html-keyboard-response","1069","f","wingu","true","",""
"1321.6000000238419","","","","","5","html-slider-response","1070","","","","5",""
"7829","number","shule,kengele,choori,mundamo","mundamo","n","5","html-keyboard-response","1071","n","mundamo","true","",""
"3451.100000023842","","","","","5","html-slider-response","1072","","","","4",""
"18903","apple","ukame,estante,kisu,edad","kisu","j","5","html-keyboard-response","1073","j","kisu","true","",""
"2073.5","","","","","5","html-slider-response","1074","","","","3",""
"2147","knee","duka,mvuke,kubale,bili","duka","f","5","html-keyboard-response","1075","n","bili","false","",""
"1113.8999999761581","","","","","5","html-slider-response","1076","","","","5",""
"3855","tooth","kijiko,kabalaka,uadui,pahiyum","kabalaka","v","5","html-keyboard-response","1077","n","pahiyum","false","",""
"1641.9000000953674","","","","","5","html-slider-response","1078","","","","4",""
"1806","berry","kofia,abogado,nogozi,kinywa","kofia","f","5","html-keyboard-response","1079","f","kofia","true","",""
"1257","","","","","5","html-slider-response","1080","","","","5",""
"7262","bridge","daima,ngono,sahani,panya","sahani","j","5","html-keyboard-response","1081","j","sahani","true","",""
"1200","","","","","5","html-slider-response","1082","","","","4",""
"14374","perfume","bino,katuyoan,sungura,ndogo","katuyoan","v","5","html-keyboard-response","1083","j","sungura","false","",""
"2175.2999999523163","","","","","5","html-slider-response","1084","","","","3",""
"2042","ladder","mashua,mwanga,pangalan,kamba","pangalan","j","5","html-keyboard-response","1085","j","pangalan","true","",""
"1343.8000000715256","","","","","5","html-slider-response","1086","","","","4",""
"4973","pants","pintal,chuki,haki,hari","haki","j","5","html-keyboard-response","1087","j","haki","true","",""
"1498.2999999523163","","","","","5","html-slider-response","1088","","","","4",""
"7225","salmon","mzungu,seri,sensilyo,baharia","sensilyo","j","5","html-keyboard-response","1089","f","mzungu","false","",""
"2202.899999976158","","","","","5","html-slider-response","1090","","","","3",""
"6659","coffin","barua,tubag,kioo,hulma","kioo","j","5","html-keyboard-response","1091","n","hulma","false","",""
"1455.5","","","","","5","html-slider-response","1092","","","","2",""
"5369","park","tambok,bunifu,pwani,ihalas","bunifu","v","5","html-keyboard-response","1093","f","tambok","false","",""
"1586.8000000715256","","","","","5","html-slider-response","1094","","","","3",""
"4193","giraffe","daraja,jumatu,mahitabo,hangyo","mahitabo","j","5","html-keyboard-response","1095","j","mahitabo","true","",""
"1415.2000000476837","","","","","5","html-slider-response","1096","","","","5",""
"2817","mirror","rangi,sulagma,kanding,furaha","sulagma","v","5","html-keyboard-response","1097","v","sulagma","true","",""
"1877.1999999284744","","","","","5","html-slider-response","1098","","","","4",""
"6603","ceiling","kugita,kawaida,rayna,maua","maua","n","5","html-keyboard-response","1099","n","maua","true","",""
"2370.1999999284744","","","","","5","html-slider-response","1100","","","","5",""
"6142","marker","mapafu,salita,maji,atay","maji","j","5","html-keyboard-response","1101","j","maji","true","",""
"2329.7999999523163","","","","","5","html-slider-response","1102","","","","3",""
"2408","sock","ndoora,kimysa,mtirka,mamba","mamba","n","5","html-keyboard-response","1103","n","mamba","true","",""
"1165.3999999761581","","","","","5","html-slider-response","1104","","","","5",""
"5467","cop","bustani,jikoni,mechezo,bakus","mechezo","j","5","html-keyboard-response","1105","j","mechezo","true","",""
"1828.0999999046326","","","","","5","html-slider-response","1106","","","","3",""
"9091","gift","pagtawag,baba,nyange,baso","pagtawag","f","5","html-keyboard-response","1107","f","pagtawag","true","",""
"1802.8000000715256","","","","","5","html-slider-response","1108","","","","4",""
"6045","notebook","kemia,msitu,kila,mdudu","kemia","f","5","html-keyboard-response","1109","j","kila","false","",""
"2101.3000000715256","","","","","5","html-slider-response","1110","","","","3",""
"6499","bank","kudhibi,tualya,ofisi,silingan","silingan","n","5","html-keyboard-response","1111","f","kudhibi","false","",""
"1368.8999999761581","","","","","5","html-slider-response","1112","","","","2",""
"14838","letter","filimbi,kifua,chuma,uhuru","kifua","v","5","html-keyboard-response","1113","v","kifua","true","",""
"1916.8999999761581","","","","","5","html-slider-response","1114","","","","3",""
"4282","candle","gabi,farasi,kupanda,geza","geza","n","5","html-keyboard-response","1115","n","geza","true","",""
"1515.6000000238419","","","","","5","html-slider-response","1116","","","","4",""
"5643","bread","kaili,dari,dizeli,bugas","dari","v","5","html-keyboard-response","1117","n","bugas","false","",""
"1637.4000000953674","","","","","5","html-slider-response","1118","","","","3",""
"10046","snake","pagtukod,jansa,karon,mvringo","pagtukod","f","5","html-keyboard-response","1119","f","pagtukod","true","",""
"1205.8000000715256","","","","","5","html-slider-response","1120","","","","5",""
"11583","rose","singizi,mwanake,paghalad,amani","paghalad","j","5","html-keyboard-response","1121","j","paghalad","true","",""
"1596.1000000238419","","","","","5","html-slider-response","1122","","","","4",""
"5295","hill","kushoto,kukimba,matumbo,sweta","matumbo","j","5","html-keyboard-response","1123","v","kukimba","false","",""
"1887.7000000476837","","","","","5","html-slider-response","1124","","","","3",""
"15145","train","itik,sayari,dakika,mungu","sayari","v","5","html-keyboard-response","1125","v","sayari","true","",""
"1622.3999999761581","","","","","5","html-slider-response","1126","","","","2",""
"14757","shop","samaki,nopya,kerida,ndezu","samaki","f","5","html-keyboard-response","1127","f","samaki","true","",""
"1746.5","","","","","5","html-slider-response","1128","","","","3",""
"5652","nose","gubat,sehemu,kopa,kidole","sehemu","v","5","html-keyboard-response","1129","v","sehemu","true","",""
"1736.8999999761581","","","","","5","html-slider-response","1130","","","","3",""
"8505","boat","hamsi,pombe,agalon,kitanda","agalon","j","5","html-keyboard-response","1131","j","agalon","true","",""
"1508.5","","","","","5","html-slider-response","1132","","","","4",""
"5322","body","nyundu,jibini,tindashan,kununa","tindashan","j","5","html-keyboard-response","1133","j","tindashan","true","",""
"1207.3999999761581","","","","","5","html-slider-response","1134","","","","5",""
"19568","bed","kalipay,mapintas,haraka,starehe","mapintas","v","5","html-keyboard-response","1135","f","kalipay","false","",""
"1694.8999999761581","","","","","5","html-slider-response","1136","","","","3",""
"2149","squirrel","mahugaw,ukweli,kichwa,hofu","hofu","n","5","html-keyboard-response","1137","n","hofu","true","",""
"1518.5","","","","","5","html-slider-response","1138","","","","5",""
"6438","window","nanga,kweli,kujenga,umaga","kweli","v","5","html-keyboard-response","1139","v","kweli","true","",""
"2117.2000000476837","","","","","5","html-slider-response","1140","","","","3",""
"3290","bonfire","mwezi,mfuko,goti,kusanya","goti","j","5","html-keyboard-response","1141","j","goti","true","",""
"1298.9000000953674","","","","","5","html-slider-response","1142","","","","5",""
"10156","fish","buli,bala,baho,imani","buli","f","5","html-keyboard-response","1143","f","buli","true","",""
"1329.1000000238419","","","","","5","html-slider-response","1144","","","","5",""
"2108","cat","paghukom,neyemba,baki,akili","paghukom","f","5","html-keyboard-response","1145","f","paghukom","true","",""
"1915.6000000238419","","","","","5","html-slider-response","1146","","","","4",""
"7020","spider","bunyag,mkboa,kamwe,atop","kamwe","j","5","html-keyboard-response","1147","j","kamwe","true","",""
"2210.8000000715256","","","","","5","html-slider-response","1148","","","","3",""
"8362","eel","msumari,ishara,kunywa,kabuang","msumari","f","5","html-keyboard-response","1149","n","kabuang","false","",""
"1247.7000000476837","","","","","5","html-slider-response","1150","","","","2",""
"6646","woman","bandari,bituin,pagtabon,kovuli","pagtabon","j","5","html-keyboard-response","1151","j","pagtabon","true","",""
"1450.7999999523163","","","","","5","html-slider-response","1152","","","","4",""
"4642","magazine","gundi,mchawi,kiti,bahandi","kiti","j","5","html-keyboard-response","1153","j","kiti","true","",""
"1631.6999999284744","","","","","5","html-slider-response","1154","","","","3",""
"10636","pudding","abug,aibu,mpishi,iring","aibu","v","5","html-keyboard-response","1155","v","aibu","true","",""
"2194.5","","","","","5","html-slider-response","1156","","","","4",""
"23938","lamp","daub,bilaska,afya,mbolea","afya","j","5","html-keyboard-response","1157","j","afya","true","",""
"1456.2999999523163","","","","","5","html-slider-response","1158","","","","4",""
"10166","cave","kesho,ganti,maisha,nyundo","kesho","f","5","html-keyboard-response","1159","f","kesho","true","",""
"1664.1000000238419","","","","","5","html-slider-response","1160","","","","2",""
"6085","shoulder","kelele,ndaniya,mkuu,guruwe","mkuu","j","5","html-keyboard-response","1161","n","guruwe","false","",""
"2041.2000000476837","","","","","5","html-slider-response","1162","","","","3",""
"12892","stone","ulimwengu,mkasi,asili,wingi","wingi","n","5","html-keyboard-response","1163","n","wingi","true","",""
"1392.3999999761581","","","","","5","html-slider-response","1164","","","","4",""
"2711","column","pundok,dila,pala,ufagio","ufagio","n","5","html-keyboard-response","1165","f","pundok","false","",""
"1829","","","","","5","html-slider-response","1166","","","","3",""
"3583","page","wakala,ishiri,wimbo,skina","wimbo","j","5","html-keyboard-response","1167","j","wimbo","true","",""
"1416.3999999761581","","","","","5","html-slider-response","1168","","","","4",""
"2279","shoe","nyeusi,uyoga,hatua,kama","uyoga","v","5","html-keyboard-response","1169","j","hatua","false","",""
"1298.6999999284744","","","","","5","html-slider-response","1170","","","","4",""
"5399","clock","kartasi,abang,mbwa,osha","mbwa","j","5","html-keyboard-response","1171","j","mbwa","true","",""
"1816.0999999046326","","","","","5","html-slider-response","1172","","","","2",""
"5612","towel","tembo,funzi,pagpalit,pito","pagpalit","j","5","html-keyboard-response","1173","j","pagpalit","true","",""
"1420.8999999761581","","","","","5","html-slider-response","1174","","","","5",""
"7616","tomato","chupi,mvua,chupa,takatak","mvua","v","5","html-keyboard-response","1175","v","mvua","true","",""
"1716.8000000715256","","","","","5","html-slider-response","1176","","","","5",""
"7543","bucket","baga,ijayo,init,kiatu","kiatu","n","5","html-keyboard-response","1177","j","init","false","",""
"1402.1000000238419","","","","","5","html-slider-response","1178","","","","4",""
"4067","finger","moyo,simu,sufuria,lima","moyo","f","5","html-keyboard-response","1179","f","moyo","true","",""
"2203.0999999046326","","","","","5","html-slider-response","1180","","","","3",""
"1897","mother","kahawa,babaye,mbuzi,jokofu","babaye","v","5","html-keyboard-response","1181","v","babaye","true","",""
"1344.7999999523163","","","","","5","html-slider-response","1182","","","","5",""
"2441","human","bado,kikapu,punguza,tinapay","tinapay","n","5","html-keyboard-response","1183","n","tinapay","true","",""
"1249.5","","","","","5","html-slider-response","1184","","","","4",""
"3508","sun","bendi,basi,luha,uongo","basi","v","5","html-keyboard-response","1185","f","bendi","false","",""
"1276.7999999523163","","","","","5","html-slider-response","1186","","","","4",""
"6072","fork","baboy,paghago,gorisi,mgonjwa","mgonjwa","n","5","html-keyboard-response","1187","n","mgonjwa","true","",""
"1234.1000000238419","","","","","5","html-slider-response","1188","","","","2",""
"4270","donkey","elfu,bloke,lalake,rombus","elfu","f","5","html-keyboard-response","1189","f","elfu","true","",""
"2412.2000000476837","","","","","5","html-slider-response","1190","","","","3",""
"3032","wolf","kaburi,ndizi,mchuzi,lugha","lugha","n","5","html-keyboard-response","1191","n","lugha","true","",""
"1140.1000000238419","","","","","5","html-slider-response","1192","","","","5",""
"8311","cigar","ndugu,kuta,adhabu,mlango","adhabu","j","5","html-keyboard-response","1193","j","adhabu","true","",""
"3330.899999976158","","","","","5","html-slider-response","1194","","","","4",""
"2836","olive","bata,jiwe,siagi,welder","jiwe","v","5","html-keyboard-response","1195","v","jiwe","true","",""
"1374","","","","","5","html-slider-response","1196","","","","5",""
"15615","key","miaka,chombo,goma,ahos","chombo","v","5","html-keyboard-response","1197","v","chombo","true","",""
"2461.899999976158","","","","","5","html-slider-response","1198","","","","2",""
"4401","door","tena,soko,surali,nyota","surali","j","5","html-keyboard-response","1199","j","surali","true","",""
"1622.3999999761581","","","","","5","html-slider-response","1200","","","","3",""
"3511","wheel","punda,tawo,bafuni,baadaye","bafuni","j","5","html-keyboard-response","1201","j","bafuni","true","",""
"1124.3999999761581","","","","","5","html-slider-response","1202","","","","4",""
"4720","basket","kumbuka,utepe,kumba,hasira","kumba","j","5","html-keyboard-response","1203","j","kumba","true","",""
"1465.7999999523163","","","","","5","html-slider-response","1204","","","","4",""
"6214","elephant","kito,petye,pagduol,suka","kito","f","5","html-keyboard-response","1205","f","kito","true","",""
"1253.3000000715256","","","","","5","html-slider-response","1206","","","","2",""
"4977","office","hazini,leso,yatima,kuna","leso","v","5","html-keyboard-response","1207","v","leso","true","",""
"1630","","","","","5","html-slider-response","1208","","","","3",""
"5814","music","mraba,mageho,tumbo,baiski","baiski","n","5","html-keyboard-response","1209","j","tumbo","false","",""
"1660.7999999523163","","","","","5","html-slider-response","1210","","","","3",""
"9296","tissue","ugomvi,lamigas,kisiwa,katika","ugomvi","f","5","html-keyboard-response","1211","f","ugomvi","true","",""
"1702.6999999284744","","","","","5","html-slider-response","1212","","","","4",""
"6343","curtain","lisud,bulwawan,chubani,mchanga","mchanga","n","5","html-keyboard-response","1213","n","mchanga","true","",""
"1792.5999999046326","","","","","5","html-slider-response","1214","","","","5",""
"2541","flag","ndege,mkate,kawa,trekta","trekta","n","5","html-keyboard-response","1215","n","trekta","true","",""
"1778.3000000715256","","","","","5","html-slider-response","1216","","","","5",""
"5838","dog","bahari,lubi,washia,kalamu","bahari","f","5","html-keyboard-response","1217","f","bahari","true","",""
"1408.5","","","","","5","html-slider-response","1218","","","","4",""
"16476","cup","dagat,matumai,shimoni,jeraha","matumai","v","5","html-keyboard-response","1219","f","dagat","false","",""
"1135.5","","","","","5","html-slider-response","1220","","","","2",""
"10663","sheet","juuya,bililhon,watu,kamantis","bililhon","v","5","html-keyboard-response","1221","v","bililhon","true","",""
"1290.6000000238419","","","","","5","html-slider-response","1222","","","","4",""
"6020","spoon","betri,pagsulod,nzuri,ngazi","pagsulod","v","5","html-keyboard-response","1223","v","pagsulod","true","",""
"1519.2000000476837","","","","","5","html-slider-response","1224","","","","5",""
"5426","flower","bega,tamasha,lobo,usiku","bega","f","5","html-keyboard-response","1225","n","usiku","false","",""
"2793.4000000953674","","","","","5","html-slider-response","1226","","","","3",""
"11836","picture","silya,chaki,kubwa,asin","kubwa","j","5","html-keyboard-response","1227","j","kubwa","true","",""
"2202.1999999284744","","","","","5","html-slider-response","1228","","","","5",""
"4716","puppet","napulo,lamok,mazishi,godoro","mazishi","j","5","html-keyboard-response","1229","j","mazishi","true","",""
"1145.3999999761581","","","","","5","html-slider-response","1230","","","","4",""
"24150","banana","kasamok,hagdan,twai,kazi","kazi","n","5","html-keyboard-response","1231","n","kazi","true","",""
"1418.7000000476837","","","","","5","html-slider-response","1232","","","","2",""
"6032","book","kuhesa,picha,mali,mara","mali","j","5","html-keyboard-response","1233","j","mali","true","",""
"3165.5","","","","","5","html-slider-response","1234","","","","3",""
"8626","triangle","kihozi,bentaha,kasadpan,liog","kasadpan","j","5","html-keyboard-response","1235","j","kasadpan","true","",""
"1896.3999999761581","","","","","5","html-slider-response","1236","","","","5",""
"5383","poster","madungog,nchi,fedha,kasuko","madungog","f","5","html-keyboard-response","1237","f","madungog","true","",""
"1885.3999999761581","","","","","5","html-slider-response","1238","","","","4",""
"11873","box","adui,kuacha,rafiki,kitande","adui","f","5","html-keyboard-response","1239","f","adui","true","",""
"1302.2000000476837","","","","","5","html-slider-response","1240","","","","4",""
"3906","mosquito","martilyo,isda,taras,gutom","martilyo","f","5","html-keyboard-response","1241","f","martilyo","true","",""
"1724.7000000476837","","","","","5","html-slider-response","1242","","","","4",""
"3253","shelf","bungtod,pamahaw,kadaot,awit","pamahaw","v","5","html-keyboard-response","1243","v","pamahaw","true","",""
"1531.6999999284744","","","","","5","html-slider-response","1244","","","","5",""
"6109","scissors","duga,tanuri,mtawa,suga","tanuri","v","5","html-keyboard-response","1245","v","tanuri","true","",""
"1660","","","","","5","html-slider-response","1246","","","","5",""
"8222","hammer","napakyas,mekno,kitovu,layag","napakyas","f","5","html-keyboard-response","1247","f","napakyas","true","",""
"2545.3000000715256","","","","","5","html-slider-response","1248","","","","4",""
