"rt","en_word","options","swa_word","correct_answer","phase","trial_type","trial_index","input_answer","input_word","accuracy","certainty","amt_choices"
"9092","bonfire","mwezi,mfuko,kusanya,goti","goti","n","2","html-keyboard-response","106","j","kusanya","false","",""
"3914.899999856949","","","","","2","html-slider-response","107","","","","4",""
"5238","flower","tamasha,lobo,bega,usiku","bega","j","2","html-keyboard-response","108","v","lobo","false","",""
"3090.5","","","","","2","html-slider-response","109","","","","4",""
"4922","column","pundok,dila,pala,ufagio","ufagio","n","2","html-keyboard-response","110","v","dila","false","",""
"3924.199999809265","","","","","2","html-slider-response","111","","","","4",""
"3445","music","mraba,mageho,tumbo,baiski","baiski","n","2","html-keyboard-response","112","n","baiski","true","",""
"4814.799999952316","","","","","2","html-slider-response","113","","","","5",""
"6294","spider","bunyag,mkboa,atop,kamwe","kamwe","n","2","html-keyboard-response","114","n","kamwe","true","",""
"2767.899999856949","","","","","2","html-slider-response","115","","","","4",""
"12786","fork","baboy,paghago,mgonjwa,gorisi","mgonjwa","j","2","html-keyboard-response","116","j","mgonjwa","true","",""
"4509.299999952316","","","","","2","html-slider-response","117","","","","5",""
"7227","mosquito","isda,taras,martilyo,gutom","martilyo","j","2","html-keyboard-response","118","f","isda","false","",""
"2164","","","","","2","html-slider-response","119","","","","4",""
"8541","banana","kasamok,kazi,hagdan,twai","kazi","v","2","html-keyboard-response","120","n","twai","false","",""
"1823.7999999523163","","","","","2","html-slider-response","121","","","","4",""
"7450","cup","dagat,shimoni,matumai,jeraha","matumai","j","2","html-keyboard-response","122","v","shimoni","false","",""
"1849.2999999523163","","","","","2","html-slider-response","123","","","","4",""
"6067","shop","nopya,kerida,samaki,ndezu","samaki","j","2","html-keyboard-response","124","f","nopya","false","",""
"1735.5","","","","","2","html-slider-response","125","","","","4",""
"7048","elephant","petye,kito,pagduol,suka","kito","v","2","html-keyboard-response","126","v","kito","true","",""
"2074.9000000953674","","","","","2","html-slider-response","127","","","","4",""
"7093","bucket","kiatu,baga,ijayo,init","kiatu","f","2","html-keyboard-response","128","f","kiatu","true","",""
"1529.1000001430511","","","","","2","html-slider-response","129","","","","5",""
"6651","book","mali,kuhesa,picha,mara","mali","f","2","html-keyboard-response","130","j","picha","false","",""
"1624.6999998092651","","","","","2","html-slider-response","131","","","","5",""
"6024","mirror","rangi,kanding,furaha,sulagma","sulagma","n","2","html-keyboard-response","132","v","kanding","false","",""
"1599.8999998569489","","","","","2","html-slider-response","133","","","","5",""
"4507","office","hazini,yatima,kuna,leso","leso","n","2","html-keyboard-response","134","v","yatima","false","",""
"1448.8999998569489","","","","","2","html-slider-response","135","","","","4",""
"10951","body","tindashan,nyundu,jibini,kununa","tindashan","f","2","html-keyboard-response","136","j","jibini","false","",""
"1852.0999999046326","","","","","2","html-slider-response","137","","","","4",""
"5800","perfume","bino,sungura,ndogo,katuyoan","katuyoan","n","2","html-keyboard-response","138","n","katuyoan","true","",""
"1488.7999999523163","","","","","2","html-slider-response","139","","","","4",""
"7777","olive","bata,siagi,jiwe,welder","jiwe","j","2","html-keyboard-response","140","v","siagi","false","",""
"3308.2999999523163","","","","","2","html-slider-response","141","","","","4",""
"5885","magazine","kiti,gundi,mchawi,bahandi","kiti","f","2","html-keyboard-response","142","f","kiti","true","",""
"1834.5","","","","","2","html-slider-response","143","","","","4",""
"7969","bread","kaili,dari,dizeli,bugas","dari","v","2","html-keyboard-response","144","j","dizeli","false","",""
"4858.599999904633","","","","","2","html-slider-response","145","","","","4",""
"6473","cave","ganti,maisha,kesho,nyundo","kesho","j","2","html-keyboard-response","146","n","nyundo","false","",""
"1856.3999998569489","","","","","2","html-slider-response","147","","","","4",""
"30915","ladder","mashua,mwanga,pangalan,kamba","pangalan","j","2","html-keyboard-response","148","f","mashua","false","",""
"1793.2000000476837","","","","","2","html-slider-response","149","","","","4",""
"4330","human","bado,tinapay,kikapu,punguza","tinapay","v","2","html-keyboard-response","150","f","bado","false","",""
"2425.4000000953674","","","","","2","html-slider-response","151","","","","5",""
"8020","clock","kartasi,abang,mbwa,osha","mbwa","j","2","html-keyboard-response","152","v","abang","false","",""
"2137.2000000476837","","","","","2","html-slider-response","153","","","","4",""
"5480","shelf","bungtod,kadaot,awit,pamahaw","pamahaw","n","2","html-keyboard-response","154","n","pamahaw","true","",""
"1691.7000000476837","","","","","2","html-slider-response","155","","","","4",""
"5397","salmon","mzungu,seri,sensilyo,baharia","sensilyo","j","2","html-keyboard-response","156","n","baharia","false","",""
"1867.8999998569489","","","","","2","html-slider-response","157","","","","4",""
"13677","coffin","barua,tubag,kioo,hulma","kioo","j","2","html-keyboard-response","158","n","hulma","false","",""
"1510.8999998569489","","","","","2","html-slider-response","159","","","","4",""
"4242","notebook","msitu,kila,mdudu,kemia","kemia","n","2","html-keyboard-response","160","n","kemia","true","",""
"1411.8999998569489","","","","","2","html-slider-response","161","","","","4",""
"4107","shoulder","kelele,ndaniya,mkuu,guruwe","mkuu","j","2","html-keyboard-response","162","v","ndaniya","false","",""
"3820.5999999046326","","","","","2","html-slider-response","163","","","","4",""
"4975","park","tambok,pwani,ihalas,bunifu","bunifu","n","2","html-keyboard-response","164","n","bunifu","true","",""
"1539.5999999046326","","","","","2","html-slider-response","165","","","","4",""
"6066","number","mundamo,shule,kengele,choori","mundamo","f","2","html-keyboard-response","166","j","kengele","false","",""
"1696.2999999523163","","","","","2","html-slider-response","167","","","","5",""
"5144","apple","ukame,estante,kisu,edad","kisu","j","2","html-keyboard-response","168","j","kisu","true","",""
"2766","","","","","2","html-slider-response","169","","","","4",""
"4758","letter","kifua,filimbi,chuma,uhuru","kifua","f","2","html-keyboard-response","170","f","kifua","true","",""
"7228.599999904633","","","","","2","html-slider-response","171","","","","5",""
"10733","eel","ishara,kunywa,kabuang,msumari","msumari","n","2","html-keyboard-response","172","n","msumari","true","",""
"1983.4000000953674","","","","","2","html-slider-response","173","","","","4",""
"4563","cop","mechezo,bustani,jikoni,bakus","mechezo","f","2","html-keyboard-response","174","n","bakus","false","",""
"2046.2000000476837","","","","","2","html-slider-response","175","","","","4",""
"5390","wolf","kaburi,ndizi,lugha,mchuzi","lugha","j","2","html-keyboard-response","176","n","mchuzi","false","",""
"1365.3000001907349","","","","","2","html-slider-response","177","","","","4",""
"4195","squirrel","mahugaw,ukweli,kichwa,hofu","hofu","n","2","html-keyboard-response","178","n","hofu","true","",""
"3170.9000000953674","","","","","2","html-slider-response","179","","","","4",""
"5753","nose","gubat,kopa,kidole,sehemu","sehemu","n","2","html-keyboard-response","180","n","sehemu","true","",""
"1434.4000000953674","","","","","2","html-slider-response","181","","","","4",""
"4586","sock","mamba,ndoora,kimysa,mtirka","mamba","f","2","html-keyboard-response","182","f","mamba","true","",""
"7600.099999904633","","","","","2","html-slider-response","183","","","","5",""
"6711","bank","kudhibi,tualya,silingan,ofisi","silingan","j","2","html-keyboard-response","184","n","ofisi","false","",""
"1478.9000000953674","","","","","2","html-slider-response","185","","","","4",""
"5529","donkey","bloke,elfu,lalake,rombus","elfu","v","2","html-keyboard-response","186","n","rombus","false","",""
"1407","","","","","2","html-slider-response","187","","","","4",""
"5091","poster","nchi,fedha,kasuko,madungog","madungog","n","2","html-keyboard-response","188","j","kasuko","false","",""
"3507.5999999046326","","","","","2","html-slider-response","189","","","","4",""
"5157","puppet","napulo,lamok,mazishi,godoro","mazishi","j","2","html-keyboard-response","190","j","mazishi","true","",""
"1511.2000000476837","","","","","2","html-slider-response","191","","","","4",""
"7241","hill","kushoto,kukimba,matumbo,sweta","matumbo","j","2","html-keyboard-response","192","f","kushoto","false","",""
"1386.8999998569489","","","","","2","html-slider-response","193","","","","4",""
"5052","tooth","kijiko,uadui,kabalaka,pahiyum","kabalaka","j","2","html-keyboard-response","194","n","pahiyum","false","",""
"3374.600000143051","","","","","2","html-slider-response","195","","","","5",""
"7712","woman","bandari,pagtabon,bituin,kovuli","pagtabon","v","2","html-keyboard-response","196","n","kovuli","false","",""
"1979.9000000953674","","","","","2","html-slider-response","197","","","","5",""
"5330","wheel","punda,tawo,baadaye,bafuni","bafuni","n","2","html-keyboard-response","198","j","baadaye","false","",""
"1849.3999998569489","","","","","2","html-slider-response","199","","","","4",""
"3851","mother","kahawa,mbuzi,babaye,jokofu","babaye","j","2","html-keyboard-response","200","j","babaye","true","",""
"2460.2999999523163","","","","","2","html-slider-response","201","","","","5",""
"8701","bed","mapintas,kalipay,haraka,starehe","mapintas","f","2","html-keyboard-response","202","f","mapintas","true","",""
"1474.8999998569489","","","","","2","html-slider-response","203","","","","4",""
"4360","key","chombo,miaka,goma,ahos","chombo","f","2","html-keyboard-response","204","f","chombo","true","",""
"2500.899999856949","","","","","2","html-slider-response","205","","","","4",""
"11044","page","wakala,wimbo,ishiri,skina","wimbo","v","2","html-keyboard-response","206","n","skina","false","",""
"2537.4000000953674","","","","","2","html-slider-response","207","","","","4",""
"4609","pants","haki,pintal,chuki,hari","haki","f","2","html-keyboard-response","208","v","pintal","false","",""
"1889.7000000476837","","","","","2","html-slider-response","209","","","","4",""
"48822","sun","basi,bendi,luha,uongo","basi","f","2","html-keyboard-response","210","f","basi","true","",""
"1767","","","","","2","html-slider-response","211","","","","4",""
"3483","finger","moyo,simu,sufuria,lima","moyo","f","2","html-keyboard-response","212","n","lima","false","",""
"1319.9000000953674","","","","","2","html-slider-response","213","","","","4",""
"3702","shoe","nyeusi,hatua,uyoga,kama","uyoga","j","2","html-keyboard-response","214","f","nyeusi","false","",""
"1236.2000000476837","","","","","2","html-slider-response","215","","","","4",""
"5047","giraffe","daraja,jumatu,hangyo,mahitabo","mahitabo","n","2","html-keyboard-response","216","j","hangyo","false","",""
"2567.2000000476837","","","","","2","html-slider-response","217","","","","4",""
"3892","dog","lubi,washia,kalamu,bahari","bahari","n","2","html-keyboard-response","218","n","bahari","true","",""
"2147.4000000953674","","","","","2","html-slider-response","219","","","","5",""
"4141","box","kuacha,rafiki,adui,kitande","adui","j","2","html-keyboard-response","220","v","rafiki","false","",""
"1547.7999999523163","","","","","2","html-slider-response","221","","","","5",""
"4383","scissors","duga,mtawa,suga,tanuri","tanuri","n","2","html-keyboard-response","222","v","mtawa","false","",""
"1412.2000000476837","","","","","2","html-slider-response","223","","","","5",""
"5122","cat","paghukom,neyemba,baki,akili","paghukom","f","2","html-keyboard-response","224","j","baki","false","",""
"3456.5","","","","","2","html-slider-response","225","","","","4",""
"16652","basket","kumbuka,utepe,kumba,hasira","kumba","j","2","html-keyboard-response","226","f","kumbuka","false","",""
"1316.3999998569489","","","","","2","html-slider-response","227","","","","4",""
"5648","snake","jansa,pagtukod,karon,mvringo","pagtukod","v","2","html-keyboard-response","228","n","mvringo","false","",""
"2873.5","","","","","2","html-slider-response","229","","","","5",""
"4546","gift","pagtawag,baba,nyange,baso","pagtawag","f","2","html-keyboard-response","230","f","pagtawag","true","",""
"1645.6000001430511","","","","","2","html-slider-response","231","","","","5",""
"7180","train","sayari,itik,dakika,mungu","sayari","f","2","html-keyboard-response","232","j","dakika","false","",""
"1610.0999999046326","","","","","2","html-slider-response","233","","","","4",""
"14010","pudding","abug,mpishi,iring,aibu","aibu","n","2","html-keyboard-response","234","v","mpishi","false","",""
"2001.4000000953674","","","","","2","html-slider-response","235","","","","4",""
"10390","tomato","chupi,chupa,takatak,mvua","mvua","n","2","html-keyboard-response","236","n","mvua","true","",""
"1628.2000000476837","","","","","2","html-slider-response","237","","","","4",""
"8537","stone","ulimwengu,mkasi,asili,wingi","wingi","n","2","html-keyboard-response","238","v","mkasi","false","",""
"23165.599999904633","","","","","2","html-slider-response","239","","","","4",""
"4410","hammer","mekno,kitovu,layag,napakyas","napakyas","n","2","html-keyboard-response","240","n","napakyas","true","",""
"2390.7000000476837","","","","","2","html-slider-response","241","","","","4",""
"2679","knee","mvuke,duka,kubale,bili","duka","v","2","html-keyboard-response","242","n","bili","false","",""
"2544.199999809265","","","","","2","html-slider-response","243","","","","4",""
"6032","ceiling","kugita,kawaida,rayna,maua","maua","n","2","html-keyboard-response","244","v","kawaida","false","",""
"1801.7000000476837","","","","","2","html-slider-response","245","","","","4",""
"4495","spoon","betri,pagsulod,nzuri,ngazi","pagsulod","v","2","html-keyboard-response","246","n","ngazi","false","",""
"1688","","","","","2","html-slider-response","247","","","","5",""
"17125","marker","mapafu,salita,atay,maji","maji","n","2","html-keyboard-response","248","j","atay","false","",""
"2046.3999998569489","","","","","2","html-slider-response","249","","","","4",""
"4006","candle","gabi,farasi,geza,kupanda","geza","j","2","html-keyboard-response","250","v","farasi","false","",""
"1662.1999998092651","","","","","2","html-slider-response","251","","","","4",""
"4162","tissue","lamigas,ugomvi,kisiwa,katika","ugomvi","v","2","html-keyboard-response","252","v","ugomvi","true","",""
"1447","","","","","2","html-slider-response","253","","","","4",""
"5051","bridge","daima,ngono,sahani,panya","sahani","j","2","html-keyboard-response","254","n","panya","false","",""
"1800.5999999046326","","","","","2","html-slider-response","255","","","","4",""
"69021","berry","abogado,kofia,nogozi,kinywa","kofia","v","2","html-keyboard-response","256","j","nogozi","false","",""
"2837.9000000953674","","","","","2","html-slider-response","257","","","","4",""
"7088","triangle","kasadpan,kihozi,bentaha,liog","kasadpan","f","2","html-keyboard-response","258","f","kasadpan","true","",""
"1847.0999999046326","","","","","2","html-slider-response","259","","","","4",""
"5063","door","tena,soko,surali,nyota","surali","j","2","html-keyboard-response","260","n","nyota","false","",""
"1906.2999999523163","","","","","2","html-slider-response","261","","","","4",""
"17362","fish","bala,buli,baho,imani","buli","v","2","html-keyboard-response","262","j","baho","false","",""
"3192.5","","","","","2","html-slider-response","263","","","","4",""
"5041","curtain","mchanga,lisud,bulwawan,chubani","mchanga","f","2","html-keyboard-response","264","n","chubani","false","",""
"1611.2000000476837","","","","","2","html-slider-response","265","","","","5",""
"4111","flag","ndege,mkate,trekta,kawa","trekta","j","2","html-keyboard-response","266","n","kawa","false","",""
"1697","","","","","2","html-slider-response","267","","","","4",""
"6328","boat","hamsi,pombe,agalon,kitanda","agalon","j","2","html-keyboard-response","268","f","hamsi","false","",""
"2420.0999999046326","","","","","2","html-slider-response","269","","","","4",""
"4549","rose","paghalad,singizi,mwanake,amani","paghalad","f","2","html-keyboard-response","270","n","amani","false","",""
"2207","","","","","2","html-slider-response","271","","","","4",""
"4177","lamp","daub,bilaska,mbolea,afya","afya","n","2","html-keyboard-response","272","j","mbolea","false","",""
"1904.2000000476837","","","","","2","html-slider-response","273","","","","4",""
"18252","cigar","ndugu,adhabu,kuta,mlango","adhabu","v","2","html-keyboard-response","274","f","ndugu","false","",""
"1484","","","","","2","html-slider-response","275","","","","4",""
"9794","list","alizeti,kuzama,kaso,wingu","wingu","n","2","html-keyboard-response","276","n","wingu","true","",""
"3851.2999999523163","","","","","2","html-slider-response","277","","","","4",""
"4558","sheet","juuya,watu,bililhon,kamantis","bililhon","j","2","html-keyboard-response","278","f","juuya","false","",""
"1962.9000000953674","","","","","2","html-slider-response","279","","","","4",""
"32829","picture","silya,chaki,asin,kubwa","kubwa","n","2","html-keyboard-response","280","n","kubwa","true","",""
"1933.3000001907349","","","","","2","html-slider-response","281","","","","5",""
"7237","towel","tembo,pagpalit,funzi,pito","pagpalit","v","2","html-keyboard-response","282","n","pito","false","",""
"1608","","","","","2","html-slider-response","283","","","","5",""
"3981","window","nanga,kujenga,umaga,kweli","kweli","n","2","html-keyboard-response","284","n","kweli","true","",""
"9712.5","","","","","2","html-slider-response","285","","","","4",""
"16347","box","adui,kuacha,rafiki,kitande","adui","f","3","html-keyboard-response","293","j","rafiki","false","","4"
"4393.200000047684","","","","","3","html-slider-response","294","","","","4",""
"9440","","","","","3","html-keyboard-response","295","","","","",""
"8611","pants","pintal,chuki,hari,haki","haki","n","3","html-keyboard-response","296","f","pintal","false","","4"
"3427.7000000476837","","","","","3","html-slider-response","297","","","","4",""
"4578","","","","","3","html-keyboard-response","298","","","","",""
"8955","cup","matumai,dagat,shimoni,jeraha","matumai","f","3","html-keyboard-response","299","f","matumai","true","","4"
"2971","","","","","3","html-slider-response","300","","","","4",""
"10489","","","","","3","html-keyboard-response","301","","","","",""
"15383","triangle","kihozi,bentaha,kasadpan,liog","kasadpan","j","3","html-keyboard-response","302","j","kasadpan","true","","4"
"2546.2999999523163","","","","","3","html-slider-response","303","","","","4",""
"32890","","","","","3","html-keyboard-response","304","","","","",""
"6977","curtain","lisud,bulwawan,mchanga,chubani","mchanga","j","3","html-keyboard-response","305","v","bulwawan","false","","4"
"2661.899999856949","","","","","3","html-slider-response","306","","","","4",""
"76043","","","","","3","html-keyboard-response","307","","","","",""
"4218","clock","kartasi,abang,osha,mbwa","mbwa","n","3","html-keyboard-response","308","j","osha","false","","4"
"2043.4000000953674","","","","","3","html-slider-response","309","","","","4",""
"5531","","","","","3","html-keyboard-response","310","","","","",""
"5595","mirror","rangi,kanding,sulagma,furaha","sulagma","j","3","html-keyboard-response","311","n","furaha","false","","4"
"1612.7000000476837","","","","","3","html-slider-response","312","","","","5",""
"3021","","","","","3","html-keyboard-response","313","","","","",""
"19832","coffin","barua,kioo,tubag,hulma","kioo","v","3","html-keyboard-response","314","v","kioo","true","","1"
"1914.7000000476837","","","","","3","html-slider-response","315","","","","4",""
"5297","","","","","3","html-keyboard-response","316","","","","",""
"11660","magazine","gundi,kiti,mchawi,bahandi","kiti","v","3","html-keyboard-response","317","v","kiti","true","","4"
"1685.5","","","","","3","html-slider-response","318","","","","4",""
"1749","","","","","3","html-keyboard-response","319","","","","",""
"9373","column","pundok,dila,pala,ufagio","ufagio","n","3","html-keyboard-response","320","n","ufagio","true","","1"
"1877","","","","","3","html-slider-response","321","","","","5",""
"7831","","","","","3","html-keyboard-response","322","","","","",""
"5698","number","shule,mundamo,kengele,choori","mundamo","v","3","html-keyboard-response","323","n","choori","false","","4"
"1648.4000000953674","","","","","3","html-slider-response","324","","","","4",""
"8131","","","","","3","html-keyboard-response","325","","","","",""
"3970","rose","singizi,mwanake,amani,paghalad","paghalad","n","3","html-keyboard-response","326","f","singizi","false","","4"
"1909.7000000476837","","","","","3","html-slider-response","327","","","","4",""
"1653","","","","","3","html-keyboard-response","328","","","","",""
"5240","eel","ishara,kunywa,msumari,kabuang","msumari","j","3","html-keyboard-response","329","n","kabuang","false","","4"
"3525","","","","","3","html-slider-response","330","","","","4",""
"1419","","","","","3","html-keyboard-response","331","","","","",""
"5114","gift","baba,nyange,baso,pagtawag","pagtawag","n","3","html-keyboard-response","332","v","nyange","false","","4"
"1839.6000001430511","","","","","3","html-slider-response","333","","","","4",""
"2860","","","","","3","html-keyboard-response","334","","","","",""
"6002","apple","ukame,estante,kisu,edad","kisu","j","3","html-keyboard-response","335","j","kisu","true","","1"
"3402.2000000476837","","","","","3","html-slider-response","336","","","","4",""
"9962","","","","","3","html-keyboard-response","337","","","","",""
"3288","wheel","punda,bafuni,tawo,baadaye","bafuni","v","3","html-keyboard-response","338","v","bafuni","true","","1"
"1814.2999999523163","","","","","3","html-slider-response","339","","","","4",""
"2294","","","","","3","html-keyboard-response","340","","","","",""
"8495","knee","duka,mvuke,kubale,bili","duka","f","3","html-keyboard-response","341","n","bili","false","","4"
"2149.5","","","","","3","html-slider-response","342","","","","4",""
"6597","","","","","3","html-keyboard-response","343","","","","",""
"2944","basket","kumba,kumbuka,utepe,hasira","kumba","f","3","html-keyboard-response","344","f","kumba","true","","1"
"1765.6000001430511","","","","","3","html-slider-response","345","","","","4",""
"2361","","","","","3","html-keyboard-response","346","","","","",""
"10249","park","tambok,bunifu,pwani,ihalas","bunifu","v","3","html-keyboard-response","347","j","pwani","false","","4"
"1384.2999999523163","","","","","3","html-slider-response","348","","","","4",""
"2933","","","","","3","html-keyboard-response","349","","","","",""
"4624","finger","simu,moyo,sufuria,lima","moyo","v","3","html-keyboard-response","350","n","lima","false","","4"
"1419.6999998092651","","","","","3","html-slider-response","351","","","","4",""
"1596","","","","","3","html-keyboard-response","352","","","","",""
"5000","boat","agalon,hamsi,pombe,kitanda","agalon","f","3","html-keyboard-response","353","v","hamsi","false","","4"
"1912","","","","","3","html-slider-response","354","","","","4",""
"2861","","","","","3","html-keyboard-response","355","","","","",""
"5780","hill","kushoto,kukimba,matumbo,sweta","matumbo","j","3","html-keyboard-response","356","j","matumbo","true","","4"
"4343","","","","","3","html-slider-response","357","","","","4",""
"15104","","","","","3","html-keyboard-response","358","","","","",""
"4890","train","itik,dakika,mungu,sayari","sayari","n","3","html-keyboard-response","359","j","mungu","false","","4"
"1476.2000000476837","","","","","3","html-slider-response","360","","","","4",""
"3417","","","","","3","html-keyboard-response","361","","","","",""
"5230","wolf","lugha,kaburi,ndizi,mchuzi","lugha","f","3","html-keyboard-response","362","n","mchuzi","false","","4"
"1289.5","","","","","3","html-slider-response","363","","","","4",""
"2911","","","","","3","html-keyboard-response","364","","","","",""
"4103","snake","jansa,karon,mvringo,pagtukod","pagtukod","n","3","html-keyboard-response","365","j","mvringo","false","","4"
"2743","","","","","3","html-slider-response","366","","","","4",""
"3736","","","","","3","html-keyboard-response","367","","","","",""
"15590","tooth","kabalaka,kijiko,uadui,pahiyum","kabalaka","f","3","html-keyboard-response","368","v","kijiko","false","","4"
"1933.0999999046326","","","","","3","html-slider-response","369","","","","4",""
"13080","","","","","3","html-keyboard-response","370","","","","",""
"6471","notebook","kemia,msitu,kila,mdudu","kemia","f","3","html-keyboard-response","371","n","mdudu","false","","4"
"1538.3999998569489","","","","","3","html-slider-response","372","","","","4",""
"34263","","","","","3","html-keyboard-response","373","","","","",""
"2997","flag","ndege,trekta,mkate,kawa","trekta","v","3","html-keyboard-response","374","n","kawa","false","","4"
"1751.5","","","","","3","html-slider-response","375","","","","5",""
"1344","","","","","3","html-keyboard-response","376","","","","",""
"2859","squirrel","hofu,mahugaw,ukweli,kichwa","hofu","f","3","html-keyboard-response","377","n","kichwa","false","","4"
"2852.899999856949","","","","","3","html-slider-response","378","","","","4",""
"1552","","","","","3","html-keyboard-response","379","","","","",""
"4046","door","tena,soko,nyota,surali","surali","n","3","html-keyboard-response","380","j","nyota","false","","4"
"1252.4000000953674","","","","","3","html-slider-response","381","","","","4",""
"2385","","","","","3","html-keyboard-response","382","","","","",""
"11489","salmon","mzungu,seri,baharia,sensilyo","sensilyo","n","3","html-keyboard-response","383","n","sensilyo","true","","4"
"3346.5","","","","","3","html-slider-response","384","","","","4",""
"2065","","","","","3","html-keyboard-response","385","","","","",""
"5884","shoulder","mkuu,kelele,ndaniya,guruwe","mkuu","f","3","html-keyboard-response","386","n","guruwe","false","","4"
"1841.7999999523163","","","","","3","html-slider-response","387","","","","5",""
"3203","","","","","3","html-keyboard-response","388","","","","",""
"4658","lamp","daub,bilaska,mbolea,afya","afya","n","3","html-keyboard-response","389","n","afya","true","","4"
"2376.7999999523163","","","","","3","html-slider-response","390","","","","4",""
"1987","","","","","3","html-keyboard-response","391","","","","",""
"5076","shelf","bungtod,kadaot,pamahaw,awit","pamahaw","j","3","html-keyboard-response","392","j","pamahaw","true","","1"
"1324.0999999046326","","","","","3","html-slider-response","393","","","","4",""
"1615","","","","","3","html-keyboard-response","394","","","","",""
"7652","human","bado,tinapay,kikapu,punguza","tinapay","v","3","html-keyboard-response","395","n","punguza","false","","4"
"2122.5","","","","","3","html-slider-response","396","","","","5",""
"6388","","","","","3","html-keyboard-response","397","","","","",""
"4126","towel","tembo,funzi,pagpalit,pito","pagpalit","j","3","html-keyboard-response","398","n","pito","false","","4"
"1284.2999999523163","","","","","3","html-slider-response","399","","","","4",""
"3068","","","","","3","html-keyboard-response","400","","","","",""
"4905","cat","neyemba,baki,paghukom,akili","paghukom","j","3","html-keyboard-response","401","j","paghukom","true","","4"
"1450.3000001907349","","","","","3","html-slider-response","402","","","","4",""
"2560","","","","","3","html-keyboard-response","403","","","","",""
"4014","spider","bunyag,mkboa,atop,kamwe","kamwe","n","3","html-keyboard-response","404","n","kamwe","true","","4"
"2773.4000000953674","","","","","3","html-slider-response","405","","","","5",""
"46766","","","","","3","html-keyboard-response","406","","","","",""
"20504","window","kweli,nanga,kujenga,umaga","kweli","f","3","html-keyboard-response","407","v","nanga","false","","4"
"1373.6000001430511","","","","","3","html-slider-response","408","","","","4",""
"2167","","","","","3","html-keyboard-response","409","","","","",""
"2537","woman","pagtabon,bandari,bituin,kovuli","pagtabon","f","3","html-keyboard-response","410","f","pagtabon","true","","1"
"1419.8999998569489","","","","","3","html-slider-response","411","","","","4",""
"1300","","","","","3","html-keyboard-response","412","","","","",""
"7125","giraffe","mahitabo,daraja,jumatu,hangyo","mahitabo","f","3","html-keyboard-response","413","n","hangyo","false","","4"
"1439.7999999523163","","","","","3","html-slider-response","414","","","","4",""
"1164","","","","","3","html-keyboard-response","415","","","","",""
"6388","elephant","petye,pagduol,kito,suka","kito","j","3","html-keyboard-response","416","v","pagduol","false","","4"
"1544","","","","","3","html-slider-response","417","","","","4",""
"1280","","","","","3","html-keyboard-response","418","","","","",""
"10663","cave","kesho,ganti,maisha,nyundo","kesho","f","3","html-keyboard-response","419","n","nyundo","false","","4"
"1352.4000000953674","","","","","3","html-slider-response","420","","","","4",""
"1894","","","","","3","html-keyboard-response","421","","","","",""
"3346","bread","kaili,dari,dizeli,bugas","dari","v","3","html-keyboard-response","422","f","kaili","false","","4"
"2422.100000143051","","","","","3","html-slider-response","423","","","","4",""
"4295","","","","","3","html-keyboard-response","424","","","","",""
"9673","stone","ulimwengu,wingi,mkasi,asili","wingi","v","3","html-keyboard-response","425","j","mkasi","false","","4"
"1336.2999999523163","","","","","3","html-slider-response","426","","","","4",""
"2472","","","","","3","html-keyboard-response","427","","","","",""
"4965","donkey","elfu,bloke,lalake,rombus","elfu","f","3","html-keyboard-response","428","f","elfu","true","","4"
"2112.600000143051","","","","","3","html-slider-response","429","","","","4",""
"2745","","","","","3","html-keyboard-response","430","","","","",""
"7155","bridge","daima,ngono,sahani,panya","sahani","j","3","html-keyboard-response","431","n","panya","false","","4"
"1837.7000000476837","","","","","3","html-slider-response","432","","","","4",""
"2543","","","","","3","html-keyboard-response","433","","","","",""
"7084","bonfire","mwezi,mfuko,goti,kusanya","goti","j","3","html-keyboard-response","434","f","mwezi","false","","4"
"1324","","","","","3","html-slider-response","435","","","","4",""
"2941","","","","","3","html-keyboard-response","436","","","","",""
"6478","book","mali,kuhesa,picha,mara","mali","f","3","html-keyboard-response","437","f","mali","true","","4"
"1615.9000000953674","","","","","3","html-slider-response","438","","","","4",""
"33320","","","","","3","html-keyboard-response","439","","","","",""
"4997","fish","bala,baho,imani,buli","buli","n","3","html-keyboard-response","440","n","buli","true","","4"
"2011.1000001430511","","","","","3","html-slider-response","441","","","","4",""
"1634","","","","","3","html-keyboard-response","442","","","","",""
"4048","spoon","betri,nzuri,pagsulod,ngazi","pagsulod","j","3","html-keyboard-response","443","n","ngazi","false","","4"
"1785","","","","","3","html-slider-response","444","","","","4",""
"7574","","","","","3","html-keyboard-response","445","","","","",""
"5518","scissors","duga,mtawa,suga,tanuri","tanuri","n","3","html-keyboard-response","446","n","tanuri","true","","4"
"1724.3999998569489","","","","","3","html-slider-response","447","","","","4",""
"1996","","","","","3","html-keyboard-response","448","","","","",""
"6512","page","wakala,wimbo,ishiri,skina","wimbo","v","3","html-keyboard-response","449","n","skina","false","","4"
"1774.3999998569489","","","","","3","html-slider-response","450","","","","5",""
"7687","","","","","3","html-keyboard-response","451","","","","",""
"4385","nose","gubat,kopa,kidole,sehemu","sehemu","n","3","html-keyboard-response","452","n","sehemu","true","","1"
"1785.1000001430511","","","","","3","html-slider-response","453","","","","5",""
"2337","","","","","3","html-keyboard-response","454","","","","",""
"5555","ceiling","kugita,kawaida,rayna,maua","maua","n","3","html-keyboard-response","455","v","kawaida","false","","4"
"1833.6999998092651","","","","","3","html-slider-response","456","","","","4",""
"5913","","","","","3","html-keyboard-response","457","","","","",""
"4487","bucket","baga,ijayo,kiatu,init","kiatu","j","3","html-keyboard-response","458","j","kiatu","true","","4"
"1426.7000000476837","","","","","3","html-slider-response","459","","","","4",""
"1417","","","","","3","html-keyboard-response","460","","","","",""
"3181","berry","abogado,nogozi,kinywa,kofia","kofia","n","3","html-keyboard-response","461","n","kofia","true","","1"
"1812.6999998092651","","","","","3","html-slider-response","462","","","","5",""
"1134","","","","","3","html-keyboard-response","463","","","","",""
"2120","mother","kahawa,babaye,mbuzi,jokofu","babaye","v","3","html-keyboard-response","464","v","babaye","true","","1"
"3959.0999999046326","","","","","3","html-slider-response","465","","","","5",""
"1604","","","","","3","html-keyboard-response","466","","","","",""
"6811","mosquito","isda,taras,martilyo,gutom","martilyo","j","3","html-keyboard-response","467","j","martilyo","true","","4"
"2533.399999856949","","","","","3","html-slider-response","468","","","","5",""
"1334","","","","","3","html-keyboard-response","469","","","","",""
"4367","perfume","katuyoan,bino,sungura,ndogo","katuyoan","f","3","html-keyboard-response","470","f","katuyoan","true","","4"
"2666.5999999046326","","","","","3","html-slider-response","471","","","","5",""
"1134","","","","","3","html-keyboard-response","472","","","","",""
"6345","sheet","juuya,bililhon,watu,kamantis","bililhon","v","3","html-keyboard-response","473","n","kamantis","false","","4"
"2343.7000000476837","","","","","3","html-slider-response","474","","","","4",""
"1969","","","","","3","html-keyboard-response","475","","","","",""
"2139","puppet","napulo,lamok,mazishi,godoro","mazishi","j","3","html-keyboard-response","476","j","mazishi","true","","1"
"3488.5","","","","","3","html-slider-response","477","","","","5",""
"1865","","","","","3","html-keyboard-response","478","","","","",""
"11069","poster","nchi,madungog,fedha,kasuko","madungog","v","3","html-keyboard-response","479","f","nchi","false","","4"
"3306.600000143051","","","","","3","html-slider-response","480","","","","5",""
"3567","","","","","3","html-keyboard-response","481","","","","",""
"3455","music","mraba,mageho,tumbo,baiski","baiski","n","3","html-keyboard-response","482","n","baiski","true","","4"
"3645.7000000476837","","","","","3","html-slider-response","483","","","","5",""
"1116","","","","","3","html-keyboard-response","484","","","","",""
"4699","key","chombo,miaka,goma,ahos","chombo","f","3","html-keyboard-response","485","n","ahos","false","","4"
"2763.5999999046326","","","","","3","html-slider-response","486","","","","5",""
"1568","","","","","3","html-keyboard-response","487","","","","",""
"4667","sock","ndoora,kimysa,mamba,mtirka","mamba","j","3","html-keyboard-response","488","v","kimysa","false","","4"
"1354.7999999523163","","","","","3","html-slider-response","489","","","","5",""
"1490","","","","","3","html-keyboard-response","490","","","","",""
"3927","marker","mapafu,salita,atay,maji","maji","n","3","html-keyboard-response","491","v","salita","false","","4"
"2944.7000000476837","","","","","3","html-slider-response","492","","","","5",""
"4475","","","","","3","html-keyboard-response","493","","","","",""
"4274","office","hazini,yatima,kuna,leso","leso","n","3","html-keyboard-response","494","v","yatima","false","","4"
"1398.5","","","","","3","html-slider-response","495","","","","5",""
"1866","","","","","3","html-keyboard-response","496","","","","",""
"5113","shoe","uyoga,nyeusi,hatua,kama","uyoga","f","3","html-keyboard-response","497","n","kama","false","","4"
"3908.699999809265","","","","","3","html-slider-response","498","","","","4",""
"104880","","","","","3","html-keyboard-response","499","","","","",""
"3810","cop","bustani,jikoni,bakus,mechezo","mechezo","n","3","html-keyboard-response","500","j","bakus","false","","4"
"1932.7999999523163","","","","","3","html-slider-response","501","","","","4",""
"1292","","","","","3","html-keyboard-response","502","","","","",""
"7223","bank","kudhibi,silingan,tualya,ofisi","silingan","v","3","html-keyboard-response","503","n","ofisi","false","","4"
"1543.2999999523163","","","","","3","html-slider-response","504","","","","4",""
"2886","","","","","3","html-keyboard-response","505","","","","",""
"2817","letter","filimbi,kifua,chuma,uhuru","kifua","v","3","html-keyboard-response","506","v","kifua","true","","1"
"1387.7000000476837","","","","","3","html-slider-response","507","","","","4",""
"1672","","","","","3","html-keyboard-response","508","","","","",""
"3332","dog","lubi,washia,kalamu,bahari","bahari","n","3","html-keyboard-response","509","n","bahari","true","","1"
"1720.5999999046326","","","","","3","html-slider-response","510","","","","5",""
"630","","","","","3","html-keyboard-response","511","","","","",""
"5468","shop","nopya,kerida,ndezu,samaki","samaki","n","3","html-keyboard-response","512","j","ndezu","false","","4"
"1436","","","","","3","html-slider-response","513","","","","4",""
"918","","","","","3","html-keyboard-response","514","","","","",""
"4655","flower","tamasha,lobo,usiku,bega","bega","n","3","html-keyboard-response","515","f","tamasha","false","","4"
"1639.5","","","","","3","html-slider-response","516","","","","4",""
"1619","","","","","3","html-keyboard-response","517","","","","",""
"3117","cigar","ndugu,kuta,mlango,adhabu","adhabu","n","3","html-keyboard-response","518","n","adhabu","true","","1"
"1676.4000000953674","","","","","3","html-slider-response","519","","","","5",""
"953","","","","","3","html-keyboard-response","520","","","","",""
"4895","hammer","napakyas,mekno,kitovu,layag","napakyas","f","3","html-keyboard-response","521","n","layag","false","","4"
"1336.0999999046326","","","","","3","html-slider-response","522","","","","5",""
"4607","","","","","3","html-keyboard-response","523","","","","",""
"4571","fork","baboy,paghago,mgonjwa,gorisi","mgonjwa","j","3","html-keyboard-response","524","n","gorisi","false","","4"
"1414.7999999523163","","","","","3","html-slider-response","525","","","","5",""
"676","","","","","3","html-keyboard-response","526","","","","",""
"1986","sun","bendi,basi,luha,uongo","basi","v","3","html-keyboard-response","527","v","basi","true","","1"
"1451.2000000476837","","","","","3","html-slider-response","528","","","","4",""
"504","","","","","3","html-keyboard-response","529","","","","",""
"4476","ladder","mashua,pangalan,mwanga,kamba","pangalan","v","3","html-keyboard-response","530","f","mashua","false","","4"
"1399.7000000476837","","","","","3","html-slider-response","531","","","","5",""
"3710","","","","","3","html-keyboard-response","532","","","","",""
"2012","banana","kasamok,hagdan,twai,kazi","kazi","n","3","html-keyboard-response","533","n","kazi","true","","1"
"1611.1000001430511","","","","","3","html-slider-response","534","","","","5",""
"1262","","","","","3","html-keyboard-response","535","","","","",""
"9930","pudding","abug,mpishi,aibu,iring","aibu","j","3","html-keyboard-response","536","v","mpishi","false","","4"
"1425","","","","","3","html-slider-response","537","","","","5",""
"1131","","","","","3","html-keyboard-response","538","","","","",""
"3624","body","tindashan,nyundu,jibini,kununa","tindashan","f","3","html-keyboard-response","539","j","jibini","false","","4"
"1495.4000000953674","","","","","3","html-slider-response","540","","","","5",""
"536","","","","","3","html-keyboard-response","541","","","","",""
"2171","bed","kalipay,haraka,starehe,mapintas","mapintas","n","3","html-keyboard-response","542","n","mapintas","true","","4"
"1192","","","","","3","html-slider-response","543","","","","4",""
"764","","","","","3","html-keyboard-response","544","","","","",""
"2485","tissue","lamigas,ugomvi,kisiwa,katika","ugomvi","v","3","html-keyboard-response","545","v","ugomvi","true","","4"
"1557.4000000953674","","","","","3","html-slider-response","546","","","","5",""
"640","","","","","3","html-keyboard-response","547","","","","",""
"2753","candle","gabi,geza,farasi,kupanda","geza","v","3","html-keyboard-response","548","n","kupanda","false","","4"
"1558.7000000476837","","","","","3","html-slider-response","549","","","","5",""
"588","","","","","3","html-keyboard-response","550","","","","",""
"2416","tomato","chupi,chupa,mvua,takatak","mvua","j","3","html-keyboard-response","551","j","mvua","true","","1"
"1516.4000000953674","","","","","3","html-slider-response","552","","","","5",""
"509","","","","","3","html-keyboard-response","553","","","","",""
"3009","list","alizeti,kuzama,wingu,kaso","wingu","j","3","html-keyboard-response","554","n","kaso","false","","4"
"1929.2999999523163","","","","","3","html-slider-response","555","","","","5",""
"584","","","","","3","html-keyboard-response","556","","","","",""
"6241","olive","bata,siagi,jiwe,welder","jiwe","j","3","html-keyboard-response","557","f","bata","false","","4"
"1962","","","","","3","html-slider-response","558","","","","5",""
"941","","","","","3","html-keyboard-response","559","","","","",""
"2077","picture","kubwa,silya,chaki,asin","kubwa","f","3","html-keyboard-response","560","f","kubwa","true","","1"
"1494.7000000476837","","","","","3","html-slider-response","561","","","","5",""
"414","","","","","3","html-keyboard-response","562","","","","",""
"5384","page","wakala,wimbo,ishiri,skina","wimbo","v","4","html-keyboard-response","888","j","ishiri","false","",""
"2438.9000000953674","","","","","4","html-slider-response","889","","","","5",""
"10432","sheet","juuya,watu,bililhon,kamantis","bililhon","j","4","html-keyboard-response","890","n","kamantis","false","",""
"2545.9000000953674","","","","","4","html-slider-response","891","","","","4",""
"6461","ladder","mashua,mwanga,kamba,pangalan","pangalan","n","4","html-keyboard-response","892","v","mwanga","false","",""
"1432.8000001907349","","","","","4","html-slider-response","893","","","","4",""
"4683","door","surali,tena,soko,nyota","surali","f","4","html-keyboard-response","894","v","tena","false","",""
"1380.7999999523163","","","","","4","html-slider-response","895","","","","5",""
"4682","spider","bunyag,mkboa,kamwe,atop","kamwe","j","4","html-keyboard-response","896","j","kamwe","true","",""
"1517.6000001430511","","","","","4","html-slider-response","897","","","","5",""
"6066","picture","silya,chaki,asin,kubwa","kubwa","n","4","html-keyboard-response","898","n","kubwa","true","",""
"1416.6000001430511","","","","","4","html-slider-response","899","","","","5",""
"8483","boat","hamsi,agalon,pombe,kitanda","agalon","v","4","html-keyboard-response","900","n","kitanda","false","",""
"1529.8999998569489","","","","","4","html-slider-response","901","","","","5",""
"165506","donkey","bloke,lalake,elfu,rombus","elfu","j","4","html-keyboard-response","902","f","bloke","false","",""
"5536.5","","","","","4","html-slider-response","903","","","","5",""
"36220","book","kuhesa,mali,picha,mara","mali","v","4","html-keyboard-response","904","v","mali","true","",""
"2249.4000000953674","","","","","4","html-slider-response","905","","","","5",""
"4801","cup","dagat,shimoni,jeraha,matumai","matumai","n","4","html-keyboard-response","906","f","dagat","false","",""
"5710","","","","","4","html-slider-response","907","","","","5",""
"5154","sun","bendi,basi,luha,uongo","basi","v","4","html-keyboard-response","908","v","basi","true","",""
"1602.8999998569489","","","","","4","html-slider-response","909","","","","5",""
"6450","pudding","abug,mpishi,iring,aibu","aibu","n","4","html-keyboard-response","910","v","mpishi","false","",""
"2206.899999856949","","","","","4","html-slider-response","911","","","","4",""
"5646","human","bado,kikapu,punguza,tinapay","tinapay","n","4","html-keyboard-response","912","v","kikapu","false","",""
"1660.1000001430511","","","","","4","html-slider-response","913","","","","5",""
"5340","squirrel","mahugaw,ukweli,hofu,kichwa","hofu","j","4","html-keyboard-response","914","f","mahugaw","false","",""
"1535.7999999523163","","","","","4","html-slider-response","915","","","","5",""
"12063","park","tambok,pwani,bunifu,ihalas","bunifu","j","4","html-keyboard-response","916","v","pwani","false","",""
"1742.8999998569489","","","","","4","html-slider-response","917","","","","4",""
"33688","poster","madungog,nchi,fedha,kasuko","madungog","f","4","html-keyboard-response","918","n","kasuko","false","",""
"3454","","","","","4","html-slider-response","919","","","","5",""
"14973","wolf","kaburi,ndizi,lugha,mchuzi","lugha","j","4","html-keyboard-response","920","n","mchuzi","false","",""
"2967.7999999523163","","","","","4","html-slider-response","921","","","","5",""
"6880","cat","neyemba,paghukom,baki,akili","paghukom","v","4","html-keyboard-response","922","f","neyemba","false","",""
"1640.4000000953674","","","","","4","html-slider-response","923","","","","5",""
"19511","fish","bala,buli,baho,imani","buli","v","4","html-keyboard-response","924","f","bala","false","",""
"2289.7000000476837","","","","","4","html-slider-response","925","","","","5",""
"6212","tooth","kijiko,uadui,kabalaka,pahiyum","kabalaka","j","4","html-keyboard-response","926","n","pahiyum","false","",""
"1761.7000000476837","","","","","4","html-slider-response","927","","","","5",""
"5313","cave","ganti,maisha,kesho,nyundo","kesho","j","4","html-keyboard-response","928","n","nyundo","false","",""
"2114.5999999046326","","","","","4","html-slider-response","929","","","","5",""
"7562","lamp","daub,bilaska,mbolea,afya","afya","n","4","html-keyboard-response","930","n","afya","true","",""
"2798.0999999046326","","","","","4","html-slider-response","931","","","","4",""
"3991","banana","kasamok,kazi,hagdan,twai","kazi","v","4","html-keyboard-response","932","f","kasamok","false","",""
"2960.7000000476837","","","","","4","html-slider-response","933","","","","5",""
"31167","bonfire","mwezi,mfuko,kusanya,goti","goti","n","4","html-keyboard-response","934","v","mfuko","false","",""
"2238.0999999046326","","","","","4","html-slider-response","935","","","","5",""
"5940","cop","mechezo,bustani,jikoni,bakus","mechezo","f","4","html-keyboard-response","936","n","bakus","false","",""
"1668.0999999046326","","","","","4","html-slider-response","937","","","","5",""
"6497","marker","mapafu,salita,maji,atay","maji","j","4","html-keyboard-response","938","j","maji","true","",""
"2185.399999856949","","","","","4","html-slider-response","939","","","","5",""
"4371","window","kweli,nanga,kujenga,umaga","kweli","f","4","html-keyboard-response","940","f","kweli","true","",""
"1609.3999998569489","","","","","4","html-slider-response","941","","","","5",""
"9632","body","tindashan,nyundu,jibini,kununa","tindashan","f","4","html-keyboard-response","942","n","kununa","false","",""
"1639.2999999523163","","","","","4","html-slider-response","943","","","","5",""
"5709","apple","kisu,ukame,estante,edad","kisu","f","4","html-keyboard-response","944","n","edad","false","",""
"1555.7999999523163","","","","","4","html-slider-response","945","","","","4",""
"3412","salmon","mzungu,sensilyo,seri,baharia","sensilyo","v","4","html-keyboard-response","946","n","baharia","false","",""
"1362.5","","","","","4","html-slider-response","947","","","","5",""
"4910","bed","mapintas,kalipay,haraka,starehe","mapintas","f","4","html-keyboard-response","948","v","kalipay","false","",""
"1457.0999999046326","","","","","4","html-slider-response","949","","","","5",""
"4648","berry","kofia,abogado,nogozi,kinywa","kofia","f","4","html-keyboard-response","950","n","kinywa","false","",""
"1427.5","","","","","4","html-slider-response","951","","","","5",""
"3334","mirror","sulagma,rangi,kanding,furaha","sulagma","f","4","html-keyboard-response","952","n","furaha","false","",""
"1663.1999998092651","","","","","4","html-slider-response","953","","","","5",""
"3989","flag","ndege,mkate,trekta,kawa","trekta","j","4","html-keyboard-response","954","f","ndege","false","",""
"1283.7000000476837","","","","","4","html-slider-response","955","","","","5",""
"6590","shoulder","kelele,ndaniya,mkuu,guruwe","mkuu","j","4","html-keyboard-response","956","j","mkuu","true","",""
"1508.7999999523163","","","","","4","html-slider-response","957","","","","5",""
"5169","tissue","ugomvi,lamigas,kisiwa,katika","ugomvi","f","4","html-keyboard-response","958","n","katika","false","",""
"2769.100000143051","","","","","4","html-slider-response","959","","","","5",""
"4211","notebook","msitu,kila,kemia,mdudu","kemia","j","4","html-keyboard-response","960","v","kila","false","",""
"1531.1000001430511","","","","","4","html-slider-response","961","","","","5",""
"9018","snake","pagtukod,jansa,karon,mvringo","pagtukod","f","4","html-keyboard-response","962","n","mvringo","false","",""
"2632.2000000476837","","","","","4","html-slider-response","963","","","","5",""
"8216","finger","moyo,simu,sufuria,lima","moyo","f","4","html-keyboard-response","964","n","lima","false","",""
"1413","","","","","4","html-slider-response","965","","","","5",""
"7121","basket","kumba,kumbuka,utepe,hasira","kumba","f","4","html-keyboard-response","966","f","kumba","true","",""
"2784.5999999046326","","","","","4","html-slider-response","967","","","","5",""
"13848","curtain","mchanga,lisud,bulwawan,chubani","mchanga","f","4","html-keyboard-response","968","j","bulwawan","false","",""
"1904.1000001430511","","","","","4","html-slider-response","969","","","","5",""
"9605","perfume","bino,katuyoan,sungura,ndogo","katuyoan","v","4","html-keyboard-response","970","f","bino","false","",""
"1478.5","","","","","4","html-slider-response","971","","","","5",""
"5104","key","miaka,goma,chombo,ahos","chombo","j","4","html-keyboard-response","972","j","chombo","true","",""
"2046.8000001907349","","","","","4","html-slider-response","973","","","","5",""
"3736","olive","jiwe,bata,siagi,welder","jiwe","f","4","html-keyboard-response","974","f","jiwe","true","",""
"2063.800000190735","","","","","4","html-slider-response","975","","","","5",""
"4904","rose","singizi,paghalad,mwanake,amani","paghalad","v","4","html-keyboard-response","976","j","mwanake","false","",""
"1340.9000000953674","","","","","4","html-slider-response","977","","","","5",""
"8937","bridge","daima,ngono,sahani,panya","sahani","j","4","html-keyboard-response","978","n","panya","false","",""
"2042.2999999523163","","","","","4","html-slider-response","979","","","","5",""
"3371","hill","kushoto,kukimba,matumbo,sweta","matumbo","j","4","html-keyboard-response","980","j","matumbo","true","",""
"1971.2999999523163","","","","","4","html-slider-response","981","","","","5",""
"3578","letter","kifua,filimbi,chuma,uhuru","kifua","f","4","html-keyboard-response","982","f","kifua","true","",""
"1481.7000000476837","","","","","4","html-slider-response","983","","","","5",""
"3715","sock","ndoora,kimysa,mamba,mtirka","mamba","j","4","html-keyboard-response","984","v","kimysa","false","",""
"1476.8000001907349","","","","","4","html-slider-response","985","","","","5",""
"12090","fork","baboy,mgonjwa,paghago,gorisi","mgonjwa","v","4","html-keyboard-response","986","n","gorisi","false","",""
"1402.7999999523163","","","","","4","html-slider-response","987","","","","5",""
"12663","box","kuacha,adui,rafiki,kitande","adui","v","4","html-keyboard-response","988","j","rafiki","false","",""
"2537.899999856949","","","","","4","html-slider-response","989","","","","5",""
"7962","gift","baba,pagtawag,nyange,baso","pagtawag","v","4","html-keyboard-response","990","f","baba","false","",""
"1383","","","","","4","html-slider-response","991","","","","5",""
"6691","bucket","baga,ijayo,init,kiatu","kiatu","n","4","html-keyboard-response","992","n","kiatu","true","",""
"1415","","","","","4","html-slider-response","993","","","","5",""
"4567","shop","nopya,kerida,ndezu,samaki","samaki","n","4","html-keyboard-response","994","f","nopya","false","",""
"1371.2999999523163","","","","","4","html-slider-response","995","","","","5",""
"7521","puppet","napulo,lamok,mazishi,godoro","mazishi","j","4","html-keyboard-response","996","n","godoro","false","",""
"1346.7999999523163","","","","","4","html-slider-response","997","","","","5",""
"4484","nose","gubat,kopa,sehemu,kidole","sehemu","j","4","html-keyboard-response","998","j","sehemu","true","",""
"1343.0999999046326","","","","","4","html-slider-response","999","","","","5",""
"3027","music","mraba,mageho,baiski,tumbo","baiski","j","4","html-keyboard-response","1000","j","baiski","true","",""
"1386.3999998569489","","","","","4","html-slider-response","1001","","","","5",""
"2555","dog","lubi,washia,bahari,kalamu","bahari","j","4","html-keyboard-response","1002","j","bahari","true","",""
"1343.6000001430511","","","","","4","html-slider-response","1003","","","","5",""
"4004","eel","ishara,msumari,kunywa,kabuang","msumari","v","4","html-keyboard-response","1004","v","msumari","true","",""
"1411.3999998569489","","","","","4","html-slider-response","1005","","","","5",""
"4235","number","mundamo,shule,kengele,choori","mundamo","f","4","html-keyboard-response","1006","f","mundamo","true","",""
"1387.3999998569489","","","","","4","html-slider-response","1007","","","","5",""
"5737","tomato","mvua,chupi,chupa,takatak","mvua","f","4","html-keyboard-response","1008","f","mvua","true","",""
"1372","","","","","4","html-slider-response","1009","","","","5",""
"7346","coffin","kioo,barua,tubag,hulma","kioo","f","4","html-keyboard-response","1010","f","kioo","true","",""
"1313","","","","","4","html-slider-response","1011","","","","5",""
"5056","knee","mvuke,kubale,bili,duka","duka","n","4","html-keyboard-response","1012","v","kubale","false","",""
"1336.5","","","","","4","html-slider-response","1013","","","","5",""
"10219","woman","pagtabon,bandari,bituin,kovuli","pagtabon","f","4","html-keyboard-response","1014","v","bandari","false","",""
"1322.8999998569489","","","","","4","html-slider-response","1015","","","","5",""
"7397","stone","wingi,ulimwengu,mkasi,asili","wingi","f","4","html-keyboard-response","1016","j","mkasi","false","",""
"1271.7999999523163","","","","","4","html-slider-response","1017","","","","5",""
"3756","bread","kaili,dizeli,bugas,dari","dari","n","4","html-keyboard-response","1018","n","dari","true","",""
"1493.6999998092651","","","","","4","html-slider-response","1019","","","","5",""
"43873","triangle","kihozi,kasadpan,bentaha,liog","kasadpan","v","4","html-keyboard-response","1020","f","kihozi","false","",""
"2143.5","","","","","4","html-slider-response","1021","","","","5",""
"5538","scissors","duga,tanuri,mtawa,suga","tanuri","v","4","html-keyboard-response","1022","f","duga","false","",""
"1405.5","","","","","4","html-slider-response","1023","","","","5",""
"4976","giraffe","daraja,mahitabo,jumatu,hangyo","mahitabo","v","4","html-keyboard-response","1024","v","mahitabo","true","",""
"1314.8000001907349","","","","","4","html-slider-response","1025","","","","5",""
"3456","flower","tamasha,lobo,usiku,bega","bega","n","4","html-keyboard-response","1026","n","bega","true","",""
"1242.8999998569489","","","","","4","html-slider-response","1027","","","","5",""
"3771","candle","gabi,farasi,geza,kupanda","geza","j","4","html-keyboard-response","1028","f","gabi","false","",""
"1238.9000000953674","","","","","4","html-slider-response","1029","","","","5",""
"3038","mother","kahawa,babaye,mbuzi,jokofu","babaye","v","4","html-keyboard-response","1030","v","babaye","true","",""
"1326","","","","","4","html-slider-response","1031","","","","5",""
"2912","towel","pagpalit,tembo,funzi,pito","pagpalit","f","4","html-keyboard-response","1032","n","pito","false","",""
"1343.2000000476837","","","","","4","html-slider-response","1033","","","","5",""
"6004","elephant","petye,kito,pagduol,suka","kito","v","4","html-keyboard-response","1034","v","kito","true","",""
"1661.5","","","","","4","html-slider-response","1035","","","","5",""
"11641","shelf","pamahaw,bungtod,kadaot,awit","pamahaw","f","4","html-keyboard-response","1036","n","awit","false","",""
"1461.7000000476837","","","","","4","html-slider-response","1037","","","","5",""
"5577","mosquito","martilyo,isda,taras,gutom","martilyo","f","4","html-keyboard-response","1038","n","gutom","false","",""
"1499","","","","","4","html-slider-response","1039","","","","5",""
"4134","column","ufagio,pundok,dila,pala","ufagio","f","4","html-keyboard-response","1040","v","pundok","false","",""
"1317.5","","","","","4","html-slider-response","1041","","","","5",""
"5765","pants","pintal,chuki,hari,haki","haki","n","4","html-keyboard-response","1042","j","hari","false","",""
"1300.7000000476837","","","","","4","html-slider-response","1043","","","","5",""
"4135","list","wingu,alizeti,kuzama,kaso","wingu","f","4","html-keyboard-response","1044","f","wingu","true","",""
"2746.600000143051","","","","","4","html-slider-response","1045","","","","5",""
"6820","bank","kudhibi,silingan,tualya,ofisi","silingan","v","4","html-keyboard-response","1046","n","ofisi","false","",""
"1300","","","","","4","html-slider-response","1047","","","","5",""
"3607","clock","mbwa,kartasi,abang,osha","mbwa","f","4","html-keyboard-response","1048","f","mbwa","true","",""
"1310","","","","","4","html-slider-response","1049","","","","5",""
"4579","ceiling","kugita,maua,kawaida,rayna","maua","v","4","html-keyboard-response","1050","v","maua","true","",""
"1417.4000000953674","","","","","4","html-slider-response","1051","","","","5",""
"3497","train","itik,sayari,dakika,mungu","sayari","v","4","html-keyboard-response","1052","n","mungu","false","",""
"2056","","","","","4","html-slider-response","1053","","","","5",""
"7392","magazine","kiti,gundi,mchawi,bahandi","kiti","f","4","html-keyboard-response","1054","f","kiti","true","",""
"1316.2999999523163","","","","","4","html-slider-response","1055","","","","5",""
"6548","office","hazini,yatima,leso,kuna","leso","j","4","html-keyboard-response","1056","v","yatima","false","",""
"1652.0999999046326","","","","","4","html-slider-response","1057","","","","5",""
"4485","wheel","punda,bafuni,tawo,baadaye","bafuni","v","4","html-keyboard-response","1058","n","baadaye","false","",""
"1312.4000000953674","","","","","4","html-slider-response","1059","","","","5",""
"4443","spoon","betri,nzuri,pagsulod,ngazi","pagsulod","j","4","html-keyboard-response","1060","v","nzuri","false","",""
"1318.2000000476837","","","","","4","html-slider-response","1061","","","","5",""
"3448","hammer","mekno,napakyas,kitovu,layag","napakyas","v","4","html-keyboard-response","1062","v","napakyas","true","",""
"1645","","","","","4","html-slider-response","1063","","","","5",""
"6907","cigar","ndugu,kuta,adhabu,mlango","adhabu","j","4","html-keyboard-response","1064","n","mlango","false","",""
"1377.2999999523163","","","","","4","html-slider-response","1065","","","","5",""
"22556","shoe","nyeusi,uyoga,hatua,kama","uyoga","v","4","html-keyboard-response","1066","f","nyeusi","false","",""
"1319.5","","","","","4","html-slider-response","1067","","","","5",""
"9666","list","wingu,alizeti,kuzama,kaso","wingu","f","5","html-keyboard-response","1069","f","wingu","true","",""
"1820.4000000953674","","","","","5","html-slider-response","1070","","","","5",""
"4286","number","shule,kengele,choori,mundamo","mundamo","n","5","html-keyboard-response","1071","n","mundamo","true","",""
"1280.3000001907349","","","","","5","html-slider-response","1072","","","","5",""
"2927","apple","kisu,ukame,estante,edad","kisu","f","5","html-keyboard-response","1073","f","kisu","true","",""
"1197.2000000476837","","","","","5","html-slider-response","1074","","","","5",""
"4558","knee","mvuke,kubale,bili,duka","duka","n","5","html-keyboard-response","1075","v","kubale","false","",""
"1839.2999999523163","","","","","5","html-slider-response","1076","","","","5",""
"3463","tooth","kijiko,uadui,kabalaka,pahiyum","kabalaka","j","5","html-keyboard-response","1077","n","pahiyum","false","",""
"1255.2000000476837","","","","","5","html-slider-response","1078","","","","5",""
"3976","berry","abogado,kofia,nogozi,kinywa","kofia","v","5","html-keyboard-response","1079","n","kinywa","false","",""
"1220.7999999523163","","","","","5","html-slider-response","1080","","","","5",""
"4277","bridge","daima,sahani,ngono,panya","sahani","v","5","html-keyboard-response","1081","v","sahani","true","",""
"1259.2999999523163","","","","","5","html-slider-response","1082","","","","5",""
"7229","perfume","bino,katuyoan,sungura,ndogo","katuyoan","v","5","html-keyboard-response","1083","v","katuyoan","true","",""
"1220.2999999523163","","","","","5","html-slider-response","1084","","","","5",""
"4946","ladder","mashua,pangalan,mwanga,kamba","pangalan","v","5","html-keyboard-response","1085","v","pangalan","true","",""
"2607.7999999523163","","","","","5","html-slider-response","1086","","","","5",""
"9125","pants","pintal,haki,chuki,hari","haki","v","5","html-keyboard-response","1087","f","pintal","false","",""
"2272.0999999046326","","","","","5","html-slider-response","1088","","","","5",""
"4722","salmon","sensilyo,mzungu,seri,baharia","sensilyo","f","5","html-keyboard-response","1089","n","baharia","false","",""
"1222.3999998569489","","","","","5","html-slider-response","1090","","","","5",""
"4036","coffin","kioo,barua,tubag,hulma","kioo","f","5","html-keyboard-response","1091","f","kioo","true","",""
"1272.5","","","","","5","html-slider-response","1092","","","","5",""
"3845","park","tambok,pwani,bunifu,ihalas","bunifu","j","5","html-keyboard-response","1093","v","pwani","false","",""
"1220.3999998569489","","","","","5","html-slider-response","1094","","","","5",""
"7152","giraffe","daraja,jumatu,mahitabo,hangyo","mahitabo","j","5","html-keyboard-response","1095","v","jumatu","false","",""
"1287.7999999523163","","","","","5","html-slider-response","1096","","","","5",""
"7423","mirror","rangi,kanding,sulagma,furaha","sulagma","j","5","html-keyboard-response","1097","j","sulagma","true","",""
"1305.6000001430511","","","","","5","html-slider-response","1098","","","","5",""
"5375","ceiling","maua,kugita,kawaida,rayna","maua","f","5","html-keyboard-response","1099","v","kugita","false","",""
"1183.3999998569489","","","","","5","html-slider-response","1100","","","","5",""
"3835","marker","mapafu,salita,atay,maji","maji","n","5","html-keyboard-response","1101","n","maji","true","",""
"1045","","","","","5","html-slider-response","1102","","","","5",""
"56698","sock","mamba,ndoora,kimysa,mtirka","mamba","f","5","html-keyboard-response","1103","f","mamba","true","",""
"3436.600000143051","","","","","5","html-slider-response","1104","","","","5",""
"3598","cop","mechezo,bustani,jikoni,bakus","mechezo","f","5","html-keyboard-response","1105","n","bakus","false","",""
"3279.100000143051","","","","","5","html-slider-response","1106","","","","5",""
"4154","gift","pagtawag,baba,nyange,baso","pagtawag","f","5","html-keyboard-response","1107","f","pagtawag","true","",""
"3998.4000000953674","","","","","5","html-slider-response","1108","","","","5",""
"3484","notebook","msitu,kemia,kila,mdudu","kemia","v","5","html-keyboard-response","1109","n","mdudu","false","",""
"2719.2999999523163","","","","","5","html-slider-response","1110","","","","5",""
"3090","bank","kudhibi,silingan,tualya,ofisi","silingan","v","5","html-keyboard-response","1111","n","ofisi","false","",""
"4038.5","","","","","5","html-slider-response","1112","","","","5",""
"55949","letter","filimbi,chuma,uhuru,kifua","kifua","n","5","html-keyboard-response","1113","n","kifua","true","",""
"2026.7999999523163","","","","","5","html-slider-response","1114","","","","5",""
"4255","candle","gabi,geza,farasi,kupanda","geza","v","5","html-keyboard-response","1115","n","kupanda","false","",""
"1255.8999998569489","","","","","5","html-slider-response","1116","","","","5",""
"5155","bread","kaili,dizeli,dari,bugas","dari","j","5","html-keyboard-response","1117","j","dari","true","",""
"1121.6000001430511","","","","","5","html-slider-response","1118","","","","5",""
"2920","snake","pagtukod,jansa,karon,mvringo","pagtukod","f","5","html-keyboard-response","1119","f","pagtukod","true","",""
"1207.5","","","","","5","html-slider-response","1120","","","","5",""
"2592","rose","singizi,paghalad,mwanake,amani","paghalad","v","5","html-keyboard-response","1121","v","paghalad","true","",""
"1188.0999999046326","","","","","5","html-slider-response","1122","","","","5",""
"3501","hill","matumbo,kushoto,kukimba,sweta","matumbo","f","5","html-keyboard-response","1123","f","matumbo","true","",""
"1260.3999998569489","","","","","5","html-slider-response","1124","","","","5",""
"4397","train","itik,dakika,sayari,mungu","sayari","j","5","html-keyboard-response","1125","j","sayari","true","",""
"1315.0999999046326","","","","","5","html-slider-response","1126","","","","5",""
"4278","shop","nopya,kerida,samaki,ndezu","samaki","j","5","html-keyboard-response","1127","j","samaki","true","",""
"1743","","","","","5","html-slider-response","1128","","","","5",""
"3962","nose","gubat,kopa,sehemu,kidole","sehemu","j","5","html-keyboard-response","1129","j","sehemu","true","",""
"1237.6999998092651","","","","","5","html-slider-response","1130","","","","5",""
"3984","boat","hamsi,pombe,kitanda,agalon","agalon","n","5","html-keyboard-response","1131","j","kitanda","false","",""
"1125.9000000953674","","","","","5","html-slider-response","1132","","","","5",""
"9266","body","nyundu,jibini,kununa,tindashan","tindashan","n","5","html-keyboard-response","1133","v","jibini","false","",""
"1224.5","","","","","5","html-slider-response","1134","","","","5",""
"10339","bed","mapintas,kalipay,haraka,starehe","mapintas","f","5","html-keyboard-response","1135","v","kalipay","false","",""
"1374.2999999523163","","","","","5","html-slider-response","1136","","","","5",""
"6318","squirrel","mahugaw,hofu,ukweli,kichwa","hofu","v","5","html-keyboard-response","1137","f","mahugaw","false","",""
"1179.3999998569489","","","","","5","html-slider-response","1138","","","","5",""
"5327","window","nanga,kujenga,umaga,kweli","kweli","n","5","html-keyboard-response","1139","n","kweli","true","",""
"1287.4000000953674","","","","","5","html-slider-response","1140","","","","5",""
"4352","bonfire","goti,mwezi,mfuko,kusanya","goti","f","5","html-keyboard-response","1141","n","kusanya","false","",""
"1248","","","","","5","html-slider-response","1142","","","","5",""
"4279","fish","bala,buli,baho,imani","buli","v","5","html-keyboard-response","1143","v","buli","true","",""
"1187.7000000476837","","","","","5","html-slider-response","1144","","","","5",""
"3428","cat","neyemba,baki,akili,paghukom","paghukom","n","5","html-keyboard-response","1145","n","paghukom","true","",""
"2109.2999999523163","","","","","5","html-slider-response","1146","","","","5",""
"14052","spider","bunyag,mkboa,atop,kamwe","kamwe","n","5","html-keyboard-response","1147","n","kamwe","true","",""
"1232.7999999523163","","","","","5","html-slider-response","1148","","","","5",""
"4084","eel","ishara,kunywa,kabuang,msumari","msumari","n","5","html-keyboard-response","1149","v","kunywa","false","",""
"1170.5","","","","","5","html-slider-response","1150","","","","5",""
"7450","woman","pagtabon,bandari,bituin,kovuli","pagtabon","f","5","html-keyboard-response","1151","v","bandari","false","",""
"1281.2000000476837","","","","","5","html-slider-response","1152","","","","5",""
"3172","magazine","gundi,kiti,mchawi,bahandi","kiti","v","5","html-keyboard-response","1153","v","kiti","true","",""
"1268.0999999046326","","","","","5","html-slider-response","1154","","","","5",""
"4336","pudding","aibu,abug,mpishi,iring","aibu","f","5","html-keyboard-response","1155","v","abug","false","",""
"1324.3999998569489","","","","","5","html-slider-response","1156","","","","5",""
"5074","lamp","daub,bilaska,mbolea,afya","afya","n","5","html-keyboard-response","1157","n","afya","true","",""
"1317.2999999523163","","","","","5","html-slider-response","1158","","","","5",""
"9759","cave","ganti,maisha,kesho,nyundo","kesho","j","5","html-keyboard-response","1159","v","maisha","false","",""
"1252.3999998569489","","","","","5","html-slider-response","1160","","","","5",""
"5566","shoulder","kelele,ndaniya,guruwe,mkuu","mkuu","n","5","html-keyboard-response","1161","v","ndaniya","false","",""
"2159.7999999523163","","","","","5","html-slider-response","1162","","","","5",""
"4598","stone","ulimwengu,mkasi,asili,wingi","wingi","n","5","html-keyboard-response","1163","v","mkasi","false","",""
"1258.2999999523163","","","","","5","html-slider-response","1164","","","","5",""
"5469","column","pundok,ufagio,dila,pala","ufagio","v","5","html-keyboard-response","1165","f","pundok","false","",""
"1193.7999999523163","","","","","5","html-slider-response","1166","","","","5",""
"10974","page","wimbo,wakala,ishiri,skina","wimbo","f","5","html-keyboard-response","1167","j","ishiri","false","",""
"1275.3999998569489","","","","","5","html-slider-response","1168","","","","5",""
"5192","shoe","nyeusi,hatua,uyoga,kama","uyoga","j","5","html-keyboard-response","1169","n","kama","false","",""
"1273.8999998569489","","","","","5","html-slider-response","1170","","","","5",""
"4907","clock","kartasi,abang,osha,mbwa","mbwa","n","5","html-keyboard-response","1171","n","mbwa","true","",""
"1124.7999999523163","","","","","5","html-slider-response","1172","","","","5",""
"4092","towel","tembo,pagpalit,funzi,pito","pagpalit","v","5","html-keyboard-response","1173","n","pito","false","",""
"1202.7000000476837","","","","","5","html-slider-response","1174","","","","5",""
"4084","tomato","chupi,chupa,mvua,takatak","mvua","j","5","html-keyboard-response","1175","j","mvua","true","",""
"1290","","","","","5","html-slider-response","1176","","","","5",""
"2653","bucket","baga,ijayo,init,kiatu","kiatu","n","5","html-keyboard-response","1177","n","kiatu","true","",""
"1204.0999999046326","","","","","5","html-slider-response","1178","","","","5",""
"4340","finger","simu,sufuria,moyo,lima","moyo","j","5","html-keyboard-response","1179","n","lima","false","",""
"1245.4000000953674","","","","","5","html-slider-response","1180","","","","5",""
"3016","mother","babaye,kahawa,mbuzi,jokofu","babaye","f","5","html-keyboard-response","1181","f","babaye","true","",""
"1243.5","","","","","5","html-slider-response","1182","","","","5",""
"6944","human","bado,kikapu,tinapay,punguza","tinapay","j","5","html-keyboard-response","1183","n","punguza","false","",""
"1331.2999999523163","","","","","5","html-slider-response","1184","","","","5",""
"3387","sun","bendi,luha,basi,uongo","basi","j","5","html-keyboard-response","1185","v","luha","false","",""
"1324.5999999046326","","","","","5","html-slider-response","1186","","","","5",""
"7158","fork","baboy,paghago,mgonjwa,gorisi","mgonjwa","j","5","html-keyboard-response","1187","v","paghago","false","",""
"1239.1000001430511","","","","","5","html-slider-response","1188","","","","5",""
"5886","donkey","elfu,bloke,lalake,rombus","elfu","f","5","html-keyboard-response","1189","f","elfu","true","",""
"1593.7999999523163","","","","","5","html-slider-response","1190","","","","5",""
"14405","wolf","kaburi,ndizi,mchuzi,lugha","lugha","n","5","html-keyboard-response","1191","f","kaburi","false","",""
"2791.2000000476837","","","","","5","html-slider-response","1192","","","","5",""
"3806","cigar","ndugu,adhabu,kuta,mlango","adhabu","v","5","html-keyboard-response","1193","n","mlango","false","",""
"1176.2999999523163","","","","","5","html-slider-response","1194","","","","5",""
"4179","olive","bata,jiwe,siagi,welder","jiwe","v","5","html-keyboard-response","1195","n","welder","false","",""
"1324.2000000476837","","","","","5","html-slider-response","1196","","","","5",""
"4464","key","miaka,chombo,goma,ahos","chombo","v","5","html-keyboard-response","1197","v","chombo","true","",""
"1147.7999999523163","","","","","5","html-slider-response","1198","","","","5",""
"4452","door","tena,soko,surali,nyota","surali","j","5","html-keyboard-response","1199","n","nyota","false","",""
"1221","","","","","5","html-slider-response","1200","","","","5",""
"4987","wheel","punda,bafuni,tawo,baadaye","bafuni","v","5","html-keyboard-response","1201","n","baadaye","false","",""
"1227.7999999523163","","","","","5","html-slider-response","1202","","","","5",""
"6242","basket","kumbuka,utepe,kumba,hasira","kumba","j","5","html-keyboard-response","1203","j","kumba","true","",""
"1193.5999999046326","","","","","5","html-slider-response","1204","","","","5",""
"4846","elephant","petye,pagduol,kito,suka","kito","j","5","html-keyboard-response","1205","j","kito","true","",""
"1333.7999999523163","","","","","5","html-slider-response","1206","","","","5",""
"4343","office","hazini,yatima,kuna,leso","leso","n","5","html-keyboard-response","1207","n","leso","true","",""
"2100.800000190735","","","","","5","html-slider-response","1208","","","","5",""
"2765","music","mraba,baiski,mageho,tumbo","baiski","v","5","html-keyboard-response","1209","v","baiski","true","",""
"1909.2999999523163","","","","","5","html-slider-response","1210","","","","5",""
"4471","tissue","lamigas,kisiwa,ugomvi,katika","ugomvi","j","5","html-keyboard-response","1211","n","katika","false","",""
"1183.5","","","","","5","html-slider-response","1212","","","","5",""
"4820","curtain","lisud,bulwawan,mchanga,chubani","mchanga","j","5","html-keyboard-response","1213","n","chubani","false","",""
"1121.4000000953674","","","","","5","html-slider-response","1214","","","","5",""
"4115","flag","ndege,trekta,mkate,kawa","trekta","v","5","html-keyboard-response","1215","n","kawa","false","",""
"1161","","","","","5","html-slider-response","1216","","","","5",""
"3567","dog","bahari,lubi,washia,kalamu","bahari","f","5","html-keyboard-response","1217","f","bahari","true","",""
"1097.8000001907349","","","","","5","html-slider-response","1218","","","","5",""
"8090","cup","dagat,shimoni,matumai,jeraha","matumai","j","5","html-keyboard-response","1219","j","matumai","true","",""
"1153.8000001907349","","","","","5","html-slider-response","1220","","","","5",""
"5073","sheet","bililhon,juuya,watu,kamantis","bililhon","f","5","html-keyboard-response","1221","v","juuya","false","",""
"1187.9000000953674","","","","","5","html-slider-response","1222","","","","5",""
"12438","spoon","betri,nzuri,ngazi,pagsulod","pagsulod","n","5","html-keyboard-response","1223","n","pagsulod","true","",""
"1192.5999999046326","","","","","5","html-slider-response","1224","","","","5",""
"4088","flower","tamasha,bega,lobo,usiku","bega","v","5","html-keyboard-response","1225","f","tamasha","false","",""
"1164.4000000953674","","","","","5","html-slider-response","1226","","","","5",""
"4085","picture","silya,chaki,kubwa,asin","kubwa","j","5","html-keyboard-response","1227","j","kubwa","true","",""
"1151.8999998569489","","","","","5","html-slider-response","1228","","","","5",""
"4365","puppet","napulo,lamok,godoro,mazishi","mazishi","n","5","html-keyboard-response","1229","f","napulo","false","",""
"1189.6000001430511","","","","","5","html-slider-response","1230","","","","5",""
"4479","banana","kasamok,hagdan,kazi,twai","kazi","j","5","html-keyboard-response","1231","f","kasamok","false","",""
"1333.7999999523163","","","","","5","html-slider-response","1232","","","","5",""
"3222","book","kuhesa,picha,mara,mali","mali","n","5","html-keyboard-response","1233","n","mali","true","",""
"1199.5999999046326","","","","","5","html-slider-response","1234","","","","5",""
"4054","triangle","kihozi,kasadpan,bentaha,liog","kasadpan","v","5","html-keyboard-response","1235","j","bentaha","false","",""
"1216.0999999046326","","","","","5","html-slider-response","1236","","","","5",""
"5803","poster","madungog,nchi,fedha,kasuko","madungog","f","5","html-keyboard-response","1237","f","madungog","true","",""
"1235.1000001430511","","","","","5","html-slider-response","1238","","","","5",""
"8798","box","kuacha,rafiki,kitande,adui","adui","n","5","html-keyboard-response","1239","j","kitande","false","",""
"1244.9000000953674","","","","","5","html-slider-response","1240","","","","5",""
"7932","mosquito","martilyo,isda,taras,gutom","martilyo","f","5","html-keyboard-response","1241","v","isda","false","",""
"1190.5","","","","","5","html-slider-response","1242","","","","5",""
"5036","shelf","pamahaw,bungtod,kadaot,awit","pamahaw","f","5","html-keyboard-response","1243","n","awit","false","",""
"1252.5999999046326","","","","","5","html-slider-response","1244","","","","5",""
"6285","scissors","duga,tanuri,mtawa,suga","tanuri","v","5","html-keyboard-response","1245","j","mtawa","false","",""
"1203.9000000953674","","","","","5","html-slider-response","1246","","","","5",""
"3548","hammer","napakyas,mekno,kitovu,layag","napakyas","f","5","html-keyboard-response","1247","f","napakyas","true","",""
"1210","","","","","5","html-slider-response","1248","","","","5",""
