"rt","en_word","options","swa_word","correct_answer","phase","trial_type","trial_index","input_answer","input_word","accuracy","certainty","amt_choices"
"5912","bonfire","goti,mwezi,mfuko,kusanya","goti","f","2","html-keyboard-response","106","n","kusanya","false","",""
"3630","","","","","2","html-slider-response","107","","","","1",""
"4048","flower","tamasha,lobo,bega,usiku","bega","j","2","html-keyboard-response","108","f","tamasha","false","",""
"1660","","","","","2","html-slider-response","109","","","","2",""
"3741","column","ufagio,pundok,dila,pala","ufagio","f","2","html-keyboard-response","110","f","ufagio","true","",""
"5558","","","","","2","html-slider-response","111","","","","2",""
"8006","music","mraba,mageho,baiski,tumbo","baiski","j","2","html-keyboard-response","112","j","baiski","true","",""
"2270","","","","","2","html-slider-response","113","","","","2",""
"3790","spider","bunyag,mkboa,kamwe,atop","kamwe","j","2","html-keyboard-response","114","j","kamwe","true","",""
"2354","","","","","2","html-slider-response","115","","","","2",""
"5632","fork","baboy,paghago,mgonjwa,gorisi","mgonjwa","j","2","html-keyboard-response","116","j","mgonjwa","true","",""
"3852","","","","","2","html-slider-response","117","","","","1",""
"5341","mosquito","isda,martilyo,taras,gutom","martilyo","v","2","html-keyboard-response","118","v","martilyo","true","",""
"4502","","","","","2","html-slider-response","119","","","","4",""
"5813","banana","kasamok,kazi,hagdan,twai","kazi","v","2","html-keyboard-response","120","v","kazi","true","",""
"2230","","","","","2","html-slider-response","121","","","","1",""
"7587","cup","dagat,shimoni,jeraha,matumai","matumai","n","2","html-keyboard-response","122","n","matumai","true","",""
"3557","","","","","2","html-slider-response","123","","","","4",""
"3589","shop","nopya,kerida,samaki,ndezu","samaki","j","2","html-keyboard-response","124","j","samaki","true","",""
"2118","","","","","2","html-slider-response","125","","","","4",""
"3991","elephant","kito,petye,pagduol,suka","kito","f","2","html-keyboard-response","126","f","kito","true","",""
"1691","","","","","2","html-slider-response","127","","","","4",""
"4750","bucket","baga,ijayo,kiatu,init","kiatu","j","2","html-keyboard-response","128","j","kiatu","true","",""
"1950","","","","","2","html-slider-response","129","","","","2",""
"5680","book","kuhesa,picha,mali,mara","mali","j","2","html-keyboard-response","130","f","kuhesa","false","",""
"2203","","","","","2","html-slider-response","131","","","","1",""
"5438","mirror","rangi,kanding,furaha,sulagma","sulagma","n","2","html-keyboard-response","132","n","sulagma","true","",""
"2086","","","","","2","html-slider-response","133","","","","2",""
"5927","office","leso,hazini,yatima,kuna","leso","f","2","html-keyboard-response","134","f","leso","true","",""
"1971","","","","","2","html-slider-response","135","","","","4",""
"7222","body","nyundu,tindashan,jibini,kununa","tindashan","v","2","html-keyboard-response","136","v","tindashan","true","",""
"2197","","","","","2","html-slider-response","137","","","","2",""
"6998","perfume","bino,sungura,ndogo,katuyoan","katuyoan","n","2","html-keyboard-response","138","n","katuyoan","true","",""
"2693","","","","","2","html-slider-response","139","","","","2",""
"4693","olive","jiwe,bata,siagi,welder","jiwe","f","2","html-keyboard-response","140","j","siagi","false","",""
"2173","","","","","2","html-slider-response","141","","","","1",""
"7025","magazine","gundi,mchawi,bahandi,kiti","kiti","n","2","html-keyboard-response","142","n","kiti","true","",""
"2082","","","","","2","html-slider-response","143","","","","1",""
"4582","bread","kaili,dizeli,bugas,dari","dari","n","2","html-keyboard-response","144","n","dari","true","",""
"2453","","","","","2","html-slider-response","145","","","","2",""
"5144","cave","ganti,maisha,nyundo,kesho","kesho","n","2","html-keyboard-response","146","j","nyundo","false","",""
"1917","","","","","2","html-slider-response","147","","","","1",""
"3741","ladder","mashua,mwanga,kamba,pangalan","pangalan","n","2","html-keyboard-response","148","j","kamba","false","",""
"1861","","","","","2","html-slider-response","149","","","","1",""
"5079","human","bado,kikapu,tinapay,punguza","tinapay","j","2","html-keyboard-response","150","j","tinapay","true","",""
"1571","","","","","2","html-slider-response","151","","","","2",""
"3030","clock","kartasi,abang,osha,mbwa","mbwa","n","2","html-keyboard-response","152","n","mbwa","true","",""
"1405","","","","","2","html-slider-response","153","","","","1",""
"4960","shelf","bungtod,kadaot,awit,pamahaw","pamahaw","n","2","html-keyboard-response","154","n","pamahaw","true","",""
"1723","","","","","2","html-slider-response","155","","","","1",""
"3598","salmon","mzungu,seri,sensilyo,baharia","sensilyo","j","2","html-keyboard-response","156","j","sensilyo","true","",""
"1646","","","","","2","html-slider-response","157","","","","5",""
"3376","coffin","barua,tubag,hulma,kioo","kioo","n","2","html-keyboard-response","158","n","kioo","true","",""
"11844","","","","","2","html-slider-response","159","","","","4",""
"3253","notebook","msitu,kila,mdudu,kemia","kemia","n","2","html-keyboard-response","160","n","kemia","true","",""
"1374","","","","","2","html-slider-response","161","","","","2",""
"5025","shoulder","mkuu,kelele,ndaniya,guruwe","mkuu","f","2","html-keyboard-response","162","f","mkuu","true","",""
"1771","","","","","2","html-slider-response","163","","","","4",""
"3213","park","tambok,bunifu,pwani,ihalas","bunifu","v","2","html-keyboard-response","164","v","bunifu","true","",""
"1612","","","","","2","html-slider-response","165","","","","1",""
"5264","number","shule,mundamo,kengele,choori","mundamo","v","2","html-keyboard-response","166","v","mundamo","true","",""
"2595","","","","","2","html-slider-response","167","","","","1",""
"3110","apple","ukame,kisu,estante,edad","kisu","v","2","html-keyboard-response","168","v","kisu","true","",""
"1758","","","","","2","html-slider-response","169","","","","5",""
"4287","letter","filimbi,kifua,chuma,uhuru","kifua","v","2","html-keyboard-response","170","v","kifua","true","",""
"1299","","","","","2","html-slider-response","171","","","","1",""
"8132","eel","ishara,msumari,kunywa,kabuang","msumari","v","2","html-keyboard-response","172","j","kunywa","false","",""
"1639","","","","","2","html-slider-response","173","","","","2",""
"3941","cop","bustani,jikoni,mechezo,bakus","mechezo","j","2","html-keyboard-response","174","j","mechezo","true","",""
"1893","","","","","2","html-slider-response","175","","","","5",""
"4375","wolf","lugha,kaburi,ndizi,mchuzi","lugha","f","2","html-keyboard-response","176","f","lugha","true","",""
"1515","","","","","2","html-slider-response","177","","","","2",""
"6190","squirrel","hofu,mahugaw,ukweli,kichwa","hofu","f","2","html-keyboard-response","178","f","hofu","true","",""
"1830","","","","","2","html-slider-response","179","","","","2",""
"4488","nose","gubat,sehemu,kopa,kidole","sehemu","v","2","html-keyboard-response","180","v","sehemu","true","",""
"1859","","","","","2","html-slider-response","181","","","","4",""
"5638","sock","ndoora,kimysa,mamba,mtirka","mamba","j","2","html-keyboard-response","182","v","kimysa","false","",""
"1414","","","","","2","html-slider-response","183","","","","2",""
"5368","bank","kudhibi,tualya,ofisi,silingan","silingan","n","2","html-keyboard-response","184","n","silingan","true","",""
"1323","","","","","2","html-slider-response","185","","","","2",""
"3054","donkey","bloke,elfu,lalake,rombus","elfu","v","2","html-keyboard-response","186","v","elfu","true","",""
"1854","","","","","2","html-slider-response","187","","","","5",""
"4976","poster","nchi,fedha,kasuko,madungog","madungog","n","2","html-keyboard-response","188","n","madungog","true","",""
"1892","","","","","2","html-slider-response","189","","","","1",""
"3142","puppet","mazishi,napulo,lamok,godoro","mazishi","f","2","html-keyboard-response","190","f","mazishi","true","",""
"1638","","","","","2","html-slider-response","191","","","","5",""
"4361","hill","matumbo,kushoto,kukimba,sweta","matumbo","f","2","html-keyboard-response","192","j","kukimba","false","",""
"2274","","","","","2","html-slider-response","193","","","","1",""
"4886","tooth","kijiko,kabalaka,uadui,pahiyum","kabalaka","v","2","html-keyboard-response","194","v","kabalaka","true","",""
"1903","","","","","2","html-slider-response","195","","","","1",""
"4224","woman","pagtabon,bandari,bituin,kovuli","pagtabon","f","2","html-keyboard-response","196","f","pagtabon","true","",""
"1651","","","","","2","html-slider-response","197","","","","2",""
"3302","wheel","punda,tawo,baadaye,bafuni","bafuni","n","2","html-keyboard-response","198","v","tawo","false","",""
"1702","","","","","2","html-slider-response","199","","","","1",""
"3800","mother","kahawa,mbuzi,jokofu,babaye","babaye","n","2","html-keyboard-response","200","n","babaye","true","",""
"2164","","","","","2","html-slider-response","201","","","","5",""
"5989","bed","kalipay,haraka,starehe,mapintas","mapintas","n","2","html-keyboard-response","202","f","kalipay","false","",""
"2124","","","","","2","html-slider-response","203","","","","1",""
"4653","key","miaka,goma,chombo,ahos","chombo","j","2","html-keyboard-response","204","j","chombo","true","",""
"2029","","","","","2","html-slider-response","205","","","","1",""
"2207","page","wimbo,wakala,ishiri,skina","wimbo","f","2","html-keyboard-response","206","f","wimbo","true","",""
"1669","","","","","2","html-slider-response","207","","","","2",""
"4084","pants","pintal,haki,chuki,hari","haki","v","2","html-keyboard-response","208","v","haki","true","",""
"1645","","","","","2","html-slider-response","209","","","","5",""
"3165","sun","basi,bendi,luha,uongo","basi","f","2","html-keyboard-response","210","f","basi","true","",""
"1773","","","","","2","html-slider-response","211","","","","2",""
"4415","finger","simu,sufuria,moyo,lima","moyo","j","2","html-keyboard-response","212","v","sufuria","false","",""
"1716","","","","","2","html-slider-response","213","","","","1",""
"5784","shoe","nyeusi,hatua,kama,uyoga","uyoga","n","2","html-keyboard-response","214","n","uyoga","true","",""
"3219","","","","","2","html-slider-response","215","","","","1",""
"4134","giraffe","daraja,mahitabo,jumatu,hangyo","mahitabo","v","2","html-keyboard-response","216","n","hangyo","false","",""
"1806","","","","","2","html-slider-response","217","","","","1",""
"6320","dog","bahari,lubi,washia,kalamu","bahari","f","2","html-keyboard-response","218","f","bahari","true","",""
"3275","","","","","2","html-slider-response","219","","","","1",""
"3213","box","kuacha,rafiki,kitande,adui","adui","n","2","html-keyboard-response","220","n","adui","true","",""
"1814","","","","","2","html-slider-response","221","","","","1",""
"5129","scissors","duga,mtawa,suga,tanuri","tanuri","n","2","html-keyboard-response","222","n","tanuri","true","",""
"1572","","","","","2","html-slider-response","223","","","","1",""
"6101","cat","neyemba,baki,paghukom,akili","paghukom","j","2","html-keyboard-response","224","n","akili","false","",""
"1965","","","","","2","html-slider-response","225","","","","1",""
"4768","basket","kumbuka,utepe,kumba,hasira","kumba","j","2","html-keyboard-response","226","v","utepe","false","",""
"2027","","","","","2","html-slider-response","227","","","","1",""
"4302","snake","pagtukod,jansa,karon,mvringo","pagtukod","f","2","html-keyboard-response","228","v","jansa","false","",""
"1621","","","","","2","html-slider-response","229","","","","1",""
"3287","gift","baba,pagtawag,nyange,baso","pagtawag","v","2","html-keyboard-response","230","n","baso","false","",""
"1443","","","","","2","html-slider-response","231","","","","1",""
"3733","train","itik,sayari,dakika,mungu","sayari","v","2","html-keyboard-response","232","v","sayari","true","",""
"1861","","","","","2","html-slider-response","233","","","","2",""
"3208","pudding","aibu,abug,mpishi,iring","aibu","f","2","html-keyboard-response","234","f","aibu","true","",""
"1899","","","","","2","html-slider-response","235","","","","5",""
"3917","tomato","chupi,chupa,takatak,mvua","mvua","n","2","html-keyboard-response","236","f","chupi","false","",""
"2197","","","","","2","html-slider-response","237","","","","2",""
"4103","stone","ulimwengu,mkasi,wingi,asili","wingi","j","2","html-keyboard-response","238","j","wingi","true","",""
"1587","","","","","2","html-slider-response","239","","","","2",""
"3270","hammer","mekno,napakyas,kitovu,layag","napakyas","v","2","html-keyboard-response","240","v","napakyas","true","",""
"1665","","","","","2","html-slider-response","241","","","","5",""
"3927","knee","mvuke,kubale,duka,bili","duka","j","2","html-keyboard-response","242","n","bili","false","",""
"1755","","","","","2","html-slider-response","243","","","","1",""
"5293","ceiling","kugita,kawaida,rayna,maua","maua","n","2","html-keyboard-response","244","f","kugita","false","",""
"2446","","","","","2","html-slider-response","245","","","","1",""
"4017","spoon","pagsulod,betri,nzuri,ngazi","pagsulod","f","2","html-keyboard-response","246","f","pagsulod","true","",""
"1676","","","","","2","html-slider-response","247","","","","1",""
"3502","marker","mapafu,maji,salita,atay","maji","v","2","html-keyboard-response","248","n","atay","false","",""
"1629","","","","","2","html-slider-response","249","","","","1",""
"3391","candle","gabi,geza,farasi,kupanda","geza","v","2","html-keyboard-response","250","j","farasi","false","",""
"1837","","","","","2","html-slider-response","251","","","","1",""
"5070","tissue","lamigas,kisiwa,katika,ugomvi","ugomvi","n","2","html-keyboard-response","252","j","katika","false","",""
"1781","","","","","2","html-slider-response","253","","","","1",""
"5383","bridge","daima,ngono,sahani,panya","sahani","j","2","html-keyboard-response","254","n","panya","false","",""
"1915","","","","","2","html-slider-response","255","","","","2",""
"4286","berry","abogado,nogozi,kofia,kinywa","kofia","j","2","html-keyboard-response","256","j","kofia","true","",""
"2574","","","","","2","html-slider-response","257","","","","1",""
"7791","triangle","kihozi,bentaha,kasadpan,liog","kasadpan","j","2","html-keyboard-response","258","f","kihozi","false","",""
"1787","","","","","2","html-slider-response","259","","","","1",""
"3726","door","surali,tena,soko,nyota","surali","f","2","html-keyboard-response","260","f","surali","true","",""
"1798","","","","","2","html-slider-response","261","","","","1",""
"4329","fish","bala,baho,imani,buli","buli","n","2","html-keyboard-response","262","j","imani","false","",""
"2572","","","","","2","html-slider-response","263","","","","2",""
"4573","curtain","lisud,bulwawan,mchanga,chubani","mchanga","j","2","html-keyboard-response","264","j","mchanga","true","",""
"1765","","","","","2","html-slider-response","265","","","","1",""
"4744","flag","trekta,ndege,mkate,kawa","trekta","f","2","html-keyboard-response","266","f","trekta","true","",""
"1980","","","","","2","html-slider-response","267","","","","1",""
"3645","boat","hamsi,pombe,agalon,kitanda","agalon","j","2","html-keyboard-response","268","f","hamsi","false","",""
"1549","","","","","2","html-slider-response","269","","","","2",""
"4351","rose","paghalad,singizi,mwanake,amani","paghalad","f","2","html-keyboard-response","270","n","amani","false","",""
"2939","","","","","2","html-slider-response","271","","","","2",""
"3533","lamp","afya,daub,bilaska,mbolea","afya","f","2","html-keyboard-response","272","v","daub","false","",""
"1973","","","","","2","html-slider-response","273","","","","2",""
"3400","cigar","ndugu,kuta,mlango,adhabu","adhabu","n","2","html-keyboard-response","274","v","kuta","false","",""
"1435","","","","","2","html-slider-response","275","","","","1",""
"5470","list","alizeti,wingu,kuzama,kaso","wingu","v","2","html-keyboard-response","276","n","kaso","false","",""
"2254","","","","","2","html-slider-response","277","","","","1",""
"3601","sheet","juuya,watu,kamantis,bililhon","bililhon","n","2","html-keyboard-response","278","v","watu","false","",""
"1747","","","","","2","html-slider-response","279","","","","2",""
"4117","picture","kubwa,silya,chaki,asin","kubwa","f","2","html-keyboard-response","280","v","silya","false","",""
"3045","","","","","2","html-slider-response","281","","","","1",""
"3623","towel","tembo,pagpalit,funzi,pito","pagpalit","v","2","html-keyboard-response","282","n","pito","false","",""
"1692","","","","","2","html-slider-response","283","","","","2",""
"7390","window","nanga,kweli,kujenga,umaga","kweli","v","2","html-keyboard-response","284","v","kweli","true","",""
"2349","","","","","2","html-slider-response","285","","","","2",""
"3736","box","kuacha,rafiki,kitande,adui","adui","n","3","html-keyboard-response","293","n","adui","true","","4"
"1949","","","","","3","html-slider-response","294","","","","1",""
"2540","","","","","3","html-keyboard-response","295","","","","",""
"3311","pants","pintal,chuki,haki,hari","haki","j","3","html-keyboard-response","296","j","haki","true","","4"
"2957","","","","","3","html-slider-response","297","","","","5",""
"1069","","","","","3","html-keyboard-response","298","","","","",""
"2830","cup","dagat,matumai,shimoni,jeraha","matumai","v","3","html-keyboard-response","299","v","matumai","true","","4"
"1533","","","","","3","html-slider-response","300","","","","2",""
"1005","","","","","3","html-keyboard-response","301","","","","",""
"1904","triangle","kihozi,bentaha,liog,kasadpan","kasadpan","n","3","html-keyboard-response","302","f","kihozi","false","","4"
"1764","","","","","3","html-slider-response","303","","","","1",""
"3525","","","","","3","html-keyboard-response","304","","","","",""
"2348","curtain","mchanga,lisud,bulwawan,chubani","mchanga","f","3","html-keyboard-response","305","f","mchanga","true","","4"
"1519","","","","","3","html-slider-response","306","","","","1",""
"1263","","","","","3","html-keyboard-response","307","","","","",""
"2347","clock","kartasi,mbwa,abang,osha","mbwa","v","3","html-keyboard-response","308","f","kartasi","false","","4"
"1940","","","","","3","html-slider-response","309","","","","1",""
"2101","","","","","3","html-keyboard-response","310","","","","",""
"3582","mirror","rangi,kanding,furaha,sulagma","sulagma","n","3","html-keyboard-response","311","n","sulagma","true","","4"
"1365","","","","","3","html-slider-response","312","","","","2",""
"1318","","","","","3","html-keyboard-response","313","","","","",""
"2334","coffin","barua,tubag,hulma,kioo","kioo","n","3","html-keyboard-response","314","n","kioo","true","","1"
"1966","","","","","3","html-slider-response","315","","","","4",""
"829","","","","","3","html-keyboard-response","316","","","","",""
"3296","magazine","gundi,mchawi,kiti,bahandi","kiti","j","3","html-keyboard-response","317","j","kiti","true","","4"
"1547","","","","","3","html-slider-response","318","","","","2",""
"750","","","","","3","html-keyboard-response","319","","","","",""
"2494","column","pundok,dila,pala,ufagio","ufagio","n","3","html-keyboard-response","320","n","ufagio","true","","1"
"1918","","","","","3","html-slider-response","321","","","","4",""
"1086","","","","","3","html-keyboard-response","322","","","","",""
"4625","number","shule,mundamo,kengele,choori","mundamo","v","3","html-keyboard-response","323","v","mundamo","true","","4"
"1747","","","","","3","html-slider-response","324","","","","2",""
"1174","","","","","3","html-keyboard-response","325","","","","",""
"4158","rose","paghalad,singizi,mwanake,amani","paghalad","f","3","html-keyboard-response","326","v","singizi","false","","4"
"1718","","","","","3","html-slider-response","327","","","","2",""
"1078","","","","","3","html-keyboard-response","328","","","","",""
"7569","eel","ishara,kunywa,msumari,kabuang","msumari","j","3","html-keyboard-response","329","j","msumari","true","","4"
"1508","","","","","3","html-slider-response","330","","","","2",""
"678","","","","","3","html-keyboard-response","331","","","","",""
"4254","gift","pagtawag,baba,nyange,baso","pagtawag","f","3","html-keyboard-response","332","j","nyange","false","","4"
"1438","","","","","3","html-slider-response","333","","","","2",""
"1406","","","","","3","html-keyboard-response","334","","","","",""
"2017","apple","ukame,estante,kisu,edad","kisu","j","3","html-keyboard-response","335","j","kisu","true","","1"
"1836","","","","","3","html-slider-response","336","","","","5",""
"670","","","","","3","html-keyboard-response","337","","","","",""
"1870","wheel","bafuni,punda,tawo,baadaye","bafuni","f","3","html-keyboard-response","338","f","bafuni","true","","1"
"2471","","","","","3","html-slider-response","339","","","","2",""
"949","","","","","3","html-keyboard-response","340","","","","",""
"3872","knee","duka,mvuke,kubale,bili","duka","f","3","html-keyboard-response","341","v","mvuke","false","","4"
"1859","","","","","3","html-slider-response","342","","","","1",""
"1334","","","","","3","html-keyboard-response","343","","","","",""
"1502","basket","kumba,kumbuka,utepe,hasira","kumba","f","3","html-keyboard-response","344","f","kumba","true","","1"
"1494","","","","","3","html-slider-response","345","","","","2",""
"982","","","","","3","html-keyboard-response","346","","","","",""
"4818","park","tambok,bunifu,pwani,ihalas","bunifu","v","3","html-keyboard-response","347","f","tambok","false","","4"
"1499","","","","","3","html-slider-response","348","","","","2",""
"941","","","","","3","html-keyboard-response","349","","","","",""
"4446","finger","simu,moyo,sufuria,lima","moyo","v","3","html-keyboard-response","350","f","simu","false","","4"
"1747","","","","","3","html-slider-response","351","","","","1",""
"1165","","","","","3","html-keyboard-response","352","","","","",""
"3680","boat","hamsi,pombe,kitanda,agalon","agalon","n","3","html-keyboard-response","353","v","pombe","false","","4"
"2164","","","","","3","html-slider-response","354","","","","1",""
"966","","","","","3","html-keyboard-response","355","","","","",""
"5406","hill","kushoto,kukimba,sweta,matumbo","matumbo","n","3","html-keyboard-response","356","j","sweta","false","","4"
"1373","","","","","3","html-slider-response","357","","","","2",""
"1040","","","","","3","html-keyboard-response","358","","","","",""
"2684","train","sayari,itik,dakika,mungu","sayari","f","3","html-keyboard-response","359","f","sayari","true","","4"
"1165","","","","","3","html-slider-response","360","","","","2",""
"766","","","","","3","html-keyboard-response","361","","","","",""
"2638","wolf","kaburi,ndizi,lugha,mchuzi","lugha","j","3","html-keyboard-response","362","f","kaburi","false","","4"
"2095","","","","","3","html-slider-response","363","","","","4",""
"1119","","","","","3","html-keyboard-response","364","","","","",""
"2381","snake","jansa,karon,mvringo,pagtukod","pagtukod","n","3","html-keyboard-response","365","f","jansa","false","","4"
"1669","","","","","3","html-slider-response","366","","","","1",""
"1781","","","","","3","html-keyboard-response","367","","","","",""
"3326","tooth","kijiko,uadui,kabalaka,pahiyum","kabalaka","j","3","html-keyboard-response","368","j","kabalaka","true","","4"
"1294","","","","","3","html-slider-response","369","","","","2",""
"926","","","","","3","html-keyboard-response","370","","","","",""
"3102","notebook","msitu,kila,mdudu,kemia","kemia","n","3","html-keyboard-response","371","v","kila","false","","4"
"1855","","","","","3","html-slider-response","372","","","","1",""
"1005","","","","","3","html-keyboard-response","373","","","","",""
"2638","flag","ndege,mkate,trekta,kawa","trekta","j","3","html-keyboard-response","374","n","kawa","false","","4"
"2669","","","","","3","html-slider-response","375","","","","1",""
"1325","","","","","3","html-keyboard-response","376","","","","",""
"4014","squirrel","mahugaw,ukweli,hofu,kichwa","hofu","j","3","html-keyboard-response","377","n","kichwa","false","","4"
"1686","","","","","3","html-slider-response","378","","","","1",""
"3128","","","","","3","html-keyboard-response","379","","","","",""
"2940","door","tena,surali,soko,nyota","surali","v","3","html-keyboard-response","380","n","nyota","false","","4"
"1479","","","","","3","html-slider-response","381","","","","1",""
"918","","","","","3","html-keyboard-response","382","","","","",""
"2526","salmon","mzungu,sensilyo,seri,baharia","sensilyo","v","3","html-keyboard-response","383","v","sensilyo","true","","4"
"2734","","","","","3","html-slider-response","384","","","","5",""
"575","","","","","3","html-keyboard-response","385","","","","",""
"2318","shoulder","kelele,ndaniya,mkuu,guruwe","mkuu","j","3","html-keyboard-response","386","j","mkuu","true","","4"
"1590","","","","","3","html-slider-response","387","","","","4",""
"902","","","","","3","html-keyboard-response","388","","","","",""
"2975","lamp","daub,afya,bilaska,mbolea","afya","v","3","html-keyboard-response","389","v","afya","true","","4"
"1669","","","","","3","html-slider-response","390","","","","1",""
"886","","","","","3","html-keyboard-response","391","","","","",""
"1902","shelf","bungtod,kadaot,pamahaw,awit","pamahaw","j","3","html-keyboard-response","392","j","pamahaw","true","","1"
"1678","","","","","3","html-slider-response","393","","","","1",""
"782","","","","","3","html-keyboard-response","394","","","","",""
"1726","human","bado,tinapay,kikapu,punguza","tinapay","v","3","html-keyboard-response","395","f","bado","false","","4"
"1910","","","","","3","html-slider-response","396","","","","5",""
"4823","","","","","3","html-keyboard-response","397","","","","",""
"2572","towel","tembo,funzi,pito,pagpalit","pagpalit","n","3","html-keyboard-response","398","j","pito","false","","4"
"2733","","","","","3","html-slider-response","399","","","","1",""
"1117","","","","","3","html-keyboard-response","400","","","","",""
"2766","cat","neyemba,baki,akili,paghukom","paghukom","n","3","html-keyboard-response","401","j","akili","false","","4"
"1685","","","","","3","html-slider-response","402","","","","1",""
"902","","","","","3","html-keyboard-response","403","","","","",""
"4542","spider","kamwe,bunyag,mkboa,atop","kamwe","f","3","html-keyboard-response","404","f","kamwe","true","","4"
"1454","","","","","3","html-slider-response","405","","","","1",""
"861","","","","","3","html-keyboard-response","406","","","","",""
"4113","window","nanga,kujenga,umaga,kweli","kweli","n","3","html-keyboard-response","407","f","nanga","false","","4"
"1192","","","","","3","html-slider-response","408","","","","2",""
"925","","","","","3","html-keyboard-response","409","","","","",""
"2494","woman","pagtabon,bandari,bituin,kovuli","pagtabon","f","3","html-keyboard-response","410","f","pagtabon","true","","1"
"1846","","","","","3","html-slider-response","411","","","","1",""
"838","","","","","3","html-keyboard-response","412","","","","",""
"3328","giraffe","daraja,mahitabo,jumatu,hangyo","mahitabo","v","3","html-keyboard-response","413","n","hangyo","false","","4"
"1467","","","","","3","html-slider-response","414","","","","2",""
"1374","","","","","3","html-keyboard-response","415","","","","",""
"4303","elephant","petye,pagduol,kito,suka","kito","j","3","html-keyboard-response","416","v","pagduol","false","","4"
"1461","","","","","3","html-slider-response","417","","","","4",""
"2487","","","","","3","html-keyboard-response","418","","","","",""
"1852","cave","kesho,ganti,maisha,nyundo","kesho","f","3","html-keyboard-response","419","f","kesho","true","","4"
"1686","","","","","3","html-slider-response","420","","","","1",""
"918","","","","","3","html-keyboard-response","421","","","","",""
"1934","bread","kaili,dari,dizeli,bugas","dari","v","3","html-keyboard-response","422","f","kaili","false","","4"
"1510","","","","","3","html-slider-response","423","","","","1",""
"790","","","","","3","html-keyboard-response","424","","","","",""
"3554","stone","ulimwengu,wingi,mkasi,asili","wingi","v","3","html-keyboard-response","425","n","asili","false","","4"
"1530","","","","","3","html-slider-response","426","","","","1",""
"1310","","","","","3","html-keyboard-response","427","","","","",""
"2174","donkey","bloke,lalake,rombus,elfu","elfu","n","3","html-keyboard-response","428","n","elfu","true","","4"
"1494","","","","","3","html-slider-response","429","","","","5",""
"630","","","","","3","html-keyboard-response","430","","","","",""
"5617","bridge","daima,sahani,ngono,panya","sahani","v","3","html-keyboard-response","431","v","sahani","true","","4"
"1732","","","","","3","html-slider-response","432","","","","2",""
"854","","","","","3","html-keyboard-response","433","","","","",""
"3038","bonfire","goti,mwezi,mfuko,kusanya","goti","f","3","html-keyboard-response","434","f","goti","true","","4"
"1749","","","","","3","html-slider-response","435","","","","1",""
"838","","","","","3","html-keyboard-response","436","","","","",""
"4080","book","kuhesa,mali,picha,mara","mali","v","3","html-keyboard-response","437","f","kuhesa","false","","4"
"2204","","","","","3","html-slider-response","438","","","","1",""
"958","","","","","3","html-keyboard-response","439","","","","",""
"3263","fish","buli,bala,baho,imani","buli","f","3","html-keyboard-response","440","n","imani","false","","4"
"1599","","","","","3","html-slider-response","441","","","","1",""
"1165","","","","","3","html-keyboard-response","442","","","","",""
"3360","spoon","pagsulod,betri,nzuri,ngazi","pagsulod","f","3","html-keyboard-response","443","f","pagsulod","true","","4"
"1700","","","","","3","html-slider-response","444","","","","2",""
"1062","","","","","3","html-keyboard-response","445","","","","",""
"3982","scissors","tanuri,duga,mtawa,suga","tanuri","f","3","html-keyboard-response","446","v","duga","false","","4"
"1702","","","","","3","html-slider-response","447","","","","4",""
"1190","","","","","3","html-keyboard-response","448","","","","",""
"3154","page","wimbo,wakala,ishiri,skina","wimbo","f","3","html-keyboard-response","449","j","ishiri","false","","4"
"1836","","","","","3","html-slider-response","450","","","","1",""
"973","","","","","3","html-keyboard-response","451","","","","",""
"1806","nose","gubat,kopa,sehemu,kidole","sehemu","j","3","html-keyboard-response","452","j","sehemu","true","","1"
"2094","","","","","3","html-slider-response","453","","","","2",""
"606","","","","","3","html-keyboard-response","454","","","","",""
"3328","ceiling","kugita,kawaida,maua,rayna","maua","j","3","html-keyboard-response","455","v","kawaida","false","","4"
"1472","","","","","3","html-slider-response","456","","","","1",""
"838","","","","","3","html-keyboard-response","457","","","","",""
"5135","bucket","kiatu,baga,ijayo,init","kiatu","f","3","html-keyboard-response","458","f","kiatu","true","","4"
"2109","","","","","3","html-slider-response","459","","","","1",""
"703","","","","","3","html-keyboard-response","460","","","","",""
"2012","berry","abogado,nogozi,kofia,kinywa","kofia","j","3","html-keyboard-response","461","j","kofia","true","","1"
"1502","","","","","3","html-slider-response","462","","","","1",""
"1053","","","","","3","html-keyboard-response","463","","","","",""
"3950","mother","babaye,kahawa,mbuzi,jokofu","babaye","f","3","html-keyboard-response","464","f","babaye","true","","1"
"1582","","","","","3","html-slider-response","465","","","","5",""
"816","","","","","3","html-keyboard-response","466","","","","",""
"2541","mosquito","isda,martilyo,taras,gutom","martilyo","v","3","html-keyboard-response","467","v","martilyo","true","","4"
"1734","","","","","3","html-slider-response","468","","","","5",""
"725","","","","","3","html-keyboard-response","469","","","","",""
"3949","perfume","katuyoan,bino,sungura,ndogo","katuyoan","f","3","html-keyboard-response","470","f","katuyoan","true","","4"
"1461","","","","","3","html-slider-response","471","","","","2",""
"661","","","","","3","html-keyboard-response","472","","","","",""
"4638","sheet","juuya,watu,kamantis,bililhon","bililhon","n","3","html-keyboard-response","473","j","kamantis","false","","4"
"1581","","","","","3","html-slider-response","474","","","","2",""
"702","","","","","3","html-keyboard-response","475","","","","",""
"2561","puppet","napulo,lamok,godoro,mazishi","mazishi","n","3","html-keyboard-response","476","n","mazishi","true","","1"
"1731","","","","","3","html-slider-response","477","","","","5",""
"630","","","","","3","html-keyboard-response","478","","","","",""
"3950","poster","nchi,fedha,kasuko,madungog","madungog","n","3","html-keyboard-response","479","j","kasuko","false","","4"
"1350","","","","","3","html-slider-response","480","","","","2",""
"694","","","","","3","html-keyboard-response","481","","","","",""
"4593","music","mraba,mageho,tumbo,baiski","baiski","n","3","html-keyboard-response","482","n","baiski","true","","4"
"1476","","","","","3","html-slider-response","483","","","","5",""
"534","","","","","3","html-keyboard-response","484","","","","",""
"2896","key","chombo,miaka,goma,ahos","chombo","f","3","html-keyboard-response","485","n","ahos","false","","4"
"1359","","","","","3","html-slider-response","486","","","","5",""
"2541","","","","","3","html-keyboard-response","487","","","","",""
"6112","sock","ndoora,kimysa,mamba,mtirka","mamba","j","3","html-keyboard-response","488","f","ndoora","false","","4"
"1531","","","","","3","html-slider-response","489","","","","2",""
"1102","","","","","3","html-keyboard-response","490","","","","",""
"4623","marker","maji,mapafu,salita,atay","maji","f","3","html-keyboard-response","491","n","atay","false","","4"
"1566","","","","","3","html-slider-response","492","","","","1",""
"2111","","","","","3","html-keyboard-response","493","","","","",""
"2652","office","hazini,yatima,leso,kuna","leso","j","3","html-keyboard-response","494","j","leso","true","","4"
"1261","","","","","3","html-slider-response","495","","","","5",""
"750","","","","","3","html-keyboard-response","496","","","","",""
"2190","shoe","nyeusi,uyoga,hatua,kama","uyoga","v","3","html-keyboard-response","497","v","uyoga","true","","4"
"1390","","","","","3","html-slider-response","498","","","","5",""
"670","","","","","3","html-keyboard-response","499","","","","",""
"2241","cop","mechezo,bustani,jikoni,bakus","mechezo","f","3","html-keyboard-response","500","f","mechezo","true","","4"
"1292","","","","","3","html-slider-response","501","","","","5",""
"1262","","","","","3","html-keyboard-response","502","","","","",""
"2254","bank","silingan,kudhibi,tualya,ofisi","silingan","f","3","html-keyboard-response","503","n","ofisi","false","","4"
"1533","","","","","3","html-slider-response","504","","","","5",""
"2189","","","","","3","html-keyboard-response","505","","","","",""
"2208","letter","kifua,filimbi,chuma,uhuru","kifua","f","3","html-keyboard-response","506","f","kifua","true","","1"
"1337","","","","","3","html-slider-response","507","","","","2",""
"588","","","","","3","html-keyboard-response","508","","","","",""
"2638","dog","lubi,washia,bahari,kalamu","bahari","j","3","html-keyboard-response","509","j","bahari","true","","1"
"1406","","","","","3","html-slider-response","510","","","","4",""
"622","","","","","3","html-keyboard-response","511","","","","",""
"3408","shop","nopya,kerida,samaki,ndezu","samaki","j","3","html-keyboard-response","512","j","samaki","true","","4"
"1140","","","","","3","html-slider-response","513","","","","4",""
"725","","","","","3","html-keyboard-response","514","","","","",""
"4142","flower","bega,tamasha,lobo,usiku","bega","f","3","html-keyboard-response","515","j","lobo","false","","4"
"1917","","","","","3","html-slider-response","516","","","","2",""
"765","","","","","3","html-keyboard-response","517","","","","",""
"2032","cigar","ndugu,kuta,adhabu,mlango","adhabu","j","3","html-keyboard-response","518","j","adhabu","true","","1"
"1436","","","","","3","html-slider-response","519","","","","1",""
"654","","","","","3","html-keyboard-response","520","","","","",""
"2302","hammer","napakyas,mekno,kitovu,layag","napakyas","f","3","html-keyboard-response","521","f","napakyas","true","","4"
"1279","","","","","3","html-slider-response","522","","","","5",""
"541","","","","","3","html-keyboard-response","523","","","","",""
"3262","fork","baboy,mgonjwa,paghago,gorisi","mgonjwa","v","3","html-keyboard-response","524","j","paghago","false","","4"
"1925","","","","","3","html-slider-response","525","","","","4",""
"821","","","","","3","html-keyboard-response","526","","","","",""
"2222","sun","bendi,luha,basi,uongo","basi","j","3","html-keyboard-response","527","j","basi","true","","1"
"1382","","","","","3","html-slider-response","528","","","","5",""
"597","","","","","3","html-keyboard-response","529","","","","",""
"4127","ladder","mashua,mwanga,pangalan,kamba","pangalan","j","3","html-keyboard-response","530","n","kamba","false","","4"
"1715","","","","","3","html-slider-response","531","","","","1",""
"695","","","","","3","html-keyboard-response","532","","","","",""
"2254","banana","kazi,kasamok,hagdan,twai","kazi","f","3","html-keyboard-response","533","f","kazi","true","","1"
"1374","","","","","3","html-slider-response","534","","","","5",""
"686","","","","","3","html-keyboard-response","535","","","","",""
"3246","pudding","aibu,abug,mpishi,iring","aibu","f","3","html-keyboard-response","536","f","aibu","true","","4"
"1990","","","","","3","html-slider-response","537","","","","5",""
"710","","","","","3","html-keyboard-response","538","","","","",""
"9569","body","nyundu,tindashan,jibini,kununa","tindashan","v","3","html-keyboard-response","539","v","tindashan","true","","4"
"1507","","","","","3","html-slider-response","540","","","","5",""
"502","","","","","3","html-keyboard-response","541","","","","",""
"6318","bed","kalipay,mapintas,haraka,starehe","mapintas","v","3","html-keyboard-response","542","j","haraka","false","","4"
"1502","","","","","3","html-slider-response","543","","","","1",""
"752","","","","","3","html-keyboard-response","544","","","","",""
"3037","tissue","lamigas,ugomvi,kisiwa,katika","ugomvi","v","3","html-keyboard-response","545","f","lamigas","false","","4"
"1343","","","","","3","html-slider-response","546","","","","1",""
"1277","","","","","3","html-keyboard-response","547","","","","",""
"2110","candle","gabi,farasi,kupanda,geza","geza","n","3","html-keyboard-response","548","f","gabi","false","","4"
"1726","","","","","3","html-slider-response","549","","","","1",""
"1023","","","","","3","html-keyboard-response","550","","","","",""
"2572","tomato","chupi,mvua,chupa,takatak","mvua","v","3","html-keyboard-response","551","v","mvua","true","","1"
"1622","","","","","3","html-slider-response","552","","","","2",""
"550","","","","","3","html-keyboard-response","553","","","","",""
"2206","list","wingu,alizeti,kuzama,kaso","wingu","f","3","html-keyboard-response","554","f","wingu","true","","4"
"1734","","","","","3","html-slider-response","555","","","","2",""
"710","","","","","3","html-keyboard-response","556","","","","",""
"3937","olive","bata,siagi,welder,jiwe","jiwe","n","3","html-keyboard-response","557","v","siagi","false","","4"
"1300","","","","","3","html-slider-response","558","","","","4",""
"1045","","","","","3","html-keyboard-response","559","","","","",""
"2110","picture","silya,chaki,asin,kubwa","kubwa","n","3","html-keyboard-response","560","n","kubwa","true","","1"
"1398","","","","","3","html-slider-response","561","","","","2",""
"630","","","","","3","html-keyboard-response","562","","","","",""
"2809","page","wakala,ishiri,wimbo,skina","wimbo","j","4","html-keyboard-response","888","j","wimbo","true","",""
"3471","","","","","4","html-slider-response","889","","","","2",""
"3117","sheet","juuya,watu,bililhon,kamantis","bililhon","j","4","html-keyboard-response","890","j","bililhon","true","",""
"1933","","","","","4","html-slider-response","891","","","","1",""
"2846","ladder","mashua,mwanga,pangalan,kamba","pangalan","j","4","html-keyboard-response","892","v","mwanga","false","",""
"1654","","","","","4","html-slider-response","893","","","","1",""
"5848","door","surali,tena,soko,nyota","surali","f","4","html-keyboard-response","894","f","surali","true","",""
"1709","","","","","4","html-slider-response","895","","","","1",""
"5165","spider","bunyag,mkboa,atop,kamwe","kamwe","n","4","html-keyboard-response","896","n","kamwe","true","",""
"2077","","","","","4","html-slider-response","897","","","","1",""
"4896","picture","silya,chaki,asin,kubwa","kubwa","n","4","html-keyboard-response","898","f","silya","false","",""
"1884","","","","","4","html-slider-response","899","","","","2",""
"3759","boat","hamsi,agalon,pombe,kitanda","agalon","v","4","html-keyboard-response","900","v","agalon","true","",""
"1998","","","","","4","html-slider-response","901","","","","2",""
"2269","donkey","bloke,lalake,elfu,rombus","elfu","j","4","html-keyboard-response","902","j","elfu","true","",""
"1445","","","","","4","html-slider-response","903","","","","5",""
"3829","book","mali,kuhesa,picha,mara","mali","f","4","html-keyboard-response","904","v","kuhesa","false","",""
"1486","","","","","4","html-slider-response","905","","","","2",""
"5313","cup","dagat,matumai,shimoni,jeraha","matumai","v","4","html-keyboard-response","906","v","matumai","true","",""
"1602","","","","","4","html-slider-response","907","","","","2",""
"4965","sun","bendi,luha,uongo,basi","basi","n","4","html-keyboard-response","908","n","basi","true","",""
"1604","","","","","4","html-slider-response","909","","","","4",""
"2487","pudding","aibu,abug,mpishi,iring","aibu","f","4","html-keyboard-response","910","f","aibu","true","",""
"1435","","","","","4","html-slider-response","911","","","","5",""
"5230","human","bado,kikapu,tinapay,punguza","tinapay","j","4","html-keyboard-response","912","j","tinapay","true","",""
"1724","","","","","4","html-slider-response","913","","","","5",""
"2767","squirrel","mahugaw,ukweli,hofu,kichwa","hofu","j","4","html-keyboard-response","914","j","hofu","true","",""
"1571","","","","","4","html-slider-response","915","","","","5",""
"4006","park","tambok,bunifu,pwani,ihalas","bunifu","v","4","html-keyboard-response","916","f","tambok","false","",""
"1837","","","","","4","html-slider-response","917","","","","1",""
"2815","poster","nchi,fedha,madungog,kasuko","madungog","j","4","html-keyboard-response","918","v","fedha","false","",""
"1876","","","","","4","html-slider-response","919","","","","1",""
"4311","wolf","kaburi,ndizi,lugha,mchuzi","lugha","j","4","html-keyboard-response","920","j","lugha","true","",""
"2149","","","","","4","html-slider-response","921","","","","4",""
"4792","cat","neyemba,baki,akili,paghukom","paghukom","n","4","html-keyboard-response","922","n","paghukom","true","",""
"1523","","","","","4","html-slider-response","923","","","","2",""
"2870","fish","bala,baho,imani,buli","buli","n","4","html-keyboard-response","924","n","buli","true","",""
"1422","","","","","4","html-slider-response","925","","","","4",""
"3231","tooth","kijiko,uadui,kabalaka,pahiyum","kabalaka","j","4","html-keyboard-response","926","n","pahiyum","false","",""
"1478","","","","","4","html-slider-response","927","","","","2",""
"4902","cave","kesho,ganti,maisha,nyundo","kesho","f","4","html-keyboard-response","928","v","ganti","false","",""
"1812","","","","","4","html-slider-response","929","","","","2",""
"2182","lamp","daub,afya,bilaska,mbolea","afya","v","4","html-keyboard-response","930","v","afya","true","",""
"1278","","","","","4","html-slider-response","931","","","","1",""
"3294","banana","kazi,kasamok,hagdan,twai","kazi","f","4","html-keyboard-response","932","f","kazi","true","",""
"1175","","","","","4","html-slider-response","933","","","","4",""
"2357","bonfire","mwezi,mfuko,goti,kusanya","goti","j","4","html-keyboard-response","934","j","goti","true","",""
"1589","","","","","4","html-slider-response","935","","","","1",""
"3415","cop","bustani,jikoni,mechezo,bakus","mechezo","j","4","html-keyboard-response","936","j","mechezo","true","",""
"2651","","","","","4","html-slider-response","937","","","","5",""
"2797","marker","mapafu,maji,salita,atay","maji","v","4","html-keyboard-response","938","f","mapafu","false","",""
"1726","","","","","4","html-slider-response","939","","","","1",""
"3201","window","nanga,kweli,kujenga,umaga","kweli","v","4","html-keyboard-response","940","v","kweli","true","",""
"1530","","","","","4","html-slider-response","941","","","","1",""
"2589","body","nyundu,jibini,kununa,tindashan","tindashan","n","4","html-keyboard-response","942","n","tindashan","true","",""
"2270","","","","","4","html-slider-response","943","","","","5",""
"1710","apple","ukame,estante,kisu,edad","kisu","j","4","html-keyboard-response","944","j","kisu","true","",""
"2206","","","","","4","html-slider-response","945","","","","5",""
"3022","salmon","sensilyo,mzungu,seri,baharia","sensilyo","f","4","html-keyboard-response","946","f","sensilyo","true","",""
"1550","","","","","4","html-slider-response","947","","","","5",""
"3469","bed","kalipay,haraka,starehe,mapintas","mapintas","n","4","html-keyboard-response","948","f","kalipay","false","",""
"1805","","","","","4","html-slider-response","949","","","","1",""
"4095","berry","abogado,kofia,nogozi,kinywa","kofia","v","4","html-keyboard-response","950","v","kofia","true","",""
"9660","","","","","4","html-slider-response","951","","","","1",""
"3151","mirror","rangi,kanding,sulagma,furaha","sulagma","j","4","html-keyboard-response","952","v","kanding","false","",""
"2187","","","","","4","html-slider-response","953","","","","1",""
"4413","flag","ndege,mkate,trekta,kawa","trekta","j","4","html-keyboard-response","954","v","mkate","false","",""
"1613","","","","","4","html-slider-response","955","","","","1",""
"3472","shoulder","kelele,ndaniya,mkuu,guruwe","mkuu","j","4","html-keyboard-response","956","j","mkuu","true","",""
"2099","","","","","4","html-slider-response","957","","","","5",""
"2135","tissue","ugomvi,lamigas,kisiwa,katika","ugomvi","f","4","html-keyboard-response","958","v","lamigas","false","",""
"1518","","","","","4","html-slider-response","959","","","","1",""
"2525","notebook","kemia,msitu,kila,mdudu","kemia","f","4","html-keyboard-response","960","v","msitu","false","",""
"2178","","","","","4","html-slider-response","961","","","","1",""
"2197","snake","jansa,pagtukod,karon,mvringo","pagtukod","v","4","html-keyboard-response","962","v","pagtukod","true","",""
"2262","","","","","4","html-slider-response","963","","","","1",""
"2165","finger","moyo,simu,sufuria,lima","moyo","f","4","html-keyboard-response","964","v","simu","false","",""
"1670","","","","","4","html-slider-response","965","","","","1",""
"4710","basket","kumbuka,utepe,hasira,kumba","kumba","n","4","html-keyboard-response","966","n","kumba","true","",""
"1573","","","","","4","html-slider-response","967","","","","1",""
"3717","curtain","lisud,mchanga,bulwawan,chubani","mchanga","v","4","html-keyboard-response","968","v","mchanga","true","",""
"1773","","","","","4","html-slider-response","969","","","","1",""
"5663","perfume","bino,katuyoan,sungura,ndogo","katuyoan","v","4","html-keyboard-response","970","v","katuyoan","true","",""
"1533","","","","","4","html-slider-response","971","","","","4",""
"5374","key","chombo,miaka,goma,ahos","chombo","f","4","html-keyboard-response","972","f","chombo","true","",""
"2029","","","","","4","html-slider-response","973","","","","4",""
"2991","olive","bata,jiwe,siagi,welder","jiwe","v","4","html-keyboard-response","974","v","jiwe","true","",""
"1716","","","","","4","html-slider-response","975","","","","1",""
"3830","rose","paghalad,singizi,mwanake,amani","paghalad","f","4","html-keyboard-response","976","n","amani","false","",""
"1646","","","","","4","html-slider-response","977","","","","1",""
"5391","bridge","sahani,daima,ngono,panya","sahani","f","4","html-keyboard-response","978","v","daima","false","",""
"3652","","","","","4","html-slider-response","979","","","","1",""
"2789","hill","kushoto,matumbo,kukimba,sweta","matumbo","v","4","html-keyboard-response","980","n","sweta","false","",""
"1989","","","","","4","html-slider-response","981","","","","1",""
"6056","letter","filimbi,kifua,chuma,uhuru","kifua","v","4","html-keyboard-response","982","v","kifua","true","",""
"1604","","","","","4","html-slider-response","983","","","","4",""
"6373","sock","ndoora,mamba,kimysa,mtirka","mamba","v","4","html-keyboard-response","984","j","kimysa","false","",""
"1485","","","","","4","html-slider-response","985","","","","2",""
"2848","fork","mgonjwa,baboy,paghago,gorisi","mgonjwa","f","4","html-keyboard-response","986","v","baboy","false","",""
"1691","","","","","4","html-slider-response","987","","","","1",""
"2730","box","kuacha,rafiki,adui,kitande","adui","j","4","html-keyboard-response","988","j","adui","true","",""
"1950","","","","","4","html-slider-response","989","","","","1",""
"5119","gift","baba,nyange,baso,pagtawag","pagtawag","n","4","html-keyboard-response","990","f","baba","false","",""
"2115","","","","","4","html-slider-response","991","","","","2",""
"3157","bucket","kiatu,baga,ijayo,init","kiatu","f","4","html-keyboard-response","992","f","kiatu","true","",""
"1454","","","","","4","html-slider-response","993","","","","2",""
"3023","shop","nopya,kerida,ndezu,samaki","samaki","n","4","html-keyboard-response","994","n","samaki","true","",""
"1477","","","","","4","html-slider-response","995","","","","4",""
"2580","puppet","napulo,mazishi,lamok,godoro","mazishi","v","4","html-keyboard-response","996","v","mazishi","true","",""
"1349","","","","","4","html-slider-response","997","","","","5",""
"3366","nose","gubat,sehemu,kopa,kidole","sehemu","v","4","html-keyboard-response","998","v","sehemu","true","",""
"1261","","","","","4","html-slider-response","999","","","","5",""
"2655","music","mraba,baiski,mageho,tumbo","baiski","v","4","html-keyboard-response","1000","v","baiski","true","",""
"1756","","","","","4","html-slider-response","1001","","","","5",""
"6383","dog","bahari,lubi,washia,kalamu","bahari","f","4","html-keyboard-response","1002","v","lubi","false","",""
"2165","","","","","4","html-slider-response","1003","","","","2",""
"6230","eel","ishara,kunywa,kabuang,msumari","msumari","n","4","html-keyboard-response","1004","n","msumari","true","",""
"1469","","","","","4","html-slider-response","1005","","","","2",""
"3169","number","shule,kengele,choori,mundamo","mundamo","n","4","html-keyboard-response","1006","j","choori","false","",""
"1507","","","","","4","html-slider-response","1007","","","","1",""
"4245","tomato","chupi,chupa,takatak,mvua","mvua","n","4","html-keyboard-response","1008","n","mvua","true","",""
"2077","","","","","4","html-slider-response","1009","","","","1",""
"5407","coffin","barua,kioo,tubag,hulma","kioo","v","4","html-keyboard-response","1010","v","kioo","true","",""
"1915","","","","","4","html-slider-response","1011","","","","1",""
"2687","knee","mvuke,duka,kubale,bili","duka","v","4","html-keyboard-response","1012","n","bili","false","",""
"1965","","","","","4","html-slider-response","1013","","","","1",""
"5760","woman","bandari,bituin,kovuli,pagtabon","pagtabon","n","4","html-keyboard-response","1014","n","pagtabon","true","",""
"1745","","","","","4","html-slider-response","1015","","","","2",""
"1925","stone","ulimwengu,mkasi,asili,wingi","wingi","n","4","html-keyboard-response","1016","n","wingi","true","",""
"2022","","","","","4","html-slider-response","1017","","","","1",""
"5161","bread","kaili,dizeli,dari,bugas","dari","j","4","html-keyboard-response","1018","j","dari","true","",""
"1795","","","","","4","html-slider-response","1019","","","","1",""
"2101","triangle","kihozi,bentaha,liog,kasadpan","kasadpan","n","4","html-keyboard-response","1020","j","liog","false","",""
"1901","","","","","4","html-slider-response","1021","","","","1",""
"3101","scissors","duga,mtawa,suga,tanuri","tanuri","n","4","html-keyboard-response","1022","v","mtawa","false","",""
"2621","","","","","4","html-slider-response","1023","","","","1",""
"2813","giraffe","daraja,jumatu,hangyo,mahitabo","mahitabo","n","4","html-keyboard-response","1024","v","jumatu","false","",""
"1598","","","","","4","html-slider-response","1025","","","","1",""
"3005","flower","tamasha,bega,lobo,usiku","bega","v","4","html-keyboard-response","1026","v","bega","true","",""
"3045","","","","","4","html-slider-response","1027","","","","2",""
"4357","candle","gabi,geza,farasi,kupanda","geza","v","4","html-keyboard-response","1028","f","gabi","false","",""
"1613","","","","","4","html-slider-response","1029","","","","2",""
"2334","mother","babaye,kahawa,mbuzi,jokofu","babaye","f","4","html-keyboard-response","1030","f","babaye","true","",""
"1566","","","","","4","html-slider-response","1031","","","","5",""
"3295","towel","tembo,pagpalit,funzi,pito","pagpalit","v","4","html-keyboard-response","1032","v","pagpalit","true","",""
"1701","","","","","4","html-slider-response","1033","","","","2",""
"2789","elephant","petye,pagduol,kito,suka","kito","j","4","html-keyboard-response","1034","j","kito","true","",""
"1902","","","","","4","html-slider-response","1035","","","","5",""
"4991","shelf","bungtod,pamahaw,kadaot,awit","pamahaw","v","4","html-keyboard-response","1036","f","bungtod","false","",""
"1492","","","","","4","html-slider-response","1037","","","","1",""
"2485","mosquito","isda,taras,gutom,martilyo","martilyo","n","4","html-keyboard-response","1038","n","martilyo","true","",""
"1543","","","","","4","html-slider-response","1039","","","","5",""
"2757","column","pundok,ufagio,dila,pala","ufagio","v","4","html-keyboard-response","1040","v","ufagio","true","",""
"1549","","","","","4","html-slider-response","1041","","","","2",""
"2719","pants","pintal,chuki,haki,hari","haki","j","4","html-keyboard-response","1042","j","haki","true","",""
"1427","","","","","4","html-slider-response","1043","","","","5",""
"2082","list","wingu,alizeti,kuzama,kaso","wingu","f","4","html-keyboard-response","1044","f","wingu","true","",""
"1486","","","","","4","html-slider-response","1045","","","","2",""
"6912","bank","kudhibi,silingan,tualya,ofisi","silingan","v","4","html-keyboard-response","1046","v","silingan","true","",""
"1179","","","","","4","html-slider-response","1047","","","","2",""
"2557","clock","kartasi,mbwa,abang,osha","mbwa","v","4","html-keyboard-response","1048","v","mbwa","true","",""
"1349","","","","","4","html-slider-response","1049","","","","1",""
"3669","ceiling","kugita,kawaida,rayna,maua","maua","n","4","html-keyboard-response","1050","f","kugita","false","",""
"2021","","","","","4","html-slider-response","1051","","","","1",""
"4470","train","itik,sayari,dakika,mungu","sayari","v","4","html-keyboard-response","1052","v","sayari","true","",""
"2221","","","","","4","html-slider-response","1053","","","","1",""
"4990","magazine","kiti,gundi,mchawi,bahandi","kiti","f","4","html-keyboard-response","1054","f","kiti","true","",""
"1523","","","","","4","html-slider-response","1055","","","","1",""
"3686","office","leso,hazini,yatima,kuna","leso","f","4","html-keyboard-response","1056","f","leso","true","",""
"1677","","","","","4","html-slider-response","1057","","","","5",""
"3697","wheel","punda,bafuni,tawo,baadaye","bafuni","v","4","html-keyboard-response","1058","f","punda","false","",""
"1532","","","","","4","html-slider-response","1059","","","","1",""
"2621","spoon","pagsulod,betri,nzuri,ngazi","pagsulod","f","4","html-keyboard-response","1060","f","pagsulod","true","",""
"1493","","","","","4","html-slider-response","1061","","","","1",""
"2213","hammer","mekno,kitovu,napakyas,layag","napakyas","j","4","html-keyboard-response","1062","j","napakyas","true","",""
"1621","","","","","4","html-slider-response","1063","","","","5",""
"5960","cigar","ndugu,kuta,mlango,adhabu","adhabu","n","4","html-keyboard-response","1064","f","ndugu","false","",""
"1516","","","","","4","html-slider-response","1065","","","","1",""
"4829","shoe","nyeusi,hatua,uyoga,kama","uyoga","j","4","html-keyboard-response","1066","j","uyoga","true","",""
"1413","","","","","4","html-slider-response","1067","","","","4",""
"2216","list","alizeti,wingu,kuzama,kaso","wingu","v","5","html-keyboard-response","1069","v","wingu","true","",""
"1773","","","","","5","html-slider-response","1070","","","","2",""
"1358","number","shule,kengele,choori,mundamo","mundamo","n","5","html-keyboard-response","1071","v","kengele","false","",""
"1270","","","","","5","html-slider-response","1072","","","","2",""
"2420","apple","ukame,kisu,estante,edad","kisu","v","5","html-keyboard-response","1073","v","kisu","true","",""
"1478","","","","","5","html-slider-response","1074","","","","5",""
"2453","knee","mvuke,kubale,duka,bili","duka","j","5","html-keyboard-response","1075","n","bili","false","",""
"1341","","","","","5","html-slider-response","1076","","","","2",""
"4253","tooth","kijiko,kabalaka,uadui,pahiyum","kabalaka","v","5","html-keyboard-response","1077","v","kabalaka","true","",""
"1733","","","","","5","html-slider-response","1078","","","","1",""
"3719","berry","abogado,nogozi,kofia,kinywa","kofia","j","5","html-keyboard-response","1079","f","abogado","false","",""
"1340","","","","","5","html-slider-response","1080","","","","1",""
"3293","bridge","daima,sahani,ngono,panya","sahani","v","5","html-keyboard-response","1081","f","daima","false","",""
"1941","","","","","5","html-slider-response","1082","","","","1",""
"4791","perfume","bino,sungura,katuyoan,ndogo","katuyoan","j","5","html-keyboard-response","1083","j","katuyoan","true","",""
"1251","","","","","5","html-slider-response","1084","","","","4",""
"3205","ladder","mashua,pangalan,mwanga,kamba","pangalan","v","5","html-keyboard-response","1085","j","mwanga","false","",""
"1493","","","","","5","html-slider-response","1086","","","","1",""
"2277","pants","pintal,chuki,haki,hari","haki","j","5","html-keyboard-response","1087","j","haki","true","",""
"1455","","","","","5","html-slider-response","1088","","","","5",""
"2015","salmon","mzungu,seri,baharia,sensilyo","sensilyo","n","5","html-keyboard-response","1089","n","sensilyo","true","",""
"1820","","","","","5","html-slider-response","1090","","","","5",""
"3950","coffin","barua,tubag,kioo,hulma","kioo","j","5","html-keyboard-response","1091","j","kioo","true","",""
"1782","","","","","5","html-slider-response","1092","","","","4",""
"3239","park","tambok,pwani,ihalas,bunifu","bunifu","n","5","html-keyboard-response","1093","f","tambok","false","",""
"1709","","","","","5","html-slider-response","1094","","","","1",""
"3438","giraffe","daraja,jumatu,mahitabo,hangyo","mahitabo","j","5","html-keyboard-response","1095","j","mahitabo","true","",""
"1957","","","","","5","html-slider-response","1096","","","","1",""
"2037","mirror","sulagma,rangi,kanding,furaha","sulagma","f","5","html-keyboard-response","1097","f","sulagma","true","",""
"1478","","","","","5","html-slider-response","1098","","","","1",""
"2037","ceiling","kugita,kawaida,rayna,maua","maua","n","5","html-keyboard-response","1099","f","kugita","false","",""
"1214","","","","","5","html-slider-response","1100","","","","1",""
"3006","marker","mapafu,maji,salita,atay","maji","v","5","html-keyboard-response","1101","v","maji","true","",""
"2102","","","","","5","html-slider-response","1102","","","","1",""
"3657","sock","ndoora,mamba,kimysa,mtirka","mamba","v","5","html-keyboard-response","1103","f","ndoora","false","",""
"6338","","","","","5","html-slider-response","1104","","","","1",""
"2657","cop","bustani,mechezo,jikoni,bakus","mechezo","v","5","html-keyboard-response","1105","v","mechezo","true","",""
"1582","","","","","5","html-slider-response","1106","","","","5",""
"2781","gift","pagtawag,baba,nyange,baso","pagtawag","f","5","html-keyboard-response","1107","f","pagtawag","true","",""
"1455","","","","","5","html-slider-response","1108","","","","2",""
"3325","notebook","kemia,msitu,kila,mdudu","kemia","f","5","html-keyboard-response","1109","v","msitu","false","",""
"1837","","","","","5","html-slider-response","1110","","","","1",""
"3135","bank","kudhibi,tualya,ofisi,silingan","silingan","n","5","html-keyboard-response","1111","n","silingan","true","",""
"1682","","","","","5","html-slider-response","1112","","","","4",""
"2101","letter","filimbi,chuma,uhuru,kifua","kifua","n","5","html-keyboard-response","1113","f","filimbi","false","",""
"1821","","","","","5","html-slider-response","1114","","","","1",""
"2830","candle","gabi,farasi,geza,kupanda","geza","j","5","html-keyboard-response","1115","j","geza","true","",""
"1302","","","","","5","html-slider-response","1116","","","","1",""
"3576","bread","kaili,dari,dizeli,bugas","dari","v","5","html-keyboard-response","1117","f","kaili","false","",""
"1755","","","","","5","html-slider-response","1118","","","","1",""
"2318","snake","jansa,karon,pagtukod,mvringo","pagtukod","j","5","html-keyboard-response","1119","j","pagtukod","true","",""
"1686","","","","","5","html-slider-response","1120","","","","1",""
"3078","rose","singizi,mwanake,paghalad,amani","paghalad","j","5","html-keyboard-response","1121","n","amani","false","",""
"3663","","","","","5","html-slider-response","1122","","","","2",""
"2030","hill","kushoto,matumbo,kukimba,sweta","matumbo","v","5","html-keyboard-response","1123","f","kushoto","false","",""
"1333","","","","","5","html-slider-response","1124","","","","1",""
"2437","train","itik,dakika,sayari,mungu","sayari","j","5","html-keyboard-response","1125","j","sayari","true","",""
"1589","","","","","5","html-slider-response","1126","","","","1",""
"2472","shop","nopya,kerida,ndezu,samaki","samaki","n","5","html-keyboard-response","1127","n","samaki","true","",""
"1292","","","","","5","html-slider-response","1128","","","","4",""
"3341","nose","sehemu,gubat,kopa,kidole","sehemu","f","5","html-keyboard-response","1129","f","sehemu","true","",""
"1501","","","","","5","html-slider-response","1130","","","","5",""
"1727","boat","hamsi,agalon,pombe,kitanda","agalon","v","5","html-keyboard-response","1131","f","hamsi","false","",""
"1406","","","","","5","html-slider-response","1132","","","","1",""
"3439","body","tindashan,nyundu,jibini,kununa","tindashan","f","5","html-keyboard-response","1133","f","tindashan","true","",""
"1304","","","","","5","html-slider-response","1134","","","","5",""
"1285","bed","kalipay,haraka,starehe,mapintas","mapintas","n","5","html-keyboard-response","1135","f","kalipay","false","",""
"1589","","","","","5","html-slider-response","1136","","","","1",""
"3861","squirrel","mahugaw,hofu,ukweli,kichwa","hofu","v","5","html-keyboard-response","1137","v","hofu","true","",""
"1557","","","","","5","html-slider-response","1138","","","","5",""
"2024","window","nanga,kweli,kujenga,umaga","kweli","v","5","html-keyboard-response","1139","v","kweli","true","",""
"1445","","","","","5","html-slider-response","1140","","","","1",""
"2502","bonfire","mwezi,mfuko,goti,kusanya","goti","j","5","html-keyboard-response","1141","f","mwezi","false","",""
"1678","","","","","5","html-slider-response","1142","","","","1",""
"3469","fish","bala,baho,buli,imani","buli","j","5","html-keyboard-response","1143","j","buli","true","",""
"1349","","","","","5","html-slider-response","1144","","","","4",""
"5669","cat","neyemba,paghukom,baki,akili","paghukom","v","5","html-keyboard-response","1145","f","neyemba","false","",""
"2678","","","","","5","html-slider-response","1146","","","","1",""
"3959","spider","kamwe,bunyag,mkboa,atop","kamwe","f","5","html-keyboard-response","1147","f","kamwe","true","",""
"1219","","","","","5","html-slider-response","1148","","","","1",""
"7989","eel","ishara,kunywa,msumari,kabuang","msumari","j","5","html-keyboard-response","1149","j","msumari","true","",""
"2558","","","","","5","html-slider-response","1150","","","","2",""
"3246","woman","bandari,bituin,kovuli,pagtabon","pagtabon","n","5","html-keyboard-response","1151","n","pagtabon","true","",""
"2061","","","","","5","html-slider-response","1152","","","","4",""
"3423","magazine","kiti,gundi,mchawi,bahandi","kiti","f","5","html-keyboard-response","1153","v","gundi","false","",""
"1388","","","","","5","html-slider-response","1154","","","","1",""
"2590","pudding","abug,mpishi,aibu,iring","aibu","j","5","html-keyboard-response","1155","j","aibu","true","",""
"1422","","","","","5","html-slider-response","1156","","","","5",""
"3166","lamp","daub,bilaska,mbolea,afya","afya","n","5","html-keyboard-response","1157","n","afya","true","",""
"1767","","","","","5","html-slider-response","1158","","","","1",""
"3637","cave","ganti,maisha,kesho,nyundo","kesho","j","5","html-keyboard-response","1159","f","ganti","false","",""
"3965","","","","","5","html-slider-response","1160","","","","2",""
"2527","shoulder","kelele,ndaniya,guruwe,mkuu","mkuu","n","5","html-keyboard-response","1161","n","mkuu","true","",""
"1712","","","","","5","html-slider-response","1162","","","","5",""
"3525","stone","ulimwengu,mkasi,asili,wingi","wingi","n","5","html-keyboard-response","1163","n","wingi","true","",""
"2375","","","","","5","html-slider-response","1164","","","","1",""
"2838","column","ufagio,pundok,dila,pala","ufagio","f","5","html-keyboard-response","1165","f","ufagio","true","",""
"1915","","","","","5","html-slider-response","1166","","","","2",""
"2157","page","wakala,wimbo,ishiri,skina","wimbo","v","5","html-keyboard-response","1167","v","wimbo","true","",""
"1437","","","","","5","html-slider-response","1168","","","","2",""
"2269","shoe","nyeusi,uyoga,hatua,kama","uyoga","v","5","html-keyboard-response","1169","v","uyoga","true","",""
"1573","","","","","5","html-slider-response","1170","","","","5",""
"3175","clock","kartasi,mbwa,abang,osha","mbwa","v","5","html-keyboard-response","1171","v","mbwa","true","",""
"1244","","","","","5","html-slider-response","1172","","","","1",""
"1822","towel","pagpalit,tembo,funzi,pito","pagpalit","f","5","html-keyboard-response","1173","f","pagpalit","true","",""
"1566","","","","","5","html-slider-response","1174","","","","1",""
"3485","tomato","chupi,chupa,takatak,mvua","mvua","n","5","html-keyboard-response","1175","f","chupi","false","",""
"2141","","","","","5","html-slider-response","1176","","","","1",""
"3326","bucket","kiatu,baga,ijayo,init","kiatu","f","5","html-keyboard-response","1177","f","kiatu","true","",""
"1678","","","","","5","html-slider-response","1178","","","","2",""
"1806","finger","simu,sufuria,lima,moyo","moyo","n","5","html-keyboard-response","1179","f","simu","false","",""
"3151","","","","","5","html-slider-response","1180","","","","1",""
"3199","mother","kahawa,mbuzi,babaye,jokofu","babaye","j","5","html-keyboard-response","1181","j","babaye","true","",""
"1355","","","","","5","html-slider-response","1182","","","","5",""
"2749","human","bado,tinapay,kikapu,punguza","tinapay","v","5","html-keyboard-response","1183","v","tinapay","true","",""
"2494","","","","","5","html-slider-response","1184","","","","5",""
"3021","sun","bendi,basi,luha,uongo","basi","v","5","html-keyboard-response","1185","v","basi","true","",""
"1829","","","","","5","html-slider-response","1186","","","","5",""
"3591","fork","baboy,paghago,gorisi,mgonjwa","mgonjwa","n","5","html-keyboard-response","1187","v","paghago","false","",""
"1790","","","","","5","html-slider-response","1188","","","","2",""
"2781","donkey","bloke,elfu,lalake,rombus","elfu","v","5","html-keyboard-response","1189","v","elfu","true","",""
"3533","","","","","5","html-slider-response","1190","","","","5",""
"4877","wolf","kaburi,lugha,ndizi,mchuzi","lugha","v","5","html-keyboard-response","1191","v","lugha","true","",""
"1741","","","","","5","html-slider-response","1192","","","","4",""
"5009","cigar","adhabu,ndugu,kuta,mlango","adhabu","f","5","html-keyboard-response","1193","v","ndugu","false","",""
"1730","","","","","5","html-slider-response","1194","","","","1",""
"2197","olive","jiwe,bata,siagi,welder","jiwe","f","5","html-keyboard-response","1195","j","siagi","false","",""
"2197","","","","","5","html-slider-response","1196","","","","1",""
"3813","key","miaka,goma,chombo,ahos","chombo","j","5","html-keyboard-response","1197","j","chombo","true","",""
"2189","","","","","5","html-slider-response","1198","","","","1",""
"1582","door","tena,soko,surali,nyota","surali","j","5","html-keyboard-response","1199","f","tena","false","",""
"1494","","","","","5","html-slider-response","1200","","","","1",""
"2774","wheel","bafuni,punda,tawo,baadaye","bafuni","f","5","html-keyboard-response","1201","v","punda","false","",""
"1421","","","","","5","html-slider-response","1202","","","","1",""
"2176","basket","kumbuka,kumba,utepe,hasira","kumba","v","5","html-keyboard-response","1203","v","kumba","true","",""
"1291","","","","","5","html-slider-response","1204","","","","1",""
"2701","elephant","kito,petye,pagduol,suka","kito","f","5","html-keyboard-response","1205","f","kito","true","",""
"1350","","","","","5","html-slider-response","1206","","","","5",""
"2342","office","hazini,yatima,kuna,leso","leso","n","5","html-keyboard-response","1207","n","leso","true","",""
"1599","","","","","5","html-slider-response","1208","","","","5",""
"1856","music","baiski,mraba,mageho,tumbo","baiski","f","5","html-keyboard-response","1209","f","baiski","true","",""
"1788","","","","","5","html-slider-response","1210","","","","5",""
"3117","tissue","ugomvi,lamigas,kisiwa,katika","ugomvi","f","5","html-keyboard-response","1211","v","lamigas","false","",""
"1358","","","","","5","html-slider-response","1212","","","","1",""
"1262","curtain","mchanga,lisud,bulwawan,chubani","mchanga","f","5","html-keyboard-response","1213","f","mchanga","true","",""
"1421","","","","","5","html-slider-response","1214","","","","1",""
"2798","flag","ndege,mkate,trekta,kawa","trekta","j","5","html-keyboard-response","1215","n","kawa","false","",""
"1628","","","","","5","html-slider-response","1216","","","","1",""
"3390","dog","lubi,bahari,washia,kalamu","bahari","v","5","html-keyboard-response","1217","f","lubi","false","",""
"1750","","","","","5","html-slider-response","1218","","","","4",""
"3431","cup","dagat,shimoni,matumai,jeraha","matumai","j","5","html-keyboard-response","1219","f","dagat","false","",""
"1587","","","","","5","html-slider-response","1220","","","","1",""
"2773","sheet","juuya,watu,bililhon,kamantis","bililhon","j","5","html-keyboard-response","1221","j","bililhon","true","",""
"2028","","","","","5","html-slider-response","1222","","","","1",""
"2654","spoon","pagsulod,betri,nzuri,ngazi","pagsulod","f","5","html-keyboard-response","1223","f","pagsulod","true","",""
"1831","","","","","5","html-slider-response","1224","","","","2",""
"3270","flower","tamasha,lobo,bega,usiku","bega","j","5","html-keyboard-response","1225","j","bega","true","",""
"1572","","","","","5","html-slider-response","1226","","","","2",""
"2597","picture","silya,kubwa,chaki,asin","kubwa","v","5","html-keyboard-response","1227","n","asin","false","",""
"1420","","","","","5","html-slider-response","1228","","","","2",""
"2767","puppet","napulo,mazishi,lamok,godoro","mazishi","v","5","html-keyboard-response","1229","v","mazishi","true","",""
"1739","","","","","5","html-slider-response","1230","","","","5",""
"2797","banana","kasamok,kazi,hagdan,twai","kazi","v","5","html-keyboard-response","1231","v","kazi","true","",""
"1599","","","","","5","html-slider-response","1232","","","","5",""
"2526","book","kuhesa,picha,mali,mara","mali","j","5","html-keyboard-response","1233","j","mali","true","",""
"1574","","","","","5","html-slider-response","1234","","","","1",""
"2645","triangle","kihozi,bentaha,kasadpan,liog","kasadpan","j","5","html-keyboard-response","1235","n","liog","false","",""
"1301","","","","","5","html-slider-response","1236","","","","1",""
"2181","poster","nchi,madungog,fedha,kasuko","madungog","v","5","html-keyboard-response","1237","n","kasuko","false","",""
"1597","","","","","5","html-slider-response","1238","","","","1",""
"2415","box","kuacha,adui,rafiki,kitande","adui","v","5","html-keyboard-response","1239","v","adui","true","",""
"1276","","","","","5","html-slider-response","1240","","","","1",""
"2702","mosquito","isda,taras,martilyo,gutom","martilyo","j","5","html-keyboard-response","1241","j","martilyo","true","",""
"2134","","","","","5","html-slider-response","1242","","","","5",""
"1894","shelf","pamahaw,bungtod,kadaot,awit","pamahaw","f","5","html-keyboard-response","1243","n","awit","false","",""
"1581","","","","","5","html-slider-response","1244","","","","1",""
"2415","scissors","duga,mtawa,tanuri,suga","tanuri","j","5","html-keyboard-response","1245","v","mtawa","false","",""
"1635","","","","","5","html-slider-response","1246","","","","1",""
"2454","hammer","napakyas,mekno,kitovu,layag","napakyas","f","5","html-keyboard-response","1247","f","napakyas","true","",""
"1686","","","","","5","html-slider-response","1248","","","","5",""
