"rt","en_word","options","swa_word","correct_answer","phase","trial_type","trial_index","input_answer","input_word","accuracy","certainty","amt_choices"
"2609","bonfire","goti,mwezi,mfuko,kusanya","goti","f","2","html-keyboard-response","106","f","goti","true","",""
"4214.900000000023","","","","","2","html-slider-response","107","","","","5",""
"3191","flower","tamasha,lobo,usiku,bega","bega","n","2","html-keyboard-response","108","n","bega","true","",""
"1471","","","","","2","html-slider-response","109","","","","4",""
"8599","column","pundok,dila,pala,ufagio","ufagio","n","2","html-keyboard-response","110","n","ufagio","true","",""
"1791","","","","","2","html-slider-response","111","","","","1",""
"2751","music","mraba,mageho,tumbo,baiski","baiski","n","2","html-keyboard-response","112","n","baiski","true","",""
"1655","","","","","2","html-slider-response","113","","","","4",""
"4383","spider","kamwe,bunyag,mkboa,atop","kamwe","f","2","html-keyboard-response","114","f","kamwe","true","",""
"1798.7999999999302","","","","","2","html-slider-response","115","","","","2",""
"3127","fork","baboy,mgonjwa,paghago,gorisi","mgonjwa","v","2","html-keyboard-response","116","f","baboy","false","",""
"2431","","","","","2","html-slider-response","117","","","","2",""
"3087","mosquito","martilyo,isda,taras,gutom","martilyo","f","2","html-keyboard-response","118","f","martilyo","true","",""
"1614.7999999999302","","","","","2","html-slider-response","119","","","","4",""
"4631","banana","kasamok,hagdan,twai,kazi","kazi","n","2","html-keyboard-response","120","f","kasamok","false","",""
"2814.8000000000466","","","","","2","html-slider-response","121","","","","2",""
"6334","cup","matumai,dagat,shimoni,jeraha","matumai","f","2","html-keyboard-response","122","f","matumai","true","",""
"2710.70000000007","","","","","2","html-slider-response","123","","","","2",""
"9079","shop","nopya,kerida,samaki,ndezu","samaki","j","2","html-keyboard-response","124","j","samaki","true","",""
"1679.1000000000931","","","","","2","html-slider-response","125","","","","2",""
"4302","elephant","petye,pagduol,suka,kito","kito","n","2","html-keyboard-response","126","v","pagduol","false","",""
"8294.900000000023","","","","","2","html-slider-response","127","","","","2",""
"5407","bucket","baga,ijayo,init,kiatu","kiatu","n","2","html-keyboard-response","128","f","baga","false","",""
"6759.20000000007","","","","","2","html-slider-response","129","","","","2",""
"10160","book","kuhesa,mali,picha,mara","mali","v","2","html-keyboard-response","130","v","mali","true","",""
"2158.8000000000466","","","","","2","html-slider-response","131","","","","2",""
"9471","mirror","sulagma,rangi,kanding,furaha","sulagma","f","2","html-keyboard-response","132","v","rangi","false","",""
"2327","","","","","2","html-slider-response","133","","","","2",""
"6975","office","leso,hazini,yatima,kuna","leso","f","2","html-keyboard-response","134","n","kuna","false","",""
"1743.0999999999767","","","","","2","html-slider-response","135","","","","2",""
"3911","body","nyundu,jibini,tindashan,kununa","tindashan","j","2","html-keyboard-response","136","v","jibini","false","",""
"1895.0999999999767","","","","","2","html-slider-response","137","","","","2",""
"3383","perfume","bino,katuyoan,sungura,ndogo","katuyoan","v","2","html-keyboard-response","138","j","sungura","false","",""
"2215","","","","","2","html-slider-response","139","","","","1",""
"3543","olive","bata,siagi,jiwe,welder","jiwe","j","2","html-keyboard-response","140","j","jiwe","true","",""
"2790.9000000000233","","","","","2","html-slider-response","141","","","","4",""
"5391","magazine","kiti,gundi,mchawi,bahandi","kiti","f","2","html-keyboard-response","142","j","mchawi","false","",""
"3286.9000000000233","","","","","2","html-slider-response","143","","","","4",""
"13167","bread","kaili,dari,dizeli,bugas","dari","v","2","html-keyboard-response","144","n","bugas","false","",""
"1774.8000000000466","","","","","2","html-slider-response","145","","","","2",""
"26119","cave","ganti,kesho,maisha,nyundo","kesho","v","2","html-keyboard-response","146","f","ganti","false","",""
"3726.70000000007","","","","","2","html-slider-response","147","","","","1",""
"5367","ladder","mashua,mwanga,kamba,pangalan","pangalan","n","2","html-keyboard-response","148","n","pangalan","true","",""
"1798.9000000000233","","","","","2","html-slider-response","149","","","","1",""
"2495","human","tinapay,bado,kikapu,punguza","tinapay","f","2","html-keyboard-response","150","f","tinapay","true","",""
"1343","","","","","2","html-slider-response","151","","","","4",""
"3855","clock","kartasi,abang,osha,mbwa","mbwa","n","2","html-keyboard-response","152","n","mbwa","true","",""
"1310.9000000000233","","","","","2","html-slider-response","153","","","","2",""
"7335","shelf","pamahaw,bungtod,kadaot,awit","pamahaw","f","2","html-keyboard-response","154","v","bungtod","false","",""
"1390.8000000000466","","","","","2","html-slider-response","155","","","","1",""
"2679","salmon","mzungu,sensilyo,seri,baharia","sensilyo","v","2","html-keyboard-response","156","j","seri","false","",""
"2198.6999999999534","","","","","2","html-slider-response","157","","","","1",""
"3247","coffin","barua,tubag,kioo,hulma","kioo","j","2","html-keyboard-response","158","v","tubag","false","",""
"926.5999999998603","","","","","2","html-slider-response","159","","","","2",""
"2743","notebook","msitu,kila,kemia,mdudu","kemia","j","2","html-keyboard-response","160","n","mdudu","false","",""
"1198.5999999998603","","","","","2","html-slider-response","161","","","","1",""
"3823","shoulder","mkuu,kelele,ndaniya,guruwe","mkuu","f","2","html-keyboard-response","162","n","guruwe","false","",""
"910.8000000000466","","","","","2","html-slider-response","163","","","","1",""
"3295","park","tambok,bunifu,pwani,ihalas","bunifu","v","2","html-keyboard-response","164","j","pwani","false","",""
"1391","","","","","2","html-slider-response","165","","","","2",""
"18319","number","mundamo,shule,kengele,choori","mundamo","f","2","html-keyboard-response","166","f","mundamo","true","",""
"3775","","","","","2","html-slider-response","167","","","","1",""
"2408","apple","kisu,ukame,estante,edad","kisu","f","2","html-keyboard-response","168","n","edad","false","",""
"1191.1000000000931","","","","","2","html-slider-response","169","","","","1",""
"3256","letter","kifua,filimbi,chuma,uhuru","kifua","f","2","html-keyboard-response","170","v","filimbi","false","",""
"3318.899999999907","","","","","2","html-slider-response","171","","","","1",""
"9000","eel","ishara,kunywa,msumari,kabuang","msumari","j","2","html-keyboard-response","172","v","kunywa","false","",""
"3022.899999999907","","","","","2","html-slider-response","173","","","","2",""
"26743","cop","mechezo,bustani,jikoni,bakus","mechezo","f","2","html-keyboard-response","174","n","bakus","false","",""
"2278.9000000001397","","","","","2","html-slider-response","175","","","","1",""
"32447","wolf","kaburi,lugha,ndizi,mchuzi","lugha","v","2","html-keyboard-response","176","n","mchuzi","false","",""
"4174.800000000047","","","","","2","html-slider-response","177","","","","2",""
"5599","squirrel","mahugaw,ukweli,hofu,kichwa","hofu","j","2","html-keyboard-response","178","n","kichwa","false","",""
"2647","","","","","2","html-slider-response","179","","","","2",""
"2607","nose","gubat,sehemu,kopa,kidole","sehemu","v","2","html-keyboard-response","180","j","kopa","false","",""
"1966.7000000001863","","","","","2","html-slider-response","181","","","","1",""
"3527","sock","mamba,ndoora,kimysa,mtirka","mamba","f","2","html-keyboard-response","182","v","ndoora","false","",""
"926.9000000001397","","","","","2","html-slider-response","183","","","","1",""
"4407","bank","silingan,kudhibi,tualya,ofisi","silingan","f","2","html-keyboard-response","184","f","silingan","true","",""
"1078.8999999999069","","","","","2","html-slider-response","185","","","","1",""
"5271","donkey","elfu,bloke,lalake,rombus","elfu","f","2","html-keyboard-response","186","f","elfu","true","",""
"1783","","","","","2","html-slider-response","187","","","","1",""
"2527","poster","madungog,nchi,fedha,kasuko","madungog","f","2","html-keyboard-response","188","n","kasuko","false","",""
"1982.8999999999069","","","","","2","html-slider-response","189","","","","1",""
"3135","puppet","mazishi,napulo,lamok,godoro","mazishi","f","2","html-keyboard-response","190","j","lamok","false","",""
"3599.2000000001863","","","","","2","html-slider-response","191","","","","1",""
"1927","hill","matumbo,kushoto,kukimba,sweta","matumbo","f","2","html-keyboard-response","192","n","sweta","false","",""
"1215","","","","","2","html-slider-response","193","","","","1",""
"3847","tooth","kijiko,uadui,kabalaka,pahiyum","kabalaka","j","2","html-keyboard-response","194","f","kijiko","false","",""
"1126.6999999999534","","","","","2","html-slider-response","195","","","","1",""
"2647","woman","bandari,bituin,pagtabon,kovuli","pagtabon","j","2","html-keyboard-response","196","n","kovuli","false","",""
"1374.5","","","","","2","html-slider-response","197","","","","1",""
"2823","wheel","punda,bafuni,tawo,baadaye","bafuni","v","2","html-keyboard-response","198","f","punda","false","",""
"2222.7999999998137","","","","","2","html-slider-response","199","","","","1",""
"1783","mother","kahawa,mbuzi,babaye,jokofu","babaye","j","2","html-keyboard-response","200","f","kahawa","false","",""
"1030.6000000000931","","","","","2","html-slider-response","201","","","","1",""
"2047","bed","kalipay,haraka,starehe,mapintas","mapintas","n","2","html-keyboard-response","202","v","haraka","false","",""
"999.1000000000931","","","","","2","html-slider-response","203","","","","1",""
"5559","key","miaka,chombo,goma,ahos","chombo","v","2","html-keyboard-response","204","j","goma","false","",""
"1535.1999999999534","","","","","2","html-slider-response","205","","","","1",""
"3903","page","wakala,wimbo,ishiri,skina","wimbo","v","2","html-keyboard-response","206","n","skina","false","",""
"1063","","","","","2","html-slider-response","207","","","","1",""
"4071","pants","pintal,chuki,hari,haki","haki","n","2","html-keyboard-response","208","f","pintal","false","",""
"1087","","","","","2","html-slider-response","209","","","","1",""
"2239","sun","basi,bendi,luha,uongo","basi","f","2","html-keyboard-response","210","f","basi","true","",""
"1103.1999999999534","","","","","2","html-slider-response","211","","","","1",""
"5887","finger","simu,sufuria,lima,moyo","moyo","n","2","html-keyboard-response","212","f","simu","false","",""
"1887.0999999998603","","","","","2","html-slider-response","213","","","","1",""
"6935","shoe","nyeusi,hatua,kama,uyoga","uyoga","n","2","html-keyboard-response","214","j","kama","false","",""
"2063.0999999998603","","","","","2","html-slider-response","215","","","","1",""
"4247","giraffe","daraja,jumatu,mahitabo,hangyo","mahitabo","j","2","html-keyboard-response","216","j","mahitabo","true","",""
"1839.0999999998603","","","","","2","html-slider-response","217","","","","4",""
"22718","dog","lubi,bahari,washia,kalamu","bahari","v","2","html-keyboard-response","218","f","lubi","false","",""
"1382.8999999999069","","","","","2","html-slider-response","219","","","","4",""
"5999","box","adui,kuacha,rafiki,kitande","adui","f","2","html-keyboard-response","220","n","kitande","false","",""
"879.1000000000931","","","","","2","html-slider-response","221","","","","2",""
"3151","scissors","tanuri,duga,mtawa,suga","tanuri","f","2","html-keyboard-response","222","v","duga","false","",""
"911.1000000000931","","","","","2","html-slider-response","223","","","","1",""
"2735","cat","paghukom,neyemba,baki,akili","paghukom","f","2","html-keyboard-response","224","j","baki","false","",""
"959","","","","","2","html-slider-response","225","","","","2",""
"4143","basket","kumba,kumbuka,utepe,hasira","kumba","f","2","html-keyboard-response","226","v","kumbuka","false","",""
"1374.7999999998137","","","","","2","html-slider-response","227","","","","2",""
"4455","snake","jansa,karon,mvringo,pagtukod","pagtukod","n","2","html-keyboard-response","228","f","jansa","false","",""
"902.8999999999069","","","","","2","html-slider-response","229","","","","1",""
"2143","gift","pagtawag,baba,nyange,baso","pagtawag","f","2","html-keyboard-response","230","v","baba","false","",""
"1079.1999999999534","","","","","2","html-slider-response","231","","","","1",""
"2591","train","itik,dakika,mungu,sayari","sayari","n","2","html-keyboard-response","232","j","mungu","false","",""
"1078.5999999998603","","","","","2","html-slider-response","233","","","","1",""
"3255","pudding","abug,aibu,mpishi,iring","aibu","v","2","html-keyboard-response","234","f","abug","false","",""
"774.8999999999069","","","","","2","html-slider-response","235","","","","1",""
"5199","tomato","chupi,mvua,chupa,takatak","mvua","v","2","html-keyboard-response","236","v","mvua","true","",""
"1294.8999999999069","","","","","2","html-slider-response","237","","","","4",""
"2143","stone","ulimwengu,mkasi,wingi,asili","wingi","j","2","html-keyboard-response","238","n","asili","false","",""
"951","","","","","2","html-slider-response","239","","","","2",""
"9983","hammer","napakyas,mekno,kitovu,layag","napakyas","f","2","html-keyboard-response","240","j","kitovu","false","",""
"1310.8999999999069","","","","","2","html-slider-response","241","","","","2",""
"4679","knee","duka,mvuke,kubale,bili","duka","f","2","html-keyboard-response","242","n","bili","false","",""
"1582.9000000001397","","","","","2","html-slider-response","243","","","","2",""
"2071","ceiling","kugita,kawaida,maua,rayna","maua","j","2","html-keyboard-response","244","j","maua","true","",""
"686.8999999999069","","","","","2","html-slider-response","245","","","","1",""
"1735","spoon","betri,nzuri,pagsulod,ngazi","pagsulod","j","2","html-keyboard-response","246","f","betri","false","",""
"719.0999999998603","","","","","2","html-slider-response","247","","","","1",""
"2135","marker","mapafu,salita,maji,atay","maji","j","2","html-keyboard-response","248","j","maji","true","",""
"718.8999999999069","","","","","2","html-slider-response","249","","","","1",""
"2551","candle","gabi,geza,farasi,kupanda","geza","v","2","html-keyboard-response","250","n","kupanda","false","",""
"926.7000000001863","","","","","2","html-slider-response","251","","","","1",""
"2223","tissue","lamigas,ugomvi,kisiwa,katika","ugomvi","v","2","html-keyboard-response","252","n","katika","false","",""
"606.8999999999069","","","","","2","html-slider-response","253","","","","1",""
"2439","bridge","daima,ngono,panya,sahani","sahani","n","2","html-keyboard-response","254","f","daima","false","",""
"878.8999999999069","","","","","2","html-slider-response","255","","","","1",""
"1791","berry","abogado,kofia,nogozi,kinywa","kofia","v","2","html-keyboard-response","256","v","kofia","true","",""
"2223.3000000000466","","","","","2","html-slider-response","257","","","","2",""
"3879","triangle","kihozi,kasadpan,bentaha,liog","kasadpan","v","2","html-keyboard-response","258","j","bentaha","false","",""
"4261.800000000047","","","","","2","html-slider-response","259","","","","2",""
"2639","door","surali,tena,soko,nyota","surali","f","2","html-keyboard-response","260","n","nyota","false","",""
"1623.1000000000931","","","","","2","html-slider-response","261","","","","2",""
"10711","fish","bala,buli,baho,imani","buli","v","2","html-keyboard-response","262","j","baho","false","",""
"2015","","","","","2","html-slider-response","263","","","","2",""
"2367","curtain","lisud,bulwawan,mchanga,chubani","mchanga","j","2","html-keyboard-response","264","j","mchanga","true","",""
"1367.1000000000931","","","","","2","html-slider-response","265","","","","4",""
"2151","flag","ndege,trekta,mkate,kawa","trekta","v","2","html-keyboard-response","266","n","kawa","false","",""
"2319","","","","","2","html-slider-response","267","","","","1",""
"3287","boat","agalon,hamsi,pombe,kitanda","agalon","f","2","html-keyboard-response","268","v","hamsi","false","",""
"1487.1000000000931","","","","","2","html-slider-response","269","","","","1",""
"2151","rose","paghalad,singizi,mwanake,amani","paghalad","f","2","html-keyboard-response","270","n","amani","false","",""
"1167.1999999999534","","","","","2","html-slider-response","271","","","","1",""
"2591","lamp","daub,afya,bilaska,mbolea","afya","v","2","html-keyboard-response","272","n","mbolea","false","",""
"1103","","","","","2","html-slider-response","273","","","","1",""
"2727","cigar","adhabu,ndugu,kuta,mlango","adhabu","f","2","html-keyboard-response","274","n","mlango","false","",""
"1198.8999999999069","","","","","2","html-slider-response","275","","","","1",""
"3127","list","wingu,alizeti,kuzama,kaso","wingu","f","2","html-keyboard-response","276","n","kaso","false","",""
"807.2000000001863","","","","","2","html-slider-response","277","","","","1",""
"4823","sheet","juuya,watu,bililhon,kamantis","bililhon","j","2","html-keyboard-response","278","v","watu","false","",""
"4310.800000000047","","","","","2","html-slider-response","279","","","","2",""
"6743","picture","silya,chaki,kubwa,asin","kubwa","j","2","html-keyboard-response","280","v","chaki","false","",""
"1894.8000000000466","","","","","2","html-slider-response","281","","","","2",""
"27543","towel","tembo,funzi,pito,pagpalit","pagpalit","n","2","html-keyboard-response","282","f","tembo","false","",""
"2598.899999999907","","","","","2","html-slider-response","283","","","","2",""
"3454","window","kweli,nanga,kujenga,umaga","kweli","f","2","html-keyboard-response","284","v","nanga","false","",""
"2622.4000000001397","","","","","2","html-slider-response","285","","","","2",""
"5934","box","kuacha,rafiki,kitande,adui","adui","n","3","html-keyboard-response","293","j","kitande","false","","4"
"2703","","","","","3","html-slider-response","294","","","","2",""
"6807","","","","","3","html-keyboard-response","295","","","","",""
"3519","pants","haki,pintal,chuki,hari","haki","f","3","html-keyboard-response","296","n","hari","false","","4"
"1863.1000000000931","","","","","3","html-slider-response","297","","","","2",""
"11287","","","","","3","html-keyboard-response","298","","","","",""
"5167","cup","dagat,shimoni,jeraha,matumai","matumai","n","3","html-keyboard-response","299","j","jeraha","false","","4"
"1103.3999999999069","","","","","3","html-slider-response","300","","","","2",""
"6480","","","","","3","html-keyboard-response","301","","","","",""
"0","triangle","kihozi,kasadpan,bentaha,liog","kasadpan","v","3","html-keyboard-response","302","n","liog","false","","4"
"2838.5","","","","","3","html-slider-response","303","","","","2",""
"10975","","","","","3","html-keyboard-response","304","","","","",""
"4790","curtain","lisud,mchanga,bulwawan,chubani","mchanga","v","3","html-keyboard-response","305","v","mchanga","true","","4"
"2055","","","","","3","html-slider-response","306","","","","2",""
"7279","","","","","3","html-keyboard-response","307","","","","",""
"2271","clock","mbwa,kartasi,abang,osha","mbwa","f","3","html-keyboard-response","308","f","mbwa","true","","4"
"1255","","","","","3","html-slider-response","309","","","","4",""
"5071","","","","","3","html-keyboard-response","310","","","","",""
"4111","mirror","sulagma,rangi,kanding,furaha","sulagma","f","3","html-keyboard-response","311","v","rangi","false","","4"
"2182.5","","","","","3","html-slider-response","312","","","","1",""
"6767","","","","","3","html-keyboard-response","313","","","","",""
"2143","coffin","kioo,barua,tubag,hulma","kioo","f","3","html-keyboard-response","314","f","kioo","true","","1"
"2039","","","","","3","html-slider-response","315","","","","5",""
"5919","","","","","3","html-keyboard-response","316","","","","",""
"3735","magazine","gundi,mchawi,bahandi,kiti","kiti","n","3","html-keyboard-response","317","v","mchawi","false","","4"
"1886.5","","","","","3","html-slider-response","318","","","","2",""
"10327","","","","","3","html-keyboard-response","319","","","","",""
"1839","column","ufagio,pundok,dila,pala","ufagio","f","3","html-keyboard-response","320","f","ufagio","true","","1"
"5271.09999999986","","","","","3","html-slider-response","321","","","","5",""
"4399","","","","","3","html-keyboard-response","322","","","","",""
"3447","number","mundamo,shule,kengele,choori","mundamo","f","3","html-keyboard-response","323","f","mundamo","true","","4"
"2655.100000000093","","","","","3","html-slider-response","324","","","","2",""
"7823","","","","","3","html-keyboard-response","325","","","","",""
"3439","rose","singizi,mwanake,amani,paghalad","paghalad","n","3","html-keyboard-response","326","j","amani","false","","4"
"1566.6000000000931","","","","","3","html-slider-response","327","","","","2",""
"6615","","","","","3","html-keyboard-response","328","","","","",""
"4183","eel","ishara,kunywa,msumari,kabuang","msumari","j","3","html-keyboard-response","329","f","ishara","false","","4"
"1751","","","","","3","html-slider-response","330","","","","2",""
"6951","","","","","3","html-keyboard-response","331","","","","",""
"3951","gift","baba,nyange,pagtawag,baso","pagtawag","j","3","html-keyboard-response","332","n","baso","false","","4"
"1695.1000000000931","","","","","3","html-slider-response","333","","","","1",""
"8991","","","","","3","html-keyboard-response","334","","","","",""
"6478","apple","ukame,estante,edad,kisu","kisu","n","3","html-keyboard-response","335","n","kisu","true","","1"
"2278.9000000001397","","","","","3","html-slider-response","336","","","","5",""
"847","","","","","3","html-keyboard-response","337","","","","",""
"6927","wheel","punda,bafuni,tawo,baadaye","bafuni","v","3","html-keyboard-response","338","v","bafuni","true","","1"
"1502.7000000001863","","","","","3","html-slider-response","339","","","","5",""
"687","","","","","3","html-keyboard-response","340","","","","",""
"3672","knee","duka,mvuke,kubale,bili","duka","f","3","html-keyboard-response","341","n","bili","false","","4"
"2887.1999999999534","","","","","3","html-slider-response","342","","","","2",""
"5591","","","","","3","html-keyboard-response","343","","","","",""
"1791","basket","kumba,kumbuka,utepe,hasira","kumba","f","3","html-keyboard-response","344","f","kumba","true","","1"
"7071.299999999814","","","","","3","html-slider-response","345","","","","5",""
"727","","","","","3","html-keyboard-response","346","","","","",""
"3832","park","tambok,pwani,ihalas,bunifu","bunifu","n","3","html-keyboard-response","347","v","pwani","false","","4"
"1295.0999999998603","","","","","3","html-slider-response","348","","","","1",""
"9520","","","","","3","html-keyboard-response","349","","","","",""
"3560","finger","simu,moyo,sufuria,lima","moyo","v","3","html-keyboard-response","350","f","simu","false","","4"
"3271.1999999999534","","","","","3","html-slider-response","351","","","","1",""
"10544","","","","","3","html-keyboard-response","352","","","","",""
"4423","boat","agalon,hamsi,pombe,kitanda","agalon","f","3","html-keyboard-response","353","f","agalon","true","","4"
"3231.0999999998603","","","","","3","html-slider-response","354","","","","2",""
"8296","","","","","3","html-keyboard-response","355","","","","",""
"2719","hill","kushoto,kukimba,matumbo,sweta","matumbo","j","3","html-keyboard-response","356","n","sweta","false","","4"
"1343.1000000000931","","","","","3","html-slider-response","357","","","","2",""
"7638","","","","","3","html-keyboard-response","358","","","","",""
"98703","train","itik,sayari,dakika,mungu","sayari","v","3","html-keyboard-response","359","j","dakika","false","","4"
"3918.899999999907","","","","","3","html-slider-response","360","","","","1",""
"23455","","","","","3","html-keyboard-response","361","","","","",""
"3640","wolf","lugha,kaburi,ndizi,mchuzi","lugha","f","3","html-keyboard-response","362","f","lugha","true","","4"
"1839.1000000000931","","","","","3","html-slider-response","363","","","","1",""
"17087","","","","","3","html-keyboard-response","364","","","","",""
"40056","snake","pagtukod,jansa,karon,mvringo","pagtukod","f","3","html-keyboard-response","365","v","jansa","false","","4"
"2367","","","","","3","html-slider-response","366","","","","1",""
"47671","","","","","3","html-keyboard-response","367","","","","",""
"7271","tooth","kijiko,kabalaka,uadui,pahiyum","kabalaka","v","3","html-keyboard-response","368","n","pahiyum","false","","4"
"1815.1000000000931","","","","","3","html-slider-response","369","","","","1",""
"1135","","","","","3","html-keyboard-response","370","","","","",""
"19783","notebook","msitu,kila,kemia,mdudu","kemia","j","3","html-keyboard-response","371","n","mdudu","false","","4"
"1406.7999999998137","","","","","3","html-slider-response","372","","","","2",""
"20456","","","","","3","html-keyboard-response","373","","","","",""
"37141","flag","trekta,ndege,mkate,kawa","trekta","f","3","html-keyboard-response","374","n","kawa","false","","4"
"1246.9000000003725","","","","","3","html-slider-response","375","","","","2",""
"1911","","","","","3","html-keyboard-response","376","","","","",""
"2511","squirrel","hofu,mahugaw,ukweli,kichwa","hofu","f","3","html-keyboard-response","377","v","mahugaw","false","","4"
"2295.3000000002794","","","","","3","html-slider-response","378","","","","1",""
"41383","","","","","3","html-keyboard-response","379","","","","",""
"10783","door","tena,soko,surali,nyota","surali","j","3","html-keyboard-response","380","n","nyota","false","","4"
"1927","","","","","3","html-slider-response","381","","","","2",""
"7967","","","","","3","html-keyboard-response","382","","","","",""
"4431","salmon","mzungu,seri,baharia,sensilyo","sensilyo","n","3","html-keyboard-response","383","v","seri","false","","4"
"1663.1000000000931","","","","","3","html-slider-response","384","","","","1",""
"1871","","","","","3","html-keyboard-response","385","","","","",""
"3583","shoulder","kelele,ndaniya,mkuu,guruwe","mkuu","j","3","html-keyboard-response","386","n","guruwe","false","","4"
"1807.1999999997206","","","","","3","html-slider-response","387","","","","1",""
"7839","","","","","3","html-keyboard-response","388","","","","",""
"3815","lamp","afya,daub,bilaska,mbolea","afya","f","3","html-keyboard-response","389","n","mbolea","false","","4"
"1847.1000000000931","","","","","3","html-slider-response","390","","","","4",""
"8350","","","","","3","html-keyboard-response","391","","","","",""
"2631","shelf","pamahaw,bungtod,kadaot,awit","pamahaw","f","3","html-keyboard-response","392","f","pamahaw","true","","1"
"2087","","","","","3","html-slider-response","393","","","","5",""
"17991","","","","","3","html-keyboard-response","394","","","","",""
"2415","human","bado,kikapu,punguza,tinapay","tinapay","n","3","html-keyboard-response","395","n","tinapay","true","","4"
"1478.8999999999069","","","","","3","html-slider-response","396","","","","5",""
"647","","","","","3","html-keyboard-response","397","","","","",""
"3959","towel","pagpalit,tembo,funzi,pito","pagpalit","f","3","html-keyboard-response","398","v","tembo","false","","4"
"1422.7999999998137","","","","","3","html-slider-response","399","","","","2",""
"6463","","","","","3","html-keyboard-response","400","","","","",""
"2335","cat","neyemba,baki,akili,paghukom","paghukom","n","3","html-keyboard-response","401","v","baki","false","","4"
"1119","","","","","3","html-slider-response","402","","","","4",""
"5663","","","","","3","html-keyboard-response","403","","","","",""
"3375","spider","bunyag,mkboa,atop,kamwe","kamwe","n","3","html-keyboard-response","404","v","mkboa","false","","4"
"1414.6999999997206","","","","","3","html-slider-response","405","","","","2",""
"6439","","","","","3","html-keyboard-response","406","","","","",""
"2855","window","nanga,kweli,kujenga,umaga","kweli","v","3","html-keyboard-response","407","v","kweli","true","","4"
"1318.7999999998137","","","","","3","html-slider-response","408","","","","2",""
"18855","","","","","3","html-keyboard-response","409","","","","",""
"2903","woman","bandari,bituin,pagtabon,kovuli","pagtabon","j","3","html-keyboard-response","410","j","pagtabon","true","","1"
"1607.2000000001863","","","","","3","html-slider-response","411","","","","5",""
"7384","","","","","3","html-keyboard-response","412","","","","",""
"3856","giraffe","daraja,mahitabo,jumatu,hangyo","mahitabo","v","3","html-keyboard-response","413","v","mahitabo","true","","4"
"1599","","","","","3","html-slider-response","414","","","","4",""
"8192","","","","","3","html-keyboard-response","415","","","","",""
"5198","elephant","petye,kito,pagduol,suka","kito","v","3","html-keyboard-response","416","j","pagduol","false","","4"
"2375.2000000001863","","","","","3","html-slider-response","417","","","","2",""
"6240","","","","","3","html-keyboard-response","418","","","","",""
"2279","cave","kesho,ganti,maisha,nyundo","kesho","f","3","html-keyboard-response","419","v","ganti","false","","4"
"3318.7000000001863","","","","","3","html-slider-response","420","","","","1",""
"6231","","","","","3","html-keyboard-response","421","","","","",""
"4254","bread","dari,kaili,dizeli,bugas","dari","f","3","html-keyboard-response","422","v","kaili","false","","4"
"1215.1000000000931","","","","","3","html-slider-response","423","","","","2",""
"5816","","","","","3","html-keyboard-response","424","","","","",""
"2976","stone","wingi,ulimwengu,mkasi,asili","wingi","f","3","html-keyboard-response","425","n","asili","false","","4"
"1111.2000000001863","","","","","3","html-slider-response","426","","","","2",""
"5543","","","","","3","html-keyboard-response","427","","","","",""
"3895","donkey","bloke,lalake,rombus,elfu","elfu","n","3","html-keyboard-response","428","n","elfu","true","","4"
"1751","","","","","3","html-slider-response","429","","","","1",""
"6183","","","","","3","html-keyboard-response","430","","","","",""
"3336","bridge","daima,ngono,panya,sahani","sahani","n","3","html-keyboard-response","431","j","panya","false","","4"
"1047","","","","","3","html-slider-response","432","","","","2",""
"7007","","","","","3","html-keyboard-response","433","","","","",""
"2623","bonfire","mwezi,goti,mfuko,kusanya","goti","v","3","html-keyboard-response","434","v","goti","true","","4"
"1102.7999999998137","","","","","3","html-slider-response","435","","","","5",""
"2175","","","","","3","html-keyboard-response","436","","","","",""
"2311","book","kuhesa,mali,picha,mara","mali","v","3","html-keyboard-response","437","v","mali","true","","4"
"1751.1999999997206","","","","","3","html-slider-response","438","","","","2",""
"5110","","","","","3","html-keyboard-response","439","","","","",""
"5607","fish","bala,baho,buli,imani","buli","j","3","html-keyboard-response","440","j","buli","true","","4"
"3758.9000000003725","","","","","3","html-slider-response","441","","","","2",""
"4559","","","","","3","html-keyboard-response","442","","","","",""
"4119","spoon","betri,nzuri,ngazi,pagsulod","pagsulod","n","3","html-keyboard-response","443","v","nzuri","false","","4"
"1286.9000000003725","","","","","3","html-slider-response","444","","","","1",""
"6287","","","","","3","html-keyboard-response","445","","","","",""
"2903","scissors","duga,mtawa,tanuri,suga","tanuri","j","3","html-keyboard-response","446","v","mtawa","false","","4"
"2574.899999999907","","","","","3","html-slider-response","447","","","","1",""
"6295","","","","","3","html-keyboard-response","448","","","","",""
"3191","page","wakala,wimbo,ishiri,skina","wimbo","v","3","html-keyboard-response","449","v","wimbo","true","","4"
"823.0999999996275","","","","","3","html-slider-response","450","","","","2",""
"5303","","","","","3","html-keyboard-response","451","","","","",""
"1887","nose","gubat,kopa,sehemu,kidole","sehemu","j","3","html-keyboard-response","452","j","sehemu","true","","1"
"2294.7999999998137","","","","","3","html-slider-response","453","","","","5",""
"5415","","","","","3","html-keyboard-response","454","","","","",""
"3663","ceiling","kugita,maua,kawaida,rayna","maua","v","3","html-keyboard-response","455","j","kawaida","false","","4"
"1598.7000000001863","","","","","3","html-slider-response","456","","","","2",""
"5695","","","","","3","html-keyboard-response","457","","","","",""
"2400","bucket","baga,ijayo,init,kiatu","kiatu","n","3","html-keyboard-response","458","f","baga","false","","4"
"1599.2000000001863","","","","","3","html-slider-response","459","","","","4",""
"6560","","","","","3","html-keyboard-response","460","","","","",""
"2503","berry","abogado,nogozi,kinywa,kofia","kofia","n","3","html-keyboard-response","461","n","kofia","true","","1"
"1919","","","","","3","html-slider-response","462","","","","5",""
"5119","","","","","3","html-keyboard-response","463","","","","",""
"3687","mother","babaye,kahawa,mbuzi,jokofu","babaye","f","3","html-keyboard-response","464","f","babaye","true","","1"
"2127.100000000093","","","","","3","html-slider-response","465","","","","5",""
"5935","","","","","3","html-keyboard-response","466","","","","",""
"2327","mosquito","isda,taras,martilyo,gutom","martilyo","j","3","html-keyboard-response","467","j","martilyo","true","","4"
"1463.0999999996275","","","","","3","html-slider-response","468","","","","4",""
"7503","","","","","3","html-keyboard-response","469","","","","",""
"3031","perfume","bino,sungura,ndogo,katuyoan","katuyoan","n","3","html-keyboard-response","470","n","katuyoan","true","","4"
"1231.1999999997206","","","","","3","html-slider-response","471","","","","2",""
"7119","","","","","3","html-keyboard-response","472","","","","",""
"3335","sheet","juuya,bililhon,watu,kamantis","bililhon","v","3","html-keyboard-response","473","f","juuya","false","","4"
"1791.1999999997206","","","","","3","html-slider-response","474","","","","1",""
"1591","","","","","3","html-keyboard-response","475","","","","",""
"1560","puppet","napulo,mazishi,lamok,godoro","mazishi","v","3","html-keyboard-response","476","v","mazishi","true","","1"
"1071.1000000000931","","","","","3","html-slider-response","477","","","","5",""
"1655","","","","","3","html-keyboard-response","478","","","","",""
"3016","poster","madungog,nchi,fedha,kasuko","madungog","f","3","html-keyboard-response","479","n","kasuko","false","","4"
"1751","","","","","3","html-slider-response","480","","","","2",""
"999","","","","","3","html-keyboard-response","481","","","","",""
"2968","music","baiski,mraba,mageho,tumbo","baiski","f","3","html-keyboard-response","482","f","baiski","true","","4"
"1047.2000000001863","","","","","3","html-slider-response","483","","","","4",""
"983","","","","","3","html-keyboard-response","484","","","","",""
"5696","key","miaka,chombo,goma,ahos","chombo","v","3","html-keyboard-response","485","f","miaka","false","","4"
"1158.8999999999069","","","","","3","html-slider-response","486","","","","2",""
"679","","","","","3","html-keyboard-response","487","","","","",""
"2504","sock","ndoora,kimysa,mamba,mtirka","mamba","j","3","html-keyboard-response","488","n","mtirka","false","","4"
"1679.2000000001863","","","","","3","html-slider-response","489","","","","1",""
"608","","","","","3","html-keyboard-response","490","","","","",""
"3728","marker","mapafu,salita,maji,atay","maji","j","3","html-keyboard-response","491","f","mapafu","false","","4"
"1175.1000000000931","","","","","3","html-slider-response","492","","","","1",""
"719","","","","","3","html-keyboard-response","493","","","","",""
"5838","office","leso,hazini,yatima,kuna","leso","f","3","html-keyboard-response","494","n","kuna","false","","4"
"1086.8999999999069","","","","","3","html-slider-response","495","","","","1",""
"607","","","","","3","html-keyboard-response","496","","","","",""
"3144","shoe","uyoga,nyeusi,hatua,kama","uyoga","f","3","html-keyboard-response","497","f","uyoga","true","","4"
"1215","","","","","3","html-slider-response","498","","","","2",""
"7703","","","","","3","html-keyboard-response","499","","","","",""
"4048","cop","bustani,mechezo,jikoni,bakus","mechezo","v","3","html-keyboard-response","500","n","bakus","false","","4"
"1006.7999999998137","","","","","3","html-slider-response","501","","","","1",""
"638","","","","","3","html-keyboard-response","502","","","","",""
"4991","bank","kudhibi,tualya,ofisi,silingan","silingan","n","3","html-keyboard-response","503","j","ofisi","false","","4"
"2086.899999999907","","","","","3","html-slider-response","504","","","","1",""
"1446","","","","","3","html-keyboard-response","505","","","","",""
"1903","letter","filimbi,kifua,chuma,uhuru","kifua","v","3","html-keyboard-response","506","v","kifua","true","","1"
"1159.1000000000931","","","","","3","html-slider-response","507","","","","5",""
"759","","","","","3","html-keyboard-response","508","","","","",""
"1895","dog","lubi,washia,kalamu,bahari","bahari","n","3","html-keyboard-response","509","n","bahari","true","","1"
"1847","","","","","3","html-slider-response","510","","","","5",""
"711","","","","","3","html-keyboard-response","511","","","","",""
"3544","shop","nopya,samaki,kerida,ndezu","samaki","v","3","html-keyboard-response","512","n","ndezu","false","","4"
"1998.8999999999069","","","","","3","html-slider-response","513","","","","1",""
"6278","","","","","3","html-keyboard-response","514","","","","",""
"2631","flower","tamasha,bega,lobo,usiku","bega","v","3","html-keyboard-response","515","v","bega","true","","4"
"1022.8999999999069","","","","","3","html-slider-response","516","","","","5",""
"992","","","","","3","html-keyboard-response","517","","","","",""
"1447","cigar","adhabu,ndugu,kuta,mlango","adhabu","f","3","html-keyboard-response","518","f","adhabu","true","","1"
"2743.1999999997206","","","","","3","html-slider-response","519","","","","5",""
"615","","","","","3","html-keyboard-response","520","","","","",""
"3887","hammer","mekno,kitovu,napakyas,layag","napakyas","j","3","html-keyboard-response","521","j","napakyas","true","","4"
"2671.1999999997206","","","","","3","html-slider-response","522","","","","2",""
"1039","","","","","3","html-keyboard-response","523","","","","",""
"2672","fork","mgonjwa,baboy,paghago,gorisi","mgonjwa","f","3","html-keyboard-response","524","v","baboy","false","","4"
"1158.7000000001863","","","","","3","html-slider-response","525","","","","2",""
"527","","","","","3","html-keyboard-response","526","","","","",""
"2015","sun","basi,bendi,luha,uongo","basi","f","3","html-keyboard-response","527","f","basi","true","","1"
"1623.2000000001863","","","","","3","html-slider-response","528","","","","5",""
"535","","","","","3","html-keyboard-response","529","","","","",""
"3767","ladder","mashua,pangalan,mwanga,kamba","pangalan","v","3","html-keyboard-response","530","n","kamba","false","","4"
"2374.9000000003725","","","","","3","html-slider-response","531","","","","1",""
"503","","","","","3","html-keyboard-response","532","","","","",""
"1607","banana","kasamok,hagdan,kazi,twai","kazi","j","3","html-keyboard-response","533","j","kazi","true","","1"
"1431.1000000000931","","","","","3","html-slider-response","534","","","","5",""
"487","","","","","3","html-keyboard-response","535","","","","",""
"3376","pudding","abug,mpishi,aibu,iring","aibu","j","3","html-keyboard-response","536","n","iring","false","","4"
"1262.9000000003725","","","","","3","html-slider-response","537","","","","2",""
"583","","","","","3","html-keyboard-response","538","","","","",""
"4359","body","nyundu,jibini,tindashan,kununa","tindashan","j","3","html-keyboard-response","539","j","tindashan","true","","4"
"1366.8999999999069","","","","","3","html-slider-response","540","","","","2",""
"1103","","","","","3","html-keyboard-response","541","","","","",""
"2640","bed","kalipay,haraka,mapintas,starehe","mapintas","j","3","html-keyboard-response","542","f","kalipay","false","","4"
"1087","","","","","3","html-slider-response","543","","","","2",""
"751","","","","","3","html-keyboard-response","544","","","","",""
"3120","tissue","lamigas,kisiwa,katika,ugomvi","ugomvi","n","3","html-keyboard-response","545","j","katika","false","","4"
"1295.1000000000931","","","","","3","html-slider-response","546","","","","1",""
"511","","","","","3","html-keyboard-response","547","","","","",""
"4856","candle","geza,gabi,farasi,kupanda","geza","f","3","html-keyboard-response","548","v","gabi","false","","4"
"1143","","","","","3","html-slider-response","549","","","","2",""
"823","","","","","3","html-keyboard-response","550","","","","",""
"2880","tomato","chupi,mvua,chupa,takatak","mvua","v","3","html-keyboard-response","551","v","mvua","true","","1"
"2382.899999999907","","","","","3","html-slider-response","552","","","","5",""
"647","","","","","3","html-keyboard-response","553","","","","",""
"2592","list","alizeti,wingu,kuzama,kaso","wingu","v","3","html-keyboard-response","554","n","kaso","false","","4"
"1230.8999999999069","","","","","3","html-slider-response","555","","","","2",""
"1095","","","","","3","html-keyboard-response","556","","","","",""
"3520","olive","bata,jiwe,siagi,welder","jiwe","v","3","html-keyboard-response","557","v","jiwe","true","","4"
"1702.7999999998137","","","","","3","html-slider-response","558","","","","5",""
"807","","","","","3","html-keyboard-response","559","","","","",""
"1487","picture","silya,kubwa,chaki,asin","kubwa","v","3","html-keyboard-response","560","v","kubwa","true","","1"
"1423.3000000002794","","","","","3","html-slider-response","561","","","","5",""
"703","","","","","3","html-keyboard-response","562","","","","",""
"4819","page","wimbo,wakala,ishiri,skina","wimbo","f","4","html-keyboard-response","888","f","wimbo","true","",""
"3142.7000000001863","","","","","4","html-slider-response","889","","","","5",""
"3727","sheet","bililhon,juuya,watu,kamantis","bililhon","f","4","html-keyboard-response","890","j","watu","false","",""
"1998.8999999999069","","","","","4","html-slider-response","891","","","","2",""
"2055","ladder","mashua,mwanga,pangalan,kamba","pangalan","j","4","html-keyboard-response","892","j","pangalan","true","",""
"751","","","","","4","html-slider-response","893","","","","4",""
"6079","door","tena,soko,surali,nyota","surali","j","4","html-keyboard-response","894","j","surali","true","",""
"2479","","","","","4","html-slider-response","895","","","","4",""
"2631","spider","bunyag,mkboa,atop,kamwe","kamwe","n","4","html-keyboard-response","896","n","kamwe","true","",""
"911","","","","","4","html-slider-response","897","","","","4",""
"6639","picture","silya,chaki,asin,kubwa","kubwa","n","4","html-keyboard-response","898","j","asin","false","",""
"1126.8999999999069","","","","","4","html-slider-response","899","","","","2",""
"3975","boat","hamsi,pombe,agalon,kitanda","agalon","j","4","html-keyboard-response","900","j","agalon","true","",""
"1134.9000000003725","","","","","4","html-slider-response","901","","","","4",""
"1911","donkey","bloke,elfu,lalake,rombus","elfu","v","4","html-keyboard-response","902","v","elfu","true","",""
"1558.5","","","","","4","html-slider-response","903","","","","5",""
"5895","book","kuhesa,picha,mali,mara","mali","j","4","html-keyboard-response","904","j","mali","true","",""
"758.8000000002794","","","","","4","html-slider-response","905","","","","4",""
"1895","cup","matumai,dagat,shimoni,jeraha","matumai","f","4","html-keyboard-response","906","f","matumai","true","",""
"766.8999999999069","","","","","4","html-slider-response","907","","","","5",""
"5519","sun","bendi,basi,luha,uongo","basi","v","4","html-keyboard-response","908","n","uongo","false","",""
"846.5","","","","","4","html-slider-response","909","","","","2",""
"3191","pudding","abug,mpishi,aibu,iring","aibu","j","4","html-keyboard-response","910","v","mpishi","false","",""
"1502.8999999999069","","","","","4","html-slider-response","911","","","","2",""
"2183","human","bado,tinapay,kikapu,punguza","tinapay","v","4","html-keyboard-response","912","v","tinapay","true","",""
"1366.8999999999069","","","","","4","html-slider-response","913","","","","5",""
"6455","squirrel","mahugaw,hofu,ukweli,kichwa","hofu","v","4","html-keyboard-response","914","v","hofu","true","",""
"1974.7999999998137","","","","","4","html-slider-response","915","","","","4",""
"2287","park","tambok,pwani,bunifu,ihalas","bunifu","j","4","html-keyboard-response","916","j","bunifu","true","",""
"1390.6000000000931","","","","","4","html-slider-response","917","","","","5",""
"5319","poster","nchi,madungog,fedha,kasuko","madungog","v","4","html-keyboard-response","918","v","madungog","true","",""
"1277.7999999998137","","","","","4","html-slider-response","919","","","","4",""
"2711","wolf","kaburi,lugha,ndizi,mchuzi","lugha","v","4","html-keyboard-response","920","v","lugha","true","",""
"1166.6999999997206","","","","","4","html-slider-response","921","","","","5",""
"2831","cat","neyemba,paghukom,baki,akili","paghukom","v","4","html-keyboard-response","922","v","paghukom","true","",""
"1414.6999999997206","","","","","4","html-slider-response","923","","","","5",""
"6031","fish","bala,buli,baho,imani","buli","v","4","html-keyboard-response","924","v","buli","true","",""
"967.2999999998137","","","","","4","html-slider-response","925","","","","5",""
"4174","tooth","kijiko,uadui,pahiyum,kabalaka","kabalaka","n","4","html-keyboard-response","926","j","pahiyum","false","",""
"1287","","","","","4","html-slider-response","927","","","","2",""
"6927","cave","ganti,kesho,maisha,nyundo","kesho","v","4","html-keyboard-response","928","v","kesho","true","",""
"926.8999999999069","","","","","4","html-slider-response","929","","","","4",""
"7759","lamp","daub,bilaska,afya,mbolea","afya","j","4","html-keyboard-response","930","n","mbolea","false","",""
"854.6999999997206","","","","","4","html-slider-response","931","","","","2",""
"2047","banana","kasamok,hagdan,twai,kazi","kazi","n","4","html-keyboard-response","932","n","kazi","true","",""
"974.1999999997206","","","","","4","html-slider-response","933","","","","5",""
"1775","bonfire","goti,mwezi,mfuko,kusanya","goti","f","4","html-keyboard-response","934","f","goti","true","",""
"1559.2000000001863","","","","","4","html-slider-response","935","","","","5",""
"11031","cop","bustani,mechezo,jikoni,bakus","mechezo","v","4","html-keyboard-response","936","f","bustani","false","",""
"798.8000000002794","","","","","4","html-slider-response","937","","","","2",""
"2511","marker","mapafu,maji,salita,atay","maji","v","4","html-keyboard-response","938","v","maji","true","",""
"807","","","","","4","html-slider-response","939","","","","4",""
"8303","window","nanga,kujenga,umaga,kweli","kweli","n","4","html-keyboard-response","940","n","kweli","true","",""
"1718.8999999999069","","","","","4","html-slider-response","941","","","","5",""
"1815","body","nyundu,jibini,tindashan,kununa","tindashan","j","4","html-keyboard-response","942","j","tindashan","true","",""
"1367","","","","","4","html-slider-response","943","","","","5",""
"10383","apple","ukame,kisu,estante,edad","kisu","v","4","html-keyboard-response","944","v","kisu","true","",""
"2934.7999999998137","","","","","4","html-slider-response","945","","","","4",""
"14238","salmon","mzungu,seri,baharia,sensilyo","sensilyo","n","4","html-keyboard-response","946","n","sensilyo","true","",""
"1494","","","","","4","html-slider-response","947","","","","2",""
"2703","bed","mapintas,kalipay,haraka,starehe","mapintas","f","4","html-keyboard-response","948","f","mapintas","true","",""
"1015","","","","","4","html-slider-response","949","","","","4",""
"2039","berry","abogado,nogozi,kinywa,kofia","kofia","n","4","html-keyboard-response","950","n","kofia","true","",""
"1511","","","","","4","html-slider-response","951","","","","5",""
"14135","mirror","rangi,sulagma,kanding,furaha","sulagma","v","4","html-keyboard-response","952","n","furaha","false","",""
"1326.3999999999069","","","","","4","html-slider-response","953","","","","1",""
"3463","flag","ndege,trekta,mkate,kawa","trekta","v","4","html-keyboard-response","954","n","kawa","false","",""
"1062.7999999998137","","","","","4","html-slider-response","955","","","","1",""
"10495","shoulder","mkuu,kelele,ndaniya,guruwe","mkuu","f","4","html-keyboard-response","956","v","kelele","false","",""
"726.6999999997206","","","","","4","html-slider-response","957","","","","2",""
"2407","tissue","lamigas,ugomvi,kisiwa,katika","ugomvi","v","4","html-keyboard-response","958","n","katika","false","",""
"878.7999999998137","","","","","4","html-slider-response","959","","","","2",""
"5823","notebook","kemia,msitu,kila,mdudu","kemia","f","4","html-keyboard-response","960","f","kemia","true","",""
"1190.8999999999069","","","","","4","html-slider-response","961","","","","4",""
"1919","snake","jansa,karon,pagtukod,mvringo","pagtukod","j","4","html-keyboard-response","962","j","pagtukod","true","",""
"974.8000000002794","","","","","4","html-slider-response","963","","","","5",""
"2455","finger","moyo,simu,sufuria,lima","moyo","f","4","html-keyboard-response","964","f","moyo","true","",""
"990.7000000001863","","","","","4","html-slider-response","965","","","","5",""
"9799","basket","kumba,kumbuka,utepe,hasira","kumba","f","4","html-keyboard-response","966","f","kumba","true","",""
"1078.6000000000931","","","","","4","html-slider-response","967","","","","4",""
"2599","curtain","lisud,bulwawan,mchanga,chubani","mchanga","j","4","html-keyboard-response","968","j","mchanga","true","",""
"1078.7000000001863","","","","","4","html-slider-response","969","","","","4",""
"4951","perfume","bino,sungura,katuyoan,ndogo","katuyoan","j","4","html-keyboard-response","970","j","katuyoan","true","",""
"734.8000000002794","","","","","4","html-slider-response","971","","","","5",""
"1951","key","miaka,goma,ahos,chombo","chombo","n","4","html-keyboard-response","972","n","chombo","true","",""
"1662.8000000002794","","","","","4","html-slider-response","973","","","","5",""
"1927","olive","bata,siagi,welder,jiwe","jiwe","n","4","html-keyboard-response","974","n","jiwe","true","",""
"2086.600000000093","","","","","4","html-slider-response","975","","","","5",""
"3911","rose","paghalad,singizi,mwanake,amani","paghalad","f","4","html-keyboard-response","976","f","paghalad","true","",""
"734.7000000001863","","","","","4","html-slider-response","977","","","","4",""
"11823","bridge","daima,sahani,ngono,panya","sahani","v","4","html-keyboard-response","978","v","sahani","true","",""
"1022.7000000001863","","","","","4","html-slider-response","979","","","","4",""
"6087","hill","kushoto,kukimba,matumbo,sweta","matumbo","j","4","html-keyboard-response","980","j","matumbo","true","",""
"1702.8999999999069","","","","","4","html-slider-response","981","","","","2",""
"4567","letter","filimbi,kifua,chuma,uhuru","kifua","v","4","html-keyboard-response","982","n","uhuru","false","",""
"1286.8999999999069","","","","","4","html-slider-response","983","","","","2",""
"3439","sock","ndoora,kimysa,mtirka,mamba","mamba","n","4","html-keyboard-response","984","n","mamba","true","",""
"1943","","","","","4","html-slider-response","985","","","","2",""
"10687","fork","baboy,paghago,gorisi,mgonjwa","mgonjwa","n","4","html-keyboard-response","986","f","baboy","false","",""
"991","","","","","4","html-slider-response","987","","","","2",""
"5671","box","kuacha,rafiki,kitande,adui","adui","n","4","html-keyboard-response","988","j","kitande","false","",""
"895.0999999996275","","","","","4","html-slider-response","989","","","","4",""
"16671","gift","baba,nyange,pagtawag,baso","pagtawag","j","4","html-keyboard-response","990","j","pagtawag","true","",""
"1726.8999999999069","","","","","4","html-slider-response","991","","","","4",""
"7511","bucket","baga,kiatu,ijayo,init","kiatu","v","4","html-keyboard-response","992","v","kiatu","true","",""
"1303.3000000002794","","","","","4","html-slider-response","993","","","","4",""
"2903","shop","nopya,kerida,samaki,ndezu","samaki","j","4","html-keyboard-response","994","j","samaki","true","",""
"935","","","","","4","html-slider-response","995","","","","4",""
"2831","puppet","napulo,lamok,mazishi,godoro","mazishi","j","4","html-keyboard-response","996","v","lamok","false","",""
"1326.8999999999069","","","","","4","html-slider-response","997","","","","2",""
"3079","nose","gubat,kopa,sehemu,kidole","sehemu","j","4","html-keyboard-response","998","j","sehemu","true","",""
"822.5","","","","","4","html-slider-response","999","","","","2",""
"2431","music","mraba,mageho,baiski,tumbo","baiski","j","4","html-keyboard-response","1000","j","baiski","true","",""
"1047.1999999997206","","","","","4","html-slider-response","1001","","","","5",""
"12623","dog","lubi,washia,kalamu,bahari","bahari","n","4","html-keyboard-response","1002","j","kalamu","false","",""
"1438.5","","","","","4","html-slider-response","1003","","","","5",""
"9823","eel","ishara,msumari,kunywa,kabuang","msumari","v","4","html-keyboard-response","1004","f","ishara","false","",""
"1694.8999999999069","","","","","4","html-slider-response","1005","","","","4",""
"1751","number","shule,mundamo,kengele,choori","mundamo","v","4","html-keyboard-response","1006","v","mundamo","true","",""
"1366.8999999999069","","","","","4","html-slider-response","1007","","","","5",""
"1487","tomato","mvua,chupi,chupa,takatak","mvua","f","4","html-keyboard-response","1008","f","mvua","true","",""
"1398.3999999999069","","","","","4","html-slider-response","1009","","","","5",""
"12167","coffin","kioo,barua,tubag,hulma","kioo","f","4","html-keyboard-response","1010","f","kioo","true","",""
"1390.5","","","","","4","html-slider-response","1011","","","","1",""
"12295","knee","mvuke,kubale,bili,duka","duka","n","4","html-keyboard-response","1012","n","duka","true","",""
"1366.5999999996275","","","","","4","html-slider-response","1013","","","","2",""
"3615","woman","bandari,bituin,pagtabon,kovuli","pagtabon","j","4","html-keyboard-response","1014","j","pagtabon","true","",""
"1126.6999999997206","","","","","4","html-slider-response","1015","","","","5",""
"4118","stone","ulimwengu,mkasi,wingi,asili","wingi","j","4","html-keyboard-response","1016","j","wingi","true","",""
"1254.1999999997206","","","","","4","html-slider-response","1017","","","","4",""
"3782","bread","kaili,dizeli,dari,bugas","dari","j","4","html-keyboard-response","1018","j","dari","true","",""
"1062.7999999998137","","","","","4","html-slider-response","1019","","","","5",""
"16823","triangle","kihozi,bentaha,kasadpan,liog","kasadpan","j","4","html-keyboard-response","1020","j","kasadpan","true","",""
"1918.7999999998137","","","","","4","html-slider-response","1021","","","","4",""
"10159","scissors","tanuri,duga,mtawa,suga","tanuri","f","4","html-keyboard-response","1022","j","mtawa","false","",""
"2294.7000000001863","","","","","4","html-slider-response","1023","","","","1",""
"1991","giraffe","daraja,mahitabo,jumatu,hangyo","mahitabo","v","4","html-keyboard-response","1024","v","mahitabo","true","",""
"1638.5","","","","","4","html-slider-response","1025","","","","5",""
"2071","flower","bega,tamasha,lobo,usiku","bega","f","4","html-keyboard-response","1026","f","bega","true","",""
"1127.1000000000931","","","","","4","html-slider-response","1027","","","","5",""
"5968","candle","gabi,farasi,geza,kupanda","geza","j","4","html-keyboard-response","1028","j","geza","true","",""
"854.8999999999069","","","","","4","html-slider-response","1029","","","","4",""
"2312","mother","babaye,kahawa,mbuzi,jokofu","babaye","f","4","html-keyboard-response","1030","f","babaye","true","",""
"1342.8999999999069","","","","","4","html-slider-response","1031","","","","5",""
"2519","towel","tembo,funzi,pito,pagpalit","pagpalit","n","4","html-keyboard-response","1032","n","pagpalit","true","",""
"1743.2000000001863","","","","","4","html-slider-response","1033","","","","4",""
"7456","elephant","petye,kito,pagduol,suka","kito","v","4","html-keyboard-response","1034","v","kito","true","",""
"1246.7999999998137","","","","","4","html-slider-response","1035","","","","4",""
"8415","shelf","bungtod,pamahaw,kadaot,awit","pamahaw","v","4","html-keyboard-response","1036","v","pamahaw","true","",""
"870.8999999999069","","","","","4","html-slider-response","1037","","","","4",""
"1535","mosquito","martilyo,isda,taras,gutom","martilyo","f","4","html-keyboard-response","1038","f","martilyo","true","",""
"967.1000000000931","","","","","4","html-slider-response","1039","","","","5",""
"15399","column","pundok,dila,ufagio,pala","ufagio","j","4","html-keyboard-response","1040","j","ufagio","true","",""
"1614.7999999998137","","","","","4","html-slider-response","1041","","","","2",""
"3279","pants","pintal,chuki,haki,hari","haki","j","4","html-keyboard-response","1042","n","hari","false","",""
"1766.7999999998137","","","","","4","html-slider-response","1043","","","","4",""
"12775","list","alizeti,kuzama,wingu,kaso","wingu","j","4","html-keyboard-response","1044","j","wingu","true","",""
"1846.7999999998137","","","","","4","html-slider-response","1045","","","","2",""
"6887","bank","silingan,kudhibi,tualya,ofisi","silingan","f","4","html-keyboard-response","1046","f","silingan","true","",""
"1558.8999999999069","","","","","4","html-slider-response","1047","","","","2",""
"14151","clock","kartasi,abang,osha,mbwa","mbwa","n","4","html-keyboard-response","1048","n","mbwa","true","",""
"766.6999999997206","","","","","4","html-slider-response","1049","","","","4",""
"8287","ceiling","kugita,maua,kawaida,rayna","maua","v","4","html-keyboard-response","1050","v","maua","true","",""
"2222.9000000003725","","","","","4","html-slider-response","1051","","","","4",""
"19167","train","itik,dakika,sayari,mungu","sayari","j","4","html-keyboard-response","1052","n","mungu","false","",""
"934.5","","","","","4","html-slider-response","1053","","","","2",""
"12608","magazine","gundi,kiti,mchawi,bahandi","kiti","v","4","html-keyboard-response","1054","j","mchawi","false","",""
"2822.7000000001863","","","","","4","html-slider-response","1055","","","","2",""
"3334","office","hazini,leso,yatima,kuna","leso","v","4","html-keyboard-response","1056","v","leso","true","",""
"1134.8999999999069","","","","","4","html-slider-response","1057","","","","2",""
"7087","wheel","punda,bafuni,tawo,baadaye","bafuni","v","4","html-keyboard-response","1058","v","bafuni","true","",""
"2350.600000000093","","","","","4","html-slider-response","1059","","","","2",""
"18199","spoon","betri,pagsulod,nzuri,ngazi","pagsulod","v","4","html-keyboard-response","1060","v","pagsulod","true","",""
"2110.5","","","","","4","html-slider-response","1061","","","","2",""
"2631","hammer","mekno,kitovu,layag,napakyas","napakyas","n","4","html-keyboard-response","1062","n","napakyas","true","",""
"1022.5999999996275","","","","","4","html-slider-response","1063","","","","1",""
"4775","cigar","ndugu,adhabu,kuta,mlango","adhabu","v","4","html-keyboard-response","1064","n","mlango","false","",""
"1590.7999999998137","","","","","4","html-slider-response","1065","","","","1",""
"27727","shoe","nyeusi,hatua,kama,uyoga","uyoga","n","4","html-keyboard-response","1066","n","uyoga","true","",""
"1310.7000000001863","","","","","4","html-slider-response","1067","","","","1",""
"5188","list","wingu,alizeti,kuzama,kaso","wingu","f","5","html-keyboard-response","1069","f","wingu","true","",""
"1070.7000000001863","","","","","5","html-slider-response","1070","","","","2",""
"1383","number","mundamo,shule,kengele,choori","mundamo","f","5","html-keyboard-response","1071","f","mundamo","true","",""
"998.7999999998137","","","","","5","html-slider-response","1072","","","","5",""
"1959","apple","ukame,estante,edad,kisu","kisu","n","5","html-keyboard-response","1073","n","kisu","true","",""
"782.8999999994412","","","","","5","html-slider-response","1074","","","","2",""
"2335","knee","duka,mvuke,kubale,bili","duka","f","5","html-keyboard-response","1075","f","duka","true","",""
"886.7999999998137","","","","","5","html-slider-response","1076","","","","2",""
"2695","tooth","kijiko,uadui,kabalaka,pahiyum","kabalaka","j","5","html-keyboard-response","1077","j","kabalaka","true","",""
"870.8999999994412","","","","","5","html-slider-response","1078","","","","2",""
"2415","berry","abogado,nogozi,kinywa,kofia","kofia","n","5","html-keyboard-response","1079","n","kofia","true","",""
"1695","","","","","5","html-slider-response","1080","","","","5",""
"4063","bridge","daima,sahani,ngono,panya","sahani","v","5","html-keyboard-response","1081","f","daima","false","",""
"767.0999999996275","","","","","5","html-slider-response","1082","","","","2",""
"2864","perfume","katuyoan,bino,sungura,ndogo","katuyoan","f","5","html-keyboard-response","1083","f","katuyoan","true","",""
"1935","","","","","5","html-slider-response","1084","","","","4",""
"10064","ladder","pangalan,mashua,mwanga,kamba","pangalan","f","5","html-keyboard-response","1085","f","pangalan","true","",""
"1374.9000000003725","","","","","5","html-slider-response","1086","","","","2",""
"2416","pants","pintal,haki,chuki,hari","haki","v","5","html-keyboard-response","1087","n","hari","false","",""
"903.1000000005588","","","","","5","html-slider-response","1088","","","","5",""
"5704","salmon","mzungu,seri,sensilyo,baharia","sensilyo","j","5","html-keyboard-response","1089","j","sensilyo","true","",""
"1103","","","","","5","html-slider-response","1090","","","","4",""
"2624","coffin","barua,tubag,hulma,kioo","kioo","n","5","html-keyboard-response","1091","n","kioo","true","",""
"1751","","","","","5","html-slider-response","1092","","","","1",""
"2495","park","bunifu,tambok,pwani,ihalas","bunifu","f","5","html-keyboard-response","1093","f","bunifu","true","",""
"886.9000000003725","","","","","5","html-slider-response","1094","","","","5",""
"1671","giraffe","daraja,jumatu,hangyo,mahitabo","mahitabo","n","5","html-keyboard-response","1095","n","mahitabo","true","",""
"2758.899999999441","","","","","5","html-slider-response","1096","","","","5",""
"2559","mirror","sulagma,rangi,kanding,furaha","sulagma","f","5","html-keyboard-response","1097","n","furaha","false","",""
"1166.7999999998137","","","","","5","html-slider-response","1098","","","","2",""
"3111","ceiling","kugita,kawaida,rayna,maua","maua","n","5","html-keyboard-response","1099","n","maua","true","",""
"1686.8999999994412","","","","","5","html-slider-response","1100","","","","4",""
"8967","marker","mapafu,salita,maji,atay","maji","j","5","html-keyboard-response","1101","j","maji","true","",""
"1022.7000000001863","","","","","5","html-slider-response","1102","","","","2",""
"3543","sock","ndoora,mamba,kimysa,mtirka","mamba","v","5","html-keyboard-response","1103","v","mamba","true","",""
"1030.7000000001863","","","","","5","html-slider-response","1104","","","","2",""
"2103","cop","bustani,jikoni,bakus,mechezo","mechezo","n","5","html-keyboard-response","1105","j","bakus","false","",""
"1374.5","","","","","5","html-slider-response","1106","","","","2",""
"4191","gift","pagtawag,baba,nyange,baso","pagtawag","f","5","html-keyboard-response","1107","f","pagtawag","true","",""
"1174.2999999998137","","","","","5","html-slider-response","1108","","","","4",""
"3143","notebook","msitu,kila,kemia,mdudu","kemia","j","5","html-keyboard-response","1109","n","mdudu","false","",""
"1703","","","","","5","html-slider-response","1110","","","","2",""
"36150","bank","kudhibi,tualya,ofisi,silingan","silingan","n","5","html-keyboard-response","1111","j","ofisi","false","",""
"2958.300000000745","","","","","5","html-slider-response","1112","","","","2",""
"3583","letter","kifua,filimbi,chuma,uhuru","kifua","f","5","html-keyboard-response","1113","j","chuma","false","",""
"3230.7999999998137","","","","","5","html-slider-response","1114","","","","2",""
"12366","candle","geza,gabi,farasi,kupanda","geza","f","5","html-keyboard-response","1115","f","geza","true","",""
"1206.7000000001863","","","","","5","html-slider-response","1116","","","","2",""
"1647","bread","kaili,dizeli,dari,bugas","dari","j","5","html-keyboard-response","1117","j","dari","true","",""
"814.8000000007451","","","","","5","html-slider-response","1118","","","","5",""
"4087","snake","jansa,pagtukod,karon,mvringo","pagtukod","v","5","html-keyboard-response","1119","v","pagtukod","true","",""
"638.7000000001863","","","","","5","html-slider-response","1120","","","","4",""
"5535","rose","singizi,paghalad,mwanake,amani","paghalad","v","5","html-keyboard-response","1121","v","paghalad","true","",""
"982.5999999996275","","","","","5","html-slider-response","1122","","","","4",""
"1703","hill","matumbo,kushoto,kukimba,sweta","matumbo","f","5","html-keyboard-response","1123","f","matumbo","true","",""
"1270.800000000745","","","","","5","html-slider-response","1124","","","","4",""
"2294","train","sayari,itik,dakika,mungu","sayari","f","5","html-keyboard-response","1125","j","dakika","false","",""
"1054.5999999996275","","","","","5","html-slider-response","1126","","","","2",""
"2847","shop","nopya,kerida,ndezu,samaki","samaki","n","5","html-keyboard-response","1127","n","samaki","true","",""
"1798.3999999994412","","","","","5","html-slider-response","1128","","","","4",""
"3654","nose","gubat,kopa,sehemu,kidole","sehemu","j","5","html-keyboard-response","1129","j","sehemu","true","",""
"1294.7000000001863","","","","","5","html-slider-response","1130","","","","4",""
"2287","boat","hamsi,agalon,pombe,kitanda","agalon","v","5","html-keyboard-response","1131","v","agalon","true","",""
"1863.4000000003725","","","","","5","html-slider-response","1132","","","","4",""
"1567","body","nyundu,jibini,tindashan,kununa","tindashan","j","5","html-keyboard-response","1133","j","tindashan","true","",""
"1007.0999999996275","","","","","5","html-slider-response","1134","","","","5",""
"1839","bed","kalipay,haraka,mapintas,starehe","mapintas","j","5","html-keyboard-response","1135","j","mapintas","true","",""
"1175.2000000001863","","","","","5","html-slider-response","1136","","","","4",""
"3415","squirrel","mahugaw,ukweli,kichwa,hofu","hofu","n","5","html-keyboard-response","1137","n","hofu","true","",""
"3223.100000000559","","","","","5","html-slider-response","1138","","","","5",""
"3159","window","nanga,kweli,kujenga,umaga","kweli","v","5","html-keyboard-response","1139","v","kweli","true","",""
"1182.9000000003725","","","","","5","html-slider-response","1140","","","","5",""
"2671","bonfire","goti,mwezi,mfuko,kusanya","goti","f","5","html-keyboard-response","1141","f","goti","true","",""
"1063.1000000005588","","","","","5","html-slider-response","1142","","","","5",""
"4215","fish","buli,bala,baho,imani","buli","f","5","html-keyboard-response","1143","f","buli","true","",""
"814.8999999994412","","","","","5","html-slider-response","1144","","","","4",""
"3879","cat","neyemba,baki,paghukom,akili","paghukom","j","5","html-keyboard-response","1145","j","paghukom","true","",""
"1078.9000000003725","","","","","5","html-slider-response","1146","","","","4",""
"2391","spider","bunyag,mkboa,kamwe,atop","kamwe","j","5","html-keyboard-response","1147","j","kamwe","true","",""
"1182.3999999994412","","","","","5","html-slider-response","1148","","","","5",""
"6863","eel","ishara,msumari,kunywa,kabuang","msumari","v","5","html-keyboard-response","1149","f","ishara","false","",""
"1126.8999999994412","","","","","5","html-slider-response","1150","","","","2",""
"2599","woman","bandari,bituin,kovuli,pagtabon","pagtabon","n","5","html-keyboard-response","1151","n","pagtabon","true","",""
"983","","","","","5","html-slider-response","1152","","","","5",""
"4223","magazine","gundi,kiti,mchawi,bahandi","kiti","v","5","html-keyboard-response","1153","v","kiti","true","",""
"1038.7999999998137","","","","","5","html-slider-response","1154","","","","2",""
"6727","pudding","aibu,abug,mpishi,iring","aibu","f","5","html-keyboard-response","1155","f","aibu","true","",""
"1070.5","","","","","5","html-slider-response","1156","","","","2",""
"4095","lamp","daub,bilaska,mbolea,afya","afya","n","5","html-keyboard-response","1157","j","mbolea","false","",""
"934.7999999998137","","","","","5","html-slider-response","1158","","","","2",""
"4007","cave","ganti,maisha,nyundo,kesho","kesho","n","5","html-keyboard-response","1159","n","kesho","true","",""
"1262.7000000001863","","","","","5","html-slider-response","1160","","","","4",""
"3807","shoulder","mkuu,kelele,ndaniya,guruwe","mkuu","f","5","html-keyboard-response","1161","n","guruwe","false","",""
"2006.6000000005588","","","","","5","html-slider-response","1162","","","","2",""
"3751","stone","ulimwengu,mkasi,asili,wingi","wingi","n","5","html-keyboard-response","1163","n","wingi","true","",""
"1862.800000000745","","","","","5","html-slider-response","1164","","","","4",""
"3935","column","pundok,dila,ufagio,pala","ufagio","j","5","html-keyboard-response","1165","j","ufagio","true","",""
"862.7999999998137","","","","","5","html-slider-response","1166","","","","4",""
"3895","page","wakala,wimbo,ishiri,skina","wimbo","v","5","html-keyboard-response","1167","v","wimbo","true","",""
"1142.800000000745","","","","","5","html-slider-response","1168","","","","4",""
"11687","shoe","nyeusi,uyoga,hatua,kama","uyoga","v","5","html-keyboard-response","1169","j","hatua","false","",""
"1358.5999999996275","","","","","5","html-slider-response","1170","","","","2",""
"2479","clock","kartasi,abang,osha,mbwa","mbwa","n","5","html-keyboard-response","1171","n","mbwa","true","",""
"4374.700000000186","","","","","5","html-slider-response","1172","","","","4",""
"57055","towel","tembo,pagpalit,funzi,pito","pagpalit","v","5","html-keyboard-response","1173","n","pito","false","",""
"1278.5","","","","","5","html-slider-response","1174","","","","2",""
"3583","tomato","chupi,chupa,mvua,takatak","mvua","j","5","html-keyboard-response","1175","j","mvua","true","",""
"1358.7000000001863","","","","","5","html-slider-response","1176","","","","4",""
"4687","bucket","baga,kiatu,ijayo,init","kiatu","v","5","html-keyboard-response","1177","v","kiatu","true","",""
"1247","","","","","5","html-slider-response","1178","","","","2",""
"2216","finger","moyo,simu,sufuria,lima","moyo","f","5","html-keyboard-response","1179","f","moyo","true","",""
"1647.1000000005588","","","","","5","html-slider-response","1180","","","","5",""
"2255","mother","kahawa,babaye,mbuzi,jokofu","babaye","v","5","html-keyboard-response","1181","v","babaye","true","",""
"959","","","","","5","html-slider-response","1182","","","","5",""
"1735","human","tinapay,bado,kikapu,punguza","tinapay","f","5","html-keyboard-response","1183","f","tinapay","true","",""
"1071","","","","","5","html-slider-response","1184","","","","5",""
"2375","sun","bendi,luha,basi,uongo","basi","j","5","html-keyboard-response","1185","j","basi","true","",""
"1494.800000000745","","","","","5","html-slider-response","1186","","","","2",""
"5984","fork","mgonjwa,baboy,paghago,gorisi","mgonjwa","f","5","html-keyboard-response","1187","f","mgonjwa","true","",""
"982.7999999998137","","","","","5","html-slider-response","1188","","","","2",""
"1632","donkey","bloke,lalake,rombus,elfu","elfu","n","5","html-keyboard-response","1189","n","elfu","true","",""
"959","","","","","5","html-slider-response","1190","","","","5",""
"2079","wolf","kaburi,lugha,ndizi,mchuzi","lugha","v","5","html-keyboard-response","1191","v","lugha","true","",""
"1839","","","","","5","html-slider-response","1192","","","","5",""
"3055","cigar","adhabu,ndugu,kuta,mlango","adhabu","f","5","html-keyboard-response","1193","v","ndugu","false","",""
"1478.8999999994412","","","","","5","html-slider-response","1194","","","","2",""
"2263","olive","bata,jiwe,siagi,welder","jiwe","v","5","html-keyboard-response","1195","v","jiwe","true","",""
"694.8999999994412","","","","","5","html-slider-response","1196","","","","5",""
"1567","key","chombo,miaka,goma,ahos","chombo","f","5","html-keyboard-response","1197","f","chombo","true","",""
"751.0999999996275","","","","","5","html-slider-response","1198","","","","5",""
"6087","door","surali,tena,soko,nyota","surali","f","5","html-keyboard-response","1199","f","surali","true","",""
"974.7999999998137","","","","","5","html-slider-response","1200","","","","5",""
"5367","wheel","punda,tawo,bafuni,baadaye","bafuni","j","5","html-keyboard-response","1201","v","tawo","false","",""
"839","","","","","5","html-slider-response","1202","","","","2",""
"2799","basket","kumbuka,utepe,hasira,kumba","kumba","n","5","html-keyboard-response","1203","n","kumba","true","",""
"1199","","","","","5","html-slider-response","1204","","","","4",""
"1767","elephant","petye,kito,pagduol,suka","kito","v","5","html-keyboard-response","1205","v","kito","true","",""
"1295","","","","","5","html-slider-response","1206","","","","4",""
"4231","office","leso,hazini,yatima,kuna","leso","f","5","html-keyboard-response","1207","f","leso","true","",""
"1614.7999999998137","","","","","5","html-slider-response","1208","","","","2",""
"2806","music","mraba,mageho,baiski,tumbo","baiski","j","5","html-keyboard-response","1209","j","baiski","true","",""
"1446.7999999998137","","","","","5","html-slider-response","1210","","","","5",""
"3599","tissue","lamigas,kisiwa,ugomvi,katika","ugomvi","j","5","html-keyboard-response","1211","n","katika","false","",""
"719.2999999998137","","","","","5","html-slider-response","1212","","","","2",""
"12102","curtain","lisud,bulwawan,mchanga,chubani","mchanga","j","5","html-keyboard-response","1213","j","mchanga","true","",""
"2174.699999999255","","","","","5","html-slider-response","1214","","","","2",""
"3719","flag","trekta,ndege,mkate,kawa","trekta","f","5","html-keyboard-response","1215","j","mkate","false","",""
"822.9000000003725","","","","","5","html-slider-response","1216","","","","2",""
"13278","dog","bahari,lubi,washia,kalamu","bahari","f","5","html-keyboard-response","1217","n","kalamu","false","",""
"942.7000000001863","","","","","5","html-slider-response","1218","","","","4",""
"3663","cup","matumai,dagat,shimoni,jeraha","matumai","f","5","html-keyboard-response","1219","f","matumai","true","",""
"2286.7000000001863","","","","","5","html-slider-response","1220","","","","5",""
"4175","sheet","juuya,watu,kamantis,bililhon","bililhon","n","5","html-keyboard-response","1221","v","watu","false","",""
"2942.800000000745","","","","","5","html-slider-response","1222","","","","1",""
"2447","spoon","betri,nzuri,pagsulod,ngazi","pagsulod","j","5","html-keyboard-response","1223","j","pagsulod","true","",""
"1414.7000000001863","","","","","5","html-slider-response","1224","","","","2",""
"1646","flower","bega,tamasha,lobo,usiku","bega","f","5","html-keyboard-response","1225","f","bega","true","",""
"1350.5999999996275","","","","","5","html-slider-response","1226","","","","5",""
"3079","picture","kubwa,silya,chaki,asin","kubwa","f","5","html-keyboard-response","1227","f","kubwa","true","",""
"1046.7999999998137","","","","","5","html-slider-response","1228","","","","2",""
"3919","puppet","napulo,mazishi,lamok,godoro","mazishi","v","5","html-keyboard-response","1229","j","lamok","false","",""
"1318.7999999998137","","","","","5","html-slider-response","1230","","","","1",""
"2015","banana","kasamok,kazi,hagdan,twai","kazi","v","5","html-keyboard-response","1231","v","kazi","true","",""
"991.0999999996275","","","","","5","html-slider-response","1232","","","","4",""
"2463","book","mali,kuhesa,picha,mara","mali","f","5","html-keyboard-response","1233","f","mali","true","",""
"2439.2000000001863","","","","","5","html-slider-response","1234","","","","4",""
"2190","triangle","kasadpan,kihozi,bentaha,liog","kasadpan","f","5","html-keyboard-response","1235","f","kasadpan","true","",""
"1247.0999999996275","","","","","5","html-slider-response","1236","","","","4",""
"3463","poster","nchi,fedha,madungog,kasuko","madungog","j","5","html-keyboard-response","1237","j","madungog","true","",""
"1831","","","","","5","html-slider-response","1238","","","","1",""
"3679","box","kuacha,rafiki,adui,kitande","adui","j","5","html-keyboard-response","1239","n","kitande","false","",""
"1351","","","","","5","html-slider-response","1240","","","","4",""
"1639","mosquito","isda,taras,martilyo,gutom","martilyo","j","5","html-keyboard-response","1241","j","martilyo","true","",""
"1655.1000000005588","","","","","5","html-slider-response","1242","","","","5",""
"3791","shelf","pamahaw,bungtod,kadaot,awit","pamahaw","f","5","html-keyboard-response","1243","n","awit","false","",""
"1254.4000000003725","","","","","5","html-slider-response","1244","","","","2",""
"2103","scissors","duga,mtawa,tanuri,suga","tanuri","j","5","html-keyboard-response","1245","j","tanuri","true","",""
"855.0999999996275","","","","","5","html-slider-response","1246","","","","2",""
"4111","hammer","mekno,napakyas,kitovu,layag","napakyas","v","5","html-keyboard-response","1247","j","kitovu","false","",""
"2198.5999999996275","","","","","5","html-slider-response","1248","","","","1",""
