"rt","en_word","options","swa_word","correct_answer","phase","trial_type","trial_index","input_answer","input_word","accuracy","certainty","amt_choices"
"6741","bonfire","mwezi,mfuko,goti,kusanya","goti","j","2","html-keyboard-response","106","j","goti","true","",""
"5646.5","","","","","2","html-slider-response","107","","","","4",""
"55604","flower","tamasha,lobo,bega,usiku","bega","j","2","html-keyboard-response","108","v","lobo","false","",""
"2483.699999988079","","","","","2","html-slider-response","109","","","","2",""
"12224","column","ufagio,pundok,dila,pala","ufagio","f","2","html-keyboard-response","110","f","ufagio","true","",""
"2508.7999999970198","","","","","2","html-slider-response","111","","","","5",""
"32997","music","mraba,baiski,mageho,tumbo","baiski","v","2","html-keyboard-response","112","v","baiski","true","",""
"2151.0999999940395","","","","","2","html-slider-response","113","","","","4",""
"20302","spider","kamwe,bunyag,mkboa,atop","kamwe","f","2","html-keyboard-response","114","f","kamwe","true","",""
"3322.2999999970198","","","","","2","html-slider-response","115","","","","4",""
"24723","fork","mgonjwa,baboy,paghago,gorisi","mgonjwa","f","2","html-keyboard-response","116","f","mgonjwa","true","",""
"8352.20000000298","","","","","2","html-slider-response","117","","","","2",""
"2083","mosquito","isda,taras,martilyo,gutom","martilyo","j","2","html-keyboard-response","118","j","martilyo","true","",""
"4349.399999991059","","","","","2","html-slider-response","119","","","","2",""
"3192","banana","kasamok,hagdan,kazi,twai","kazi","j","2","html-keyboard-response","120","v","hagdan","false","",""
"1812.0999999940395","","","","","2","html-slider-response","121","","","","2",""
"16124","cup","matumai,dagat,shimoni,jeraha","matumai","f","2","html-keyboard-response","122","f","matumai","true","",""
"2063","","","","","2","html-slider-response","123","","","","4",""
"15614","shop","nopya,kerida,samaki,ndezu","samaki","j","2","html-keyboard-response","124","j","samaki","true","",""
"2245.8999999910593","","","","","2","html-slider-response","125","","","","5",""
"13266","elephant","petye,pagduol,suka,kito","kito","n","2","html-keyboard-response","126","n","kito","true","",""
"4058.0999999940395","","","","","2","html-slider-response","127","","","","5",""
"14365","bucket","baga,kiatu,ijayo,init","kiatu","v","2","html-keyboard-response","128","v","kiatu","true","",""
"2814.2999999970198","","","","","2","html-slider-response","129","","","","4",""
"15860","book","kuhesa,picha,mali,mara","mali","j","2","html-keyboard-response","130","v","picha","false","",""
"2147","","","","","2","html-slider-response","131","","","","4",""
"22158","mirror","rangi,sulagma,kanding,furaha","sulagma","v","2","html-keyboard-response","132","j","kanding","false","",""
"2101.0999999940395","","","","","2","html-slider-response","133","","","","2",""
"2557","office","hazini,yatima,kuna,leso","leso","n","2","html-keyboard-response","134","n","leso","true","",""
"2304.2999999970198","","","","","2","html-slider-response","135","","","","4",""
"2671","body","nyundu,jibini,tindashan,kununa","tindashan","j","2","html-keyboard-response","136","j","tindashan","true","",""
"2628.5","","","","","2","html-slider-response","137","","","","4",""
"1951","perfume","katuyoan,bino,sungura,ndogo","katuyoan","f","2","html-keyboard-response","138","f","katuyoan","true","",""
"2149.3999999910593","","","","","2","html-slider-response","139","","","","4",""
"5060","olive","bata,jiwe,siagi,welder","jiwe","v","2","html-keyboard-response","140","v","jiwe","true","",""
"2455","","","","","2","html-slider-response","141","","","","4",""
"9284","magazine","kiti,gundi,mchawi,bahandi","kiti","f","2","html-keyboard-response","142","f","kiti","true","",""
"3495.0999999940395","","","","","2","html-slider-response","143","","","","5",""
"6107","bread","dari,kaili,dizeli,bugas","dari","f","2","html-keyboard-response","144","f","dari","true","",""
"2303.4000000059605","","","","","2","html-slider-response","145","","","","5",""
"16005","cave","ganti,maisha,nyundo,kesho","kesho","n","2","html-keyboard-response","146","f","ganti","false","",""
"2805.6000000089407","","","","","2","html-slider-response","147","","","","4",""
"10037","ladder","mashua,mwanga,kamba,pangalan","pangalan","n","2","html-keyboard-response","148","n","pangalan","true","",""
"2644.4000000059605","","","","","2","html-slider-response","149","","","","4",""
"2653","human","tinapay,bado,kikapu,punguza","tinapay","f","2","html-keyboard-response","150","f","tinapay","true","",""
"1958","","","","","2","html-slider-response","151","","","","4",""
"8292","clock","kartasi,abang,osha,mbwa","mbwa","n","2","html-keyboard-response","152","n","mbwa","true","",""
"2029.5","","","","","2","html-slider-response","153","","","","4",""
"7409","shelf","pamahaw,bungtod,kadaot,awit","pamahaw","f","2","html-keyboard-response","154","f","pamahaw","true","",""
"2402.9000000059605","","","","","2","html-slider-response","155","","","","4",""
"8516","salmon","mzungu,seri,baharia,sensilyo","sensilyo","n","2","html-keyboard-response","156","n","sensilyo","true","",""
"2024.699999988079","","","","","2","html-slider-response","157","","","","4",""
"1933","coffin","kioo,barua,tubag,hulma","kioo","f","2","html-keyboard-response","158","f","kioo","true","",""
"2344.7000000029802","","","","","2","html-slider-response","159","","","","5",""
"29060","notebook","msitu,kila,kemia,mdudu","kemia","j","2","html-keyboard-response","160","j","kemia","true","",""
"4888.29999999702","","","","","2","html-slider-response","161","","","","4",""
"15115","shoulder","kelele,mkuu,ndaniya,guruwe","mkuu","v","2","html-keyboard-response","162","j","ndaniya","false","",""
"4016.7000000029802","","","","","2","html-slider-response","163","","","","4",""
"13170","park","tambok,pwani,bunifu,ihalas","bunifu","j","2","html-keyboard-response","164","j","bunifu","true","",""
"2010.2000000029802","","","","","2","html-slider-response","165","","","","4",""
"14547","number","shule,kengele,choori,mundamo","mundamo","n","2","html-keyboard-response","166","v","kengele","false","",""
"2633.5999999940395","","","","","2","html-slider-response","167","","","","2",""
"13777","apple","ukame,kisu,estante,edad","kisu","v","2","html-keyboard-response","168","v","kisu","true","",""
"1956","","","","","2","html-slider-response","169","","","","2",""
"21730","letter","filimbi,kifua,chuma,uhuru","kifua","v","2","html-keyboard-response","170","v","kifua","true","",""
"2362.7999999970198","","","","","2","html-slider-response","171","","","","5",""
"30941","eel","ishara,kunywa,kabuang,msumari","msumari","n","2","html-keyboard-response","172","n","msumari","true","",""
"2183.2999999970198","","","","","2","html-slider-response","173","","","","5",""
"2832","cop","bustani,mechezo,jikoni,bakus","mechezo","v","2","html-keyboard-response","174","v","mechezo","true","",""
"2028.7999999970198","","","","","2","html-slider-response","175","","","","4",""
"11140","wolf","kaburi,lugha,ndizi,mchuzi","lugha","v","2","html-keyboard-response","176","v","lugha","true","",""
"2224.7999999970198","","","","","2","html-slider-response","177","","","","4",""
"8539","squirrel","mahugaw,ukweli,hofu,kichwa","hofu","j","2","html-keyboard-response","178","j","hofu","true","",""
"2158.7999999970198","","","","","2","html-slider-response","179","","","","4",""
"3638","nose","gubat,sehemu,kopa,kidole","sehemu","v","2","html-keyboard-response","180","v","sehemu","true","",""
"2063","","","","","2","html-slider-response","181","","","","5",""
"8513","sock","ndoora,kimysa,mamba,mtirka","mamba","j","2","html-keyboard-response","182","j","mamba","true","",""
"2275.2000000029802","","","","","2","html-slider-response","183","","","","5",""
"2638","bank","kudhibi,tualya,ofisi,silingan","silingan","n","2","html-keyboard-response","184","n","silingan","true","",""
"1573","","","","","2","html-slider-response","185","","","","4",""
"12068","donkey","bloke,lalake,rombus,elfu","elfu","n","2","html-keyboard-response","186","n","elfu","true","",""
"2120.5","","","","","2","html-slider-response","187","","","","4",""
"12746","poster","nchi,fedha,kasuko,madungog","madungog","n","2","html-keyboard-response","188","n","madungog","true","",""
"2114.0999999940395","","","","","2","html-slider-response","189","","","","5",""
"5342","puppet","mazishi,napulo,lamok,godoro","mazishi","f","2","html-keyboard-response","190","f","mazishi","true","",""
"1878.2999999970198","","","","","2","html-slider-response","191","","","","5",""
"7368","hill","matumbo,kushoto,kukimba,sweta","matumbo","f","2","html-keyboard-response","192","f","matumbo","true","",""
"2451.5","","","","","2","html-slider-response","193","","","","4",""
"9123","tooth","kijiko,uadui,pahiyum,kabalaka","kabalaka","n","2","html-keyboard-response","194","n","kabalaka","true","",""
"2296.2999999970198","","","","","2","html-slider-response","195","","","","5",""
"17865","woman","bandari,bituin,pagtabon,kovuli","pagtabon","j","2","html-keyboard-response","196","j","pagtabon","true","",""
"2082.9000000059605","","","","","2","html-slider-response","197","","","","4",""
"14626","wheel","bafuni,punda,tawo,baadaye","bafuni","f","2","html-keyboard-response","198","v","punda","false","",""
"2185.2999999970198","","","","","2","html-slider-response","199","","","","4",""
"9540","mother","kahawa,mbuzi,babaye,jokofu","babaye","j","2","html-keyboard-response","200","j","babaye","true","",""
"2179.699999988079","","","","","2","html-slider-response","201","","","","5",""
"17338","bed","kalipay,haraka,mapintas,starehe","mapintas","j","2","html-keyboard-response","202","j","mapintas","true","",""
"1762.1000000089407","","","","","2","html-slider-response","203","","","","4",""
"2502","key","miaka,chombo,goma,ahos","chombo","v","2","html-keyboard-response","204","j","goma","false","",""
"2230.2000000029802","","","","","2","html-slider-response","205","","","","4",""
"2285","page","wakala,ishiri,skina,wimbo","wimbo","n","2","html-keyboard-response","206","j","skina","false","",""
"1823.0999999940395","","","","","2","html-slider-response","207","","","","2",""
"5015","pants","pintal,chuki,hari,haki","haki","n","2","html-keyboard-response","208","n","haki","true","",""
"2124.5","","","","","2","html-slider-response","209","","","","2",""
"3376","sun","bendi,luha,uongo,basi","basi","n","2","html-keyboard-response","210","n","basi","true","",""
"2148.199999988079","","","","","2","html-slider-response","211","","","","4",""
"2640","finger","simu,sufuria,lima,moyo","moyo","n","2","html-keyboard-response","212","n","moyo","true","",""
"2301.2999999970198","","","","","2","html-slider-response","213","","","","2",""
"12950","shoe","nyeusi,uyoga,hatua,kama","uyoga","v","2","html-keyboard-response","214","n","kama","false","",""
"1969.7999999970198","","","","","2","html-slider-response","215","","","","2",""
"6327","giraffe","daraja,jumatu,hangyo,mahitabo","mahitabo","n","2","html-keyboard-response","216","n","mahitabo","true","",""
"1822","","","","","2","html-slider-response","217","","","","4",""
"9637","dog","lubi,washia,kalamu,bahari","bahari","n","2","html-keyboard-response","218","n","bahari","true","",""
"2312.1000000089407","","","","","2","html-slider-response","219","","","","4",""
"2005","box","kuacha,rafiki,adui,kitande","adui","j","2","html-keyboard-response","220","j","adui","true","",""
"2080.7999999970198","","","","","2","html-slider-response","221","","","","4",""
"3390","scissors","duga,mtawa,suga,tanuri","tanuri","n","2","html-keyboard-response","222","n","tanuri","true","",""
"2343.7999999970198","","","","","2","html-slider-response","223","","","","2",""
"11427","cat","paghukom,neyemba,baki,akili","paghukom","f","2","html-keyboard-response","224","v","neyemba","false","",""
"2041.7999999970198","","","","","2","html-slider-response","225","","","","4",""
"2529","basket","kumbuka,utepe,kumba,hasira","kumba","j","2","html-keyboard-response","226","j","kumba","true","",""
"2147.8999999910593","","","","","2","html-slider-response","227","","","","2",""
"1489","snake","jansa,pagtukod,karon,mvringo","pagtukod","v","2","html-keyboard-response","228","v","pagtukod","true","",""
"1706.7000000029802","","","","","2","html-slider-response","229","","","","4",""
"1930","gift","baba,nyange,baso,pagtawag","pagtawag","n","2","html-keyboard-response","230","j","baso","false","",""
"1266.9000000059605","","","","","2","html-slider-response","231","","","","4",""
"1943","train","itik,dakika,mungu,sayari","sayari","n","2","html-keyboard-response","232","j","mungu","false","",""
"1413.2999999970198","","","","","2","html-slider-response","233","","","","4",""
"2752","pudding","aibu,abug,mpishi,iring","aibu","f","2","html-keyboard-response","234","f","aibu","true","",""
"2188.5999999940395","","","","","2","html-slider-response","235","","","","4",""
"2614","tomato","chupi,chupa,takatak,mvua","mvua","n","2","html-keyboard-response","236","n","mvua","true","",""
"1821.9000000059605","","","","","2","html-slider-response","237","","","","4",""
"2945","stone","ulimwengu,mkasi,wingi,asili","wingi","j","2","html-keyboard-response","238","f","ulimwengu","false","",""
"1858.7999999970198","","","","","2","html-slider-response","239","","","","4",""
"3965","hammer","mekno,kitovu,layag,napakyas","napakyas","n","2","html-keyboard-response","240","v","kitovu","false","",""
"1477.9000000059605","","","","","2","html-slider-response","241","","","","4",""
"2753","knee","mvuke,kubale,bili,duka","duka","n","2","html-keyboard-response","242","v","kubale","false","",""
"1956.5","","","","","2","html-slider-response","243","","","","4",""
"4849","ceiling","kugita,maua,kawaida,rayna","maua","v","2","html-keyboard-response","244","v","maua","true","",""
"1778.5999999940395","","","","","2","html-slider-response","245","","","","4",""
"2378","spoon","betri,nzuri,pagsulod,ngazi","pagsulod","j","2","html-keyboard-response","246","j","pagsulod","true","",""
"2450.5999999940395","","","","","2","html-slider-response","247","","","","4",""
"2305","marker","maji,mapafu,salita,atay","maji","f","2","html-keyboard-response","248","f","maji","true","",""
"1722.7000000029802","","","","","2","html-slider-response","249","","","","4",""
"6303","candle","gabi,geza,farasi,kupanda","geza","v","2","html-keyboard-response","250","v","geza","true","",""
"1923.5","","","","","2","html-slider-response","251","","","","4",""
"6400","tissue","lamigas,kisiwa,katika,ugomvi","ugomvi","n","2","html-keyboard-response","252","f","lamigas","false","",""
"1595.699999988079","","","","","2","html-slider-response","253","","","","4",""
"4621","bridge","daima,sahani,ngono,panya","sahani","v","2","html-keyboard-response","254","v","sahani","true","",""
"1669.5999999940395","","","","","2","html-slider-response","255","","","","4",""
"2173","berry","abogado,kofia,nogozi,kinywa","kofia","v","2","html-keyboard-response","256","j","nogozi","false","",""
"1822.3999999910593","","","","","2","html-slider-response","257","","","","4",""
"2826","triangle","kihozi,kasadpan,bentaha,liog","kasadpan","v","2","html-keyboard-response","258","v","kasadpan","true","",""
"2106","","","","","2","html-slider-response","259","","","","4",""
"2226","door","tena,soko,surali,nyota","surali","j","2","html-keyboard-response","260","j","surali","true","",""
"1786.5","","","","","2","html-slider-response","261","","","","4",""
"1950","fish","bala,baho,buli,imani","buli","j","2","html-keyboard-response","262","j","buli","true","",""
"1879.7999999970198","","","","","2","html-slider-response","263","","","","4",""
"1976","curtain","lisud,bulwawan,chubani,mchanga","mchanga","n","2","html-keyboard-response","264","j","chubani","false","",""
"1341","","","","","2","html-slider-response","265","","","","4",""
"2035","flag","ndege,mkate,trekta,kawa","trekta","j","2","html-keyboard-response","266","f","ndege","false","",""
"1466.4000000059605","","","","","2","html-slider-response","267","","","","4",""
"1648","boat","hamsi,pombe,agalon,kitanda","agalon","j","2","html-keyboard-response","268","j","agalon","true","",""
"1517","","","","","2","html-slider-response","269","","","","4",""
"2376","rose","singizi,mwanake,amani,paghalad","paghalad","n","2","html-keyboard-response","270","n","paghalad","true","",""
"1677","","","","","2","html-slider-response","271","","","","5",""
"1318","lamp","daub,bilaska,mbolea,afya","afya","n","2","html-keyboard-response","272","v","bilaska","false","",""
"1262.7999999970198","","","","","2","html-slider-response","273","","","","4",""
"3069","cigar","ndugu,kuta,mlango,adhabu","adhabu","n","2","html-keyboard-response","274","n","adhabu","true","",""
"1791","","","","","2","html-slider-response","275","","","","4",""
"1770","list","wingu,alizeti,kuzama,kaso","wingu","f","2","html-keyboard-response","276","v","alizeti","false","",""
"1891.3999999910593","","","","","2","html-slider-response","277","","","","4",""
"2295","sheet","juuya,watu,bililhon,kamantis","bililhon","j","2","html-keyboard-response","278","v","watu","false","",""
"1316.8999999910593","","","","","2","html-slider-response","279","","","","4",""
"2247","picture","silya,chaki,asin,kubwa","kubwa","n","2","html-keyboard-response","280","v","chaki","false","",""
"1821.2999999970198","","","","","2","html-slider-response","281","","","","4",""
"1562","towel","pagpalit,tembo,funzi,pito","pagpalit","f","2","html-keyboard-response","282","f","pagpalit","true","",""
"2235.0999999940395","","","","","2","html-slider-response","283","","","","2",""
"2202","window","kweli,nanga,kujenga,umaga","kweli","f","2","html-keyboard-response","284","n","umaga","false","",""
"1722.1000000089407","","","","","2","html-slider-response","285","","","","2",""
"2772","box","kuacha,rafiki,kitande,adui","adui","n","3","html-keyboard-response","293","n","adui","true","","4"
"2174.699999988079","","","","","3","html-slider-response","294","","","","2",""
"1611","","","","","3","html-keyboard-response","295","","","","",""
"3548","pants","pintal,haki,chuki,hari","haki","v","3","html-keyboard-response","296","v","haki","true","","4"
"1593.7999999970198","","","","","3","html-slider-response","297","","","","2",""
"987","","","","","3","html-keyboard-response","298","","","","",""
"2651","cup","dagat,shimoni,jeraha,matumai","matumai","n","3","html-keyboard-response","299","n","matumai","true","","4"
"1388.2000000029802","","","","","3","html-slider-response","300","","","","5",""
"867","","","","","3","html-keyboard-response","301","","","","",""
"1998","triangle","kasadpan,kihozi,bentaha,liog","kasadpan","f","3","html-keyboard-response","302","f","kasadpan","true","","4"
"1753.1000000089407","","","","","3","html-slider-response","303","","","","2",""
"682","","","","","3","html-keyboard-response","304","","","","",""
"3218","curtain","lisud,bulwawan,mchanga,chubani","mchanga","j","3","html-keyboard-response","305","j","mchanga","true","","4"
"1934.0999999940395","","","","","3","html-slider-response","306","","","","2",""
"925","","","","","3","html-keyboard-response","307","","","","",""
"3720","clock","mbwa,kartasi,abang,osha","mbwa","f","3","html-keyboard-response","308","f","mbwa","true","","4"
"1805.1000000089407","","","","","3","html-slider-response","309","","","","4",""
"780","","","","","3","html-keyboard-response","310","","","","",""
"3377","mirror","sulagma,rangi,kanding,furaha","sulagma","f","3","html-keyboard-response","311","v","rangi","false","","4"
"1807","","","","","3","html-slider-response","312","","","","2",""
"837","","","","","3","html-keyboard-response","313","","","","",""
"3029","coffin","kioo,barua,tubag,hulma","kioo","f","3","html-keyboard-response","314","f","kioo","true","","1"
"1954.199999988079","","","","","3","html-slider-response","315","","","","5",""
"929","","","","","3","html-keyboard-response","316","","","","",""
"4246","magazine","gundi,mchawi,bahandi,kiti","kiti","n","3","html-keyboard-response","317","j","bahandi","false","","4"
"1668.9000000059605","","","","","3","html-slider-response","318","","","","4",""
"998","","","","","3","html-keyboard-response","319","","","","",""
"2176","column","pundok,ufagio,dila,pala","ufagio","v","3","html-keyboard-response","320","v","ufagio","true","","1"
"1562.6000000089407","","","","","3","html-slider-response","321","","","","5",""
"616","","","","","3","html-keyboard-response","322","","","","",""
"2503","number","shule,mundamo,kengele,choori","mundamo","v","3","html-keyboard-response","323","n","choori","false","","4"
"1596.7999999970198","","","","","3","html-slider-response","324","","","","2",""
"495","","","","","3","html-keyboard-response","325","","","","",""
"5114","rose","paghalad,singizi,mwanake,amani","paghalad","f","3","html-keyboard-response","326","n","amani","false","","4"
"1337.7000000029802","","","","","3","html-slider-response","327","","","","4",""
"951","","","","","3","html-keyboard-response","328","","","","",""
"2828","eel","ishara,kunywa,kabuang,msumari","msumari","n","3","html-keyboard-response","329","n","msumari","true","","4"
"1472.2000000029802","","","","","3","html-slider-response","330","","","","5",""
"526","","","","","3","html-keyboard-response","331","","","","",""
"4260","gift","baba,pagtawag,nyange,baso","pagtawag","v","3","html-keyboard-response","332","v","pagtawag","true","","4"
"1377.5999999940395","","","","","3","html-slider-response","333","","","","5",""
"396","","","","","3","html-keyboard-response","334","","","","",""
"1507","apple","ukame,kisu,estante,edad","kisu","v","3","html-keyboard-response","335","v","kisu","true","","1"
"2236.1000000089407","","","","","3","html-slider-response","336","","","","5",""
"634","","","","","3","html-keyboard-response","337","","","","",""
"1224","wheel","bafuni,punda,tawo,baadaye","bafuni","f","3","html-keyboard-response","338","f","bafuni","true","","1"
"1496.4000000059605","","","","","3","html-slider-response","339","","","","5",""
"682","","","","","3","html-keyboard-response","340","","","","",""
"2167","knee","mvuke,duka,kubale,bili","duka","v","3","html-keyboard-response","341","f","mvuke","false","","4"
"1265.6000000089407","","","","","3","html-slider-response","342","","","","4",""
"711","","","","","3","html-keyboard-response","343","","","","",""
"1531","basket","kumbuka,kumba,utepe,hasira","kumba","v","3","html-keyboard-response","344","v","kumba","true","","1"
"1313.6000000089407","","","","","3","html-slider-response","345","","","","5",""
"582","","","","","3","html-keyboard-response","346","","","","",""
"3264","park","bunifu,tambok,pwani,ihalas","bunifu","f","3","html-keyboard-response","347","f","bunifu","true","","4"
"1437.1000000089407","","","","","3","html-slider-response","348","","","","5",""
"436","","","","","3","html-keyboard-response","349","","","","",""
"3184","finger","simu,sufuria,lima,moyo","moyo","n","3","html-keyboard-response","350","v","sufuria","false","","4"
"2693.2000000029802","","","","","3","html-slider-response","351","","","","2",""
"645","","","","","3","html-keyboard-response","352","","","","",""
"2232","boat","hamsi,agalon,pombe,kitanda","agalon","v","3","html-keyboard-response","353","v","agalon","true","","4"
"1348.0999999940395","","","","","3","html-slider-response","354","","","","5",""
"373","","","","","3","html-keyboard-response","355","","","","",""
"3375","hill","kushoto,kukimba,matumbo,sweta","matumbo","j","3","html-keyboard-response","356","j","matumbo","true","","4"
"1859.9000000059605","","","","","3","html-slider-response","357","","","","5",""
"464","","","","","3","html-keyboard-response","358","","","","",""
"2865","train","itik,dakika,sayari,mungu","sayari","j","3","html-keyboard-response","359","j","sayari","true","","4"
"1481.199999988079","","","","","3","html-slider-response","360","","","","2",""
"693","","","","","3","html-keyboard-response","361","","","","",""
"2340","wolf","kaburi,ndizi,mchuzi,lugha","lugha","n","3","html-keyboard-response","362","j","mchuzi","false","","4"
"1818","","","","","3","html-slider-response","363","","","","4",""
"806","","","","","3","html-keyboard-response","364","","","","",""
"2162","snake","jansa,karon,pagtukod,mvringo","pagtukod","j","3","html-keyboard-response","365","j","pagtukod","true","","4"
"1468.9000000059605","","","","","3","html-slider-response","366","","","","5",""
"542","","","","","3","html-keyboard-response","367","","","","",""
"3342","tooth","kijiko,kabalaka,uadui,pahiyum","kabalaka","v","3","html-keyboard-response","368","v","kabalaka","true","","4"
"1488.2999999970198","","","","","3","html-slider-response","369","","","","5",""
"472","","","","","3","html-keyboard-response","370","","","","",""
"2471","notebook","msitu,kemia,kila,mdudu","kemia","v","3","html-keyboard-response","371","f","msitu","false","","4"
"2054.2000000029802","","","","","3","html-slider-response","372","","","","4",""
"801","","","","","3","html-keyboard-response","373","","","","",""
"2730","flag","ndege,mkate,kawa,trekta","trekta","n","3","html-keyboard-response","374","n","trekta","true","","4"
"1703","","","","","3","html-slider-response","375","","","","2",""
"425","","","","","3","html-keyboard-response","376","","","","",""
"1787","squirrel","mahugaw,hofu,ukweli,kichwa","hofu","v","3","html-keyboard-response","377","v","hofu","true","","4"
"1343.7000000029802","","","","","3","html-slider-response","378","","","","5",""
"467","","","","","3","html-keyboard-response","379","","","","",""
"3391","door","tena,soko,surali,nyota","surali","j","3","html-keyboard-response","380","j","surali","true","","4"
"1296.8999999910593","","","","","3","html-slider-response","381","","","","5",""
"362","","","","","3","html-keyboard-response","382","","","","",""
"1870","salmon","sensilyo,mzungu,seri,baharia","sensilyo","f","3","html-keyboard-response","383","f","sensilyo","true","","4"
"1778.3999999910593","","","","","3","html-slider-response","384","","","","5",""
"529","","","","","3","html-keyboard-response","385","","","","",""
"2688","shoulder","mkuu,kelele,ndaniya,guruwe","mkuu","f","3","html-keyboard-response","386","f","mkuu","true","","4"
"2250.8999999910593","","","","","3","html-slider-response","387","","","","5",""
"477","","","","","3","html-keyboard-response","388","","","","",""
"3175","lamp","afya,daub,bilaska,mbolea","afya","f","3","html-keyboard-response","389","f","afya","true","","4"
"1487.4000000059605","","","","","3","html-slider-response","390","","","","4",""
"382","","","","","3","html-keyboard-response","391","","","","",""
"1484","shelf","bungtod,kadaot,pamahaw,awit","pamahaw","j","3","html-keyboard-response","392","j","pamahaw","true","","1"
"1633.2999999970198","","","","","3","html-slider-response","393","","","","5",""
"550","","","","","3","html-keyboard-response","394","","","","",""
"2001","human","bado,kikapu,tinapay,punguza","tinapay","j","3","html-keyboard-response","395","j","tinapay","true","","4"
"2876.2000000029802","","","","","3","html-slider-response","396","","","","5",""
"612","","","","","3","html-keyboard-response","397","","","","",""
"2322","towel","tembo,pagpalit,funzi,pito","pagpalit","v","3","html-keyboard-response","398","j","funzi","false","","4"
"2092.2999999970198","","","","","3","html-slider-response","399","","","","4",""
"926","","","","","3","html-keyboard-response","400","","","","",""
"2638","cat","paghukom,neyemba,baki,akili","paghukom","f","3","html-keyboard-response","401","f","paghukom","true","","4"
"1822","","","","","3","html-slider-response","402","","","","4",""
"330","","","","","3","html-keyboard-response","403","","","","",""
"2522","spider","bunyag,mkboa,atop,kamwe","kamwe","n","3","html-keyboard-response","404","n","kamwe","true","","4"
"1301.2000000029802","","","","","3","html-slider-response","405","","","","5",""
"312","","","","","3","html-keyboard-response","406","","","","",""
"2203","window","nanga,kujenga,kweli,umaga","kweli","j","3","html-keyboard-response","407","n","umaga","false","","4"
"2063.7999999970198","","","","","3","html-slider-response","408","","","","4",""
"439","","","","","3","html-keyboard-response","409","","","","",""
"1503","woman","bandari,bituin,pagtabon,kovuli","pagtabon","j","3","html-keyboard-response","410","j","pagtabon","true","","1"
"1796.0999999940395","","","","","3","html-slider-response","411","","","","4",""
"580","","","","","3","html-keyboard-response","412","","","","",""
"3965","giraffe","daraja,mahitabo,jumatu,hangyo","mahitabo","v","3","html-keyboard-response","413","v","mahitabo","true","","4"
"1432.2999999970198","","","","","3","html-slider-response","414","","","","4",""
"368","","","","","3","html-keyboard-response","415","","","","",""
"3689","elephant","kito,petye,pagduol,suka","kito","f","3","html-keyboard-response","416","j","pagduol","false","","4"
"2128.4000000059605","","","","","3","html-slider-response","417","","","","4",""
"709","","","","","3","html-keyboard-response","418","","","","",""
"3088","cave","ganti,maisha,kesho,nyundo","kesho","j","3","html-keyboard-response","419","v","maisha","false","","4"
"1167.3999999910593","","","","","3","html-slider-response","420","","","","2",""
"373","","","","","3","html-keyboard-response","421","","","","",""
"2740","bread","kaili,dizeli,bugas,dari","dari","n","3","html-keyboard-response","422","n","dari","true","","4"
"1436.2000000029802","","","","","3","html-slider-response","423","","","","5",""
"432","","","","","3","html-keyboard-response","424","","","","",""
"2770","stone","ulimwengu,mkasi,wingi,asili","wingi","j","3","html-keyboard-response","425","v","mkasi","false","","4"
"1722.7999999970198","","","","","3","html-slider-response","426","","","","2",""
"659","","","","","3","html-keyboard-response","427","","","","",""
"2854","donkey","bloke,lalake,rombus,elfu","elfu","n","3","html-keyboard-response","428","v","lalake","false","","4"
"1329.2000000029802","","","","","3","html-slider-response","429","","","","5",""
"521","","","","","3","html-keyboard-response","430","","","","",""
"2936","bridge","daima,ngono,panya,sahani","sahani","n","3","html-keyboard-response","431","f","daima","false","","4"
"1689.8999999910593","","","","","3","html-slider-response","432","","","","2",""
"589","","","","","3","html-keyboard-response","433","","","","",""
"2503","bonfire","mwezi,goti,mfuko,kusanya","goti","v","3","html-keyboard-response","434","v","goti","true","","4"
"1415.3999999910593","","","","","3","html-slider-response","435","","","","5",""
"467","","","","","3","html-keyboard-response","436","","","","",""
"2518","book","mali,kuhesa,picha,mara","mali","f","3","html-keyboard-response","437","f","mali","true","","4"
"1403.0999999940395","","","","","3","html-slider-response","438","","","","5",""
"330","","","","","3","html-keyboard-response","439","","","","",""
"2735","fish","bala,baho,imani,buli","buli","n","3","html-keyboard-response","440","n","buli","true","","4"
"1394.800000011921","","","","","3","html-slider-response","441","","","","2",""
"481","","","","","3","html-keyboard-response","442","","","","",""
"2314","spoon","pagsulod,betri,nzuri,ngazi","pagsulod","f","3","html-keyboard-response","443","f","pagsulod","true","","4"
"1633.1000000089407","","","","","3","html-slider-response","444","","","","4",""
"436","","","","","3","html-keyboard-response","445","","","","",""
"2168","scissors","duga,mtawa,tanuri,suga","tanuri","j","3","html-keyboard-response","446","v","mtawa","false","","4"
"1038.8999999910593","","","","","3","html-slider-response","447","","","","4",""
"619","","","","","3","html-keyboard-response","448","","","","",""
"2482","page","wakala,wimbo,ishiri,skina","wimbo","v","3","html-keyboard-response","449","f","wakala","false","","4"
"1804.0999999940395","","","","","3","html-slider-response","450","","","","2",""
"392","","","","","3","html-keyboard-response","451","","","","",""
"1726","nose","gubat,kopa,kidole,sehemu","sehemu","n","3","html-keyboard-response","452","n","sehemu","true","","1"
"1541.3999999910593","","","","","3","html-slider-response","453","","","","4",""
"925","","","","","3","html-keyboard-response","454","","","","",""
"3043","ceiling","kugita,maua,kawaida,rayna","maua","v","3","html-keyboard-response","455","v","maua","true","","4"
"1321.7999999970198","","","","","3","html-slider-response","456","","","","5",""
"426","","","","","3","html-keyboard-response","457","","","","",""
"2573","bucket","baga,kiatu,ijayo,init","kiatu","v","3","html-keyboard-response","458","v","kiatu","true","","4"
"1228.7000000029802","","","","","3","html-slider-response","459","","","","5",""
"349","","","","","3","html-keyboard-response","460","","","","",""
"1560","berry","kofia,abogado,nogozi,kinywa","kofia","f","3","html-keyboard-response","461","f","kofia","true","","1"
"1477.3999999910593","","","","","3","html-slider-response","462","","","","4",""
"369","","","","","3","html-keyboard-response","463","","","","",""
"1153","mother","babaye,kahawa,mbuzi,jokofu","babaye","f","3","html-keyboard-response","464","f","babaye","true","","1"
"1521.2000000029802","","","","","3","html-slider-response","465","","","","5",""
"589","","","","","3","html-keyboard-response","466","","","","",""
"2130","mosquito","martilyo,isda,taras,gutom","martilyo","f","3","html-keyboard-response","467","f","martilyo","true","","4"
"1820.2999999970198","","","","","3","html-slider-response","468","","","","5",""
"447","","","","","3","html-keyboard-response","469","","","","",""
"1620","perfume","katuyoan,bino,sungura,ndogo","katuyoan","f","3","html-keyboard-response","470","f","katuyoan","true","","4"
"1671.0999999940395","","","","","3","html-slider-response","471","","","","5",""
"352","","","","","3","html-keyboard-response","472","","","","",""
"2602","sheet","juuya,watu,kamantis,bililhon","bililhon","n","3","html-keyboard-response","473","v","watu","false","","4"
"1411","","","","","3","html-slider-response","474","","","","5",""
"486","","","","","3","html-keyboard-response","475","","","","",""
"1285","puppet","napulo,lamok,godoro,mazishi","mazishi","n","3","html-keyboard-response","476","n","mazishi","true","","1"
"1758.2999999970198","","","","","3","html-slider-response","477","","","","4",""
"453","","","","","3","html-keyboard-response","478","","","","",""
"3230","poster","nchi,madungog,fedha,kasuko","madungog","v","3","html-keyboard-response","479","v","madungog","true","","4"
"2325.300000011921","","","","","3","html-slider-response","480","","","","4",""
"457","","","","","3","html-keyboard-response","481","","","","",""
"2734","music","mraba,baiski,mageho,tumbo","baiski","v","3","html-keyboard-response","482","v","baiski","true","","4"
"1077.8999999910593","","","","","3","html-slider-response","483","","","","4",""
"480","","","","","3","html-keyboard-response","484","","","","",""
"2741","key","chombo,miaka,goma,ahos","chombo","f","3","html-keyboard-response","485","n","ahos","false","","4"
"1943.0999999940395","","","","","3","html-slider-response","486","","","","4",""
"414","","","","","3","html-keyboard-response","487","","","","",""
"2208","sock","mamba,ndoora,kimysa,mtirka","mamba","f","3","html-keyboard-response","488","f","mamba","true","","4"
"1550.7999999970198","","","","","3","html-slider-response","489","","","","4",""
"511","","","","","3","html-keyboard-response","490","","","","",""
"3023","marker","maji,mapafu,salita,atay","maji","f","3","html-keyboard-response","491","f","maji","true","","4"
"1318.5","","","","","3","html-slider-response","492","","","","5",""
"358","","","","","3","html-keyboard-response","493","","","","",""
"3002","office","hazini,yatima,leso,kuna","leso","j","3","html-keyboard-response","494","j","leso","true","","4"
"1292.0999999940395","","","","","3","html-slider-response","495","","","","5",""
"423","","","","","3","html-keyboard-response","496","","","","",""
"2850","shoe","nyeusi,hatua,uyoga,kama","uyoga","j","3","html-keyboard-response","497","n","kama","false","","4"
"1361.7999999970198","","","","","3","html-slider-response","498","","","","4",""
"486","","","","","3","html-keyboard-response","499","","","","",""
"2767","cop","bustani,jikoni,bakus,mechezo","mechezo","n","3","html-keyboard-response","500","n","mechezo","true","","4"
"1999.4000000059605","","","","","3","html-slider-response","501","","","","4",""
"459","","","","","3","html-keyboard-response","502","","","","",""
"1988","bank","kudhibi,tualya,silingan,ofisi","silingan","j","3","html-keyboard-response","503","v","tualya","false","","4"
"2084.5","","","","","3","html-slider-response","504","","","","4",""
"501","","","","","3","html-keyboard-response","505","","","","",""
"1233","letter","filimbi,kifua,chuma,uhuru","kifua","v","3","html-keyboard-response","506","v","kifua","true","","1"
"1229.300000011921","","","","","3","html-slider-response","507","","","","4",""
"791","","","","","3","html-keyboard-response","508","","","","",""
"1094","dog","bahari,lubi,washia,kalamu","bahari","f","3","html-keyboard-response","509","f","bahari","true","","1"
"1517.2000000029802","","","","","3","html-slider-response","510","","","","4",""
"979","","","","","3","html-keyboard-response","511","","","","",""
"2735","shop","samaki,nopya,kerida,ndezu","samaki","f","3","html-keyboard-response","512","f","samaki","true","","4"
"1632","","","","","3","html-slider-response","513","","","","4",""
"530","","","","","3","html-keyboard-response","514","","","","",""
"1744","flower","bega,tamasha,lobo,usiku","bega","f","3","html-keyboard-response","515","v","tamasha","false","","4"
"1256.5","","","","","3","html-slider-response","516","","","","4",""
"601","","","","","3","html-keyboard-response","517","","","","",""
"1608","cigar","ndugu,kuta,adhabu,mlango","adhabu","j","3","html-keyboard-response","518","j","adhabu","true","","1"
"2113.2999999970198","","","","","3","html-slider-response","519","","","","4",""
"616","","","","","3","html-keyboard-response","520","","","","",""
"2876","hammer","mekno,kitovu,layag,napakyas","napakyas","n","3","html-keyboard-response","521","n","napakyas","true","","4"
"1510.5999999940395","","","","","3","html-slider-response","522","","","","2",""
"377","","","","","3","html-keyboard-response","523","","","","",""
"3571","fork","baboy,paghago,gorisi,mgonjwa","mgonjwa","n","3","html-keyboard-response","524","n","mgonjwa","true","","4"
"1422.300000011921","","","","","3","html-slider-response","525","","","","5",""
"368","","","","","3","html-keyboard-response","526","","","","",""
"1272","sun","bendi,basi,luha,uongo","basi","v","3","html-keyboard-response","527","v","basi","true","","1"
"1945.7000000029802","","","","","3","html-slider-response","528","","","","4",""
"1000","","","","","3","html-keyboard-response","529","","","","",""
"2850","ladder","mashua,mwanga,pangalan,kamba","pangalan","j","3","html-keyboard-response","530","j","pangalan","true","","4"
"1303.2000000029802","","","","","3","html-slider-response","531","","","","5",""
"735","","","","","3","html-keyboard-response","532","","","","",""
"1088","banana","kasamok,kazi,hagdan,twai","kazi","v","3","html-keyboard-response","533","v","kazi","true","","1"
"2003","","","","","3","html-slider-response","534","","","","4",""
"1414","","","","","3","html-keyboard-response","535","","","","",""
"3278","pudding","aibu,abug,mpishi,iring","aibu","f","3","html-keyboard-response","536","v","abug","false","","4"
"1564.4000000059605","","","","","3","html-slider-response","537","","","","2",""
"449","","","","","3","html-keyboard-response","538","","","","",""
"1944","body","nyundu,tindashan,jibini,kununa","tindashan","v","3","html-keyboard-response","539","v","tindashan","true","","4"
"1282.9000000059605","","","","","3","html-slider-response","540","","","","5",""
"458","","","","","3","html-keyboard-response","541","","","","",""
"2559","bed","mapintas,kalipay,haraka,starehe","mapintas","f","3","html-keyboard-response","542","f","mapintas","true","","4"
"1307.5","","","","","3","html-slider-response","543","","","","2",""
"361","","","","","3","html-keyboard-response","544","","","","",""
"3284","tissue","lamigas,kisiwa,ugomvi,katika","ugomvi","j","3","html-keyboard-response","545","n","katika","false","","4"
"1925.9000000059605","","","","","3","html-slider-response","546","","","","2",""
"524","","","","","3","html-keyboard-response","547","","","","",""
"4564","candle","gabi,farasi,geza,kupanda","geza","j","3","html-keyboard-response","548","j","geza","true","","4"
"1371.7000000029802","","","","","3","html-slider-response","549","","","","2",""
"414","","","","","3","html-keyboard-response","550","","","","",""
"1349","tomato","chupi,chupa,mvua,takatak","mvua","j","3","html-keyboard-response","551","j","mvua","true","","1"
"3335.0999999940395","","","","","3","html-slider-response","552","","","","4",""
"571","","","","","3","html-keyboard-response","553","","","","",""
"2500","list","wingu,alizeti,kuzama,kaso","wingu","f","3","html-keyboard-response","554","j","kuzama","false","","4"
"2020.4000000059605","","","","","3","html-slider-response","555","","","","2",""
"564","","","","","3","html-keyboard-response","556","","","","",""
"2286","olive","bata,siagi,jiwe,welder","jiwe","j","3","html-keyboard-response","557","j","jiwe","true","","4"
"1753.9000000059605","","","","","3","html-slider-response","558","","","","4",""
"755","","","","","3","html-keyboard-response","559","","","","",""
"1266","picture","silya,chaki,asin,kubwa","kubwa","n","3","html-keyboard-response","560","n","kubwa","true","","1"
"1854.6000000089407","","","","","3","html-slider-response","561","","","","5",""
"407","","","","","3","html-keyboard-response","562","","","","",""
"3023","page","wakala,ishiri,skina,wimbo","wimbo","n","4","html-keyboard-response","888","f","wakala","false","",""
"1972.0999999940395","","","","","4","html-slider-response","889","","","","4",""
"2986","sheet","bililhon,juuya,watu,kamantis","bililhon","f","4","html-keyboard-response","890","j","watu","false","",""
"1561.800000011921","","","","","4","html-slider-response","891","","","","4",""
"2252","ladder","mashua,pangalan,mwanga,kamba","pangalan","v","4","html-keyboard-response","892","v","pangalan","true","",""
"3328.5999999940395","","","","","4","html-slider-response","893","","","","4",""
"2488","door","tena,surali,soko,nyota","surali","v","4","html-keyboard-response","894","v","surali","true","",""
"1357.2999999970198","","","","","4","html-slider-response","895","","","","4",""
"1981","spider","bunyag,kamwe,mkboa,atop","kamwe","v","4","html-keyboard-response","896","v","kamwe","true","",""
"1536.5","","","","","4","html-slider-response","897","","","","4",""
"3466","picture","silya,chaki,asin,kubwa","kubwa","n","4","html-keyboard-response","898","v","chaki","false","",""
"1586.4000000059605","","","","","4","html-slider-response","899","","","","2",""
"2136","boat","hamsi,pombe,kitanda,agalon","agalon","n","4","html-keyboard-response","900","j","kitanda","false","",""
"1819.5999999940395","","","","","4","html-slider-response","901","","","","4",""
"2701","donkey","elfu,bloke,lalake,rombus","elfu","f","4","html-keyboard-response","902","f","elfu","true","",""
"1807.4000000059605","","","","","4","html-slider-response","903","","","","4",""
"1654","book","mali,kuhesa,picha,mara","mali","f","4","html-keyboard-response","904","f","mali","true","",""
"1294.800000011921","","","","","4","html-slider-response","905","","","","4",""
"2115","cup","dagat,matumai,shimoni,jeraha","matumai","v","4","html-keyboard-response","906","v","matumai","true","",""
"1313.2999999970198","","","","","4","html-slider-response","907","","","","4",""
"2423","sun","basi,bendi,luha,uongo","basi","f","4","html-keyboard-response","908","j","luha","false","",""
"1349.1000000089407","","","","","4","html-slider-response","909","","","","4",""
"2274","pudding","abug,mpishi,iring,aibu","aibu","n","4","html-keyboard-response","910","f","abug","false","",""
"1650.4000000059605","","","","","4","html-slider-response","911","","","","4",""
"3138","human","bado,kikapu,punguza,tinapay","tinapay","n","4","html-keyboard-response","912","n","tinapay","true","",""
"1673.800000011921","","","","","4","html-slider-response","913","","","","5",""
"2486","squirrel","mahugaw,ukweli,kichwa,hofu","hofu","n","4","html-keyboard-response","914","f","mahugaw","false","",""
"1694.5","","","","","4","html-slider-response","915","","","","4",""
"4461","park","tambok,pwani,bunifu,ihalas","bunifu","j","4","html-keyboard-response","916","j","bunifu","true","",""
"1775","","","","","4","html-slider-response","917","","","","4",""
"3866","poster","nchi,madungog,fedha,kasuko","madungog","v","4","html-keyboard-response","918","v","madungog","true","",""
"1369.800000011921","","","","","4","html-slider-response","919","","","","4",""
"1710","wolf","kaburi,lugha,ndizi,mchuzi","lugha","v","4","html-keyboard-response","920","v","lugha","true","",""
"1342.5","","","","","4","html-slider-response","921","","","","4",""
"3199","cat","paghukom,neyemba,baki,akili","paghukom","f","4","html-keyboard-response","922","f","paghukom","true","",""
"1477.4000000059605","","","","","4","html-slider-response","923","","","","4",""
"2447","fish","bala,buli,baho,imani","buli","v","4","html-keyboard-response","924","v","buli","true","",""
"1940.5999999940395","","","","","4","html-slider-response","925","","","","4",""
"2515","tooth","kijiko,uadui,pahiyum,kabalaka","kabalaka","n","4","html-keyboard-response","926","n","kabalaka","true","",""
"1319.9000000059605","","","","","4","html-slider-response","927","","","","5",""
"2588","cave","ganti,maisha,nyundo,kesho","kesho","n","4","html-keyboard-response","928","n","kesho","true","",""
"1670.7000000029802","","","","","4","html-slider-response","929","","","","4",""
"3335","lamp","daub,bilaska,mbolea,afya","afya","n","4","html-keyboard-response","930","f","daub","false","",""
"1595.7000000029802","","","","","4","html-slider-response","931","","","","2",""
"4160","banana","kazi,kasamok,hagdan,twai","kazi","f","4","html-keyboard-response","932","f","kazi","true","",""
"1627.7999999970198","","","","","4","html-slider-response","933","","","","4",""
"1503","bonfire","mwezi,goti,mfuko,kusanya","goti","v","4","html-keyboard-response","934","v","goti","true","",""
"1428","","","","","4","html-slider-response","935","","","","5",""
"1871","cop","bustani,jikoni,mechezo,bakus","mechezo","j","4","html-keyboard-response","936","j","mechezo","true","",""
"1375","","","","","4","html-slider-response","937","","","","5",""
"3102","marker","mapafu,salita,maji,atay","maji","j","4","html-keyboard-response","938","j","maji","true","",""
"1583.2000000029802","","","","","4","html-slider-response","939","","","","2",""
"2975","window","nanga,kujenga,kweli,umaga","kweli","j","4","html-keyboard-response","940","n","umaga","false","",""
"1534","","","","","4","html-slider-response","941","","","","5",""
"2173","body","nyundu,jibini,tindashan,kununa","tindashan","j","4","html-keyboard-response","942","j","tindashan","true","",""
"1320.2999999970198","","","","","4","html-slider-response","943","","","","4",""
"1824","apple","kisu,ukame,estante,edad","kisu","f","4","html-keyboard-response","944","v","ukame","false","",""
"3605.5","","","","","4","html-slider-response","945","","","","4",""
"2235","salmon","mzungu,sensilyo,seri,baharia","sensilyo","v","4","html-keyboard-response","946","v","sensilyo","true","",""
"3009","","","","","4","html-slider-response","947","","","","4",""
"2815","bed","kalipay,haraka,starehe,mapintas","mapintas","n","4","html-keyboard-response","948","n","mapintas","true","",""
"1644.5","","","","","4","html-slider-response","949","","","","5",""
"3465","berry","abogado,nogozi,kofia,kinywa","kofia","j","4","html-keyboard-response","950","j","kofia","true","",""
"1651.7999999970198","","","","","4","html-slider-response","951","","","","2",""
"2287","mirror","sulagma,rangi,kanding,furaha","sulagma","f","4","html-keyboard-response","952","n","furaha","false","",""
"3084.0999999940395","","","","","4","html-slider-response","953","","","","2",""
"2551","flag","trekta,ndege,mkate,kawa","trekta","f","4","html-keyboard-response","954","j","mkate","false","",""
"1868.7000000029802","","","","","4","html-slider-response","955","","","","4",""
"2062","shoulder","kelele,mkuu,ndaniya,guruwe","mkuu","v","4","html-keyboard-response","956","v","mkuu","true","",""
"1597.7000000029802","","","","","4","html-slider-response","957","","","","5",""
"2099","tissue","lamigas,kisiwa,katika,ugomvi","ugomvi","n","4","html-keyboard-response","958","f","lamigas","false","",""
"1440.5999999940395","","","","","4","html-slider-response","959","","","","2",""
"2849","notebook","kemia,msitu,kila,mdudu","kemia","f","4","html-keyboard-response","960","f","kemia","true","",""
"1682.300000011921","","","","","4","html-slider-response","961","","","","4",""
"1929","snake","jansa,karon,pagtukod,mvringo","pagtukod","j","4","html-keyboard-response","962","j","pagtukod","true","",""
"1275.800000011921","","","","","4","html-slider-response","963","","","","5",""
"3145","finger","simu,sufuria,moyo,lima","moyo","j","4","html-keyboard-response","964","j","moyo","true","",""
"2098.4000000059605","","","","","4","html-slider-response","965","","","","4",""
"2078","basket","kumbuka,utepe,kumba,hasira","kumba","j","4","html-keyboard-response","966","j","kumba","true","",""
"1605.7000000029802","","","","","4","html-slider-response","967","","","","4",""
"3902","curtain","lisud,mchanga,bulwawan,chubani","mchanga","v","4","html-keyboard-response","968","n","chubani","false","",""
"1717.3999999910593","","","","","4","html-slider-response","969","","","","4",""
"1587","perfume","bino,sungura,ndogo,katuyoan","katuyoan","n","4","html-keyboard-response","970","n","katuyoan","true","",""
"1312.199999988079","","","","","4","html-slider-response","971","","","","5",""
"2986","key","chombo,miaka,goma,ahos","chombo","f","4","html-keyboard-response","972","v","miaka","false","",""
"1482.199999988079","","","","","4","html-slider-response","973","","","","2",""
"1902","olive","jiwe,bata,siagi,welder","jiwe","f","4","html-keyboard-response","974","f","jiwe","true","",""
"1917.7999999970198","","","","","4","html-slider-response","975","","","","4",""
"1852","rose","singizi,paghalad,mwanake,amani","paghalad","v","4","html-keyboard-response","976","v","paghalad","true","",""
"1839.5999999940395","","","","","4","html-slider-response","977","","","","5",""
"2840","bridge","daima,sahani,ngono,panya","sahani","v","4","html-keyboard-response","978","n","panya","false","",""
"1292.5","","","","","4","html-slider-response","979","","","","4",""
"1837","hill","kushoto,matumbo,kukimba,sweta","matumbo","v","4","html-keyboard-response","980","v","matumbo","true","",""
"1503.5","","","","","4","html-slider-response","981","","","","4",""
"2094","letter","filimbi,chuma,uhuru,kifua","kifua","n","4","html-keyboard-response","982","v","chuma","false","",""
"1406.9000000059605","","","","","4","html-slider-response","983","","","","4",""
"2520","sock","ndoora,kimysa,mtirka,mamba","mamba","n","4","html-keyboard-response","984","n","mamba","true","",""
"1341.800000011921","","","","","4","html-slider-response","985","","","","4",""
"2645","fork","mgonjwa,baboy,paghago,gorisi","mgonjwa","f","4","html-keyboard-response","986","j","paghago","false","",""
"1720","","","","","4","html-slider-response","987","","","","2",""
"3274","box","adui,kuacha,rafiki,kitande","adui","f","4","html-keyboard-response","988","f","adui","true","",""
"1570","","","","","4","html-slider-response","989","","","","5",""
"2116","gift","baba,nyange,baso,pagtawag","pagtawag","n","4","html-keyboard-response","990","n","pagtawag","true","",""
"1391.7000000029802","","","","","4","html-slider-response","991","","","","5",""
"2428","bucket","baga,ijayo,init,kiatu","kiatu","n","4","html-keyboard-response","992","f","baga","false","",""
"1657","","","","","4","html-slider-response","993","","","","4",""
"3125","shop","nopya,kerida,samaki,ndezu","samaki","j","4","html-keyboard-response","994","j","samaki","true","",""
"1415.1000000089407","","","","","4","html-slider-response","995","","","","4",""
"1982","puppet","mazishi,napulo,lamok,godoro","mazishi","f","4","html-keyboard-response","996","j","lamok","false","",""
"1750.7999999970198","","","","","4","html-slider-response","997","","","","4",""
"2117","nose","gubat,sehemu,kopa,kidole","sehemu","v","4","html-keyboard-response","998","j","kopa","false","",""
"2959.199999988079","","","","","4","html-slider-response","999","","","","2",""
"1554","music","mraba,baiski,mageho,tumbo","baiski","v","4","html-keyboard-response","1000","v","baiski","true","",""
"1634.3999999910593","","","","","4","html-slider-response","1001","","","","4",""
"2209","dog","lubi,bahari,washia,kalamu","bahari","v","4","html-keyboard-response","1002","v","bahari","true","",""
"1786.7000000029802","","","","","4","html-slider-response","1003","","","","4",""
"3479","eel","msumari,ishara,kunywa,kabuang","msumari","f","4","html-keyboard-response","1004","f","msumari","true","",""
"2356.5","","","","","4","html-slider-response","1005","","","","4",""
"3909","number","mundamo,shule,kengele,choori","mundamo","f","4","html-keyboard-response","1006","j","kengele","false","",""
"1854.2000000029802","","","","","4","html-slider-response","1007","","","","4",""
"1879","tomato","mvua,chupi,chupa,takatak","mvua","f","4","html-keyboard-response","1008","f","mvua","true","",""
"1740.8999999910593","","","","","4","html-slider-response","1009","","","","4",""
"1910","coffin","barua,kioo,tubag,hulma","kioo","v","4","html-keyboard-response","1010","v","kioo","true","",""
"1549.8999999910593","","","","","4","html-slider-response","1011","","","","4",""
"3243","knee","mvuke,duka,kubale,bili","duka","v","4","html-keyboard-response","1012","f","mvuke","false","",""
"1793.0999999940395","","","","","4","html-slider-response","1013","","","","4",""
"2003","woman","bandari,pagtabon,bituin,kovuli","pagtabon","v","4","html-keyboard-response","1014","v","pagtabon","true","",""
"1647.8999999910593","","","","","4","html-slider-response","1015","","","","4",""
"1703","stone","wingi,ulimwengu,mkasi,asili","wingi","f","4","html-keyboard-response","1016","v","ulimwengu","false","",""
"1740.5999999940395","","","","","4","html-slider-response","1017","","","","5",""
"4269","bread","dari,kaili,dizeli,bugas","dari","f","4","html-keyboard-response","1018","f","dari","true","",""
"1350.8999999910593","","","","","4","html-slider-response","1019","","","","5",""
"3682","triangle","kihozi,bentaha,liog,kasadpan","kasadpan","n","4","html-keyboard-response","1020","n","kasadpan","true","",""
"1257.199999988079","","","","","4","html-slider-response","1021","","","","4",""
"2203","scissors","duga,mtawa,tanuri,suga","tanuri","j","4","html-keyboard-response","1022","j","tanuri","true","",""
"2168.8999999910593","","","","","4","html-slider-response","1023","","","","2",""
"3079","giraffe","daraja,mahitabo,jumatu,hangyo","mahitabo","v","4","html-keyboard-response","1024","n","hangyo","false","",""
"1252.7999999970198","","","","","4","html-slider-response","1025","","","","4",""
"3005","flower","tamasha,bega,lobo,usiku","bega","v","4","html-keyboard-response","1026","v","bega","true","",""
"1416.3999999910593","","","","","4","html-slider-response","1027","","","","4",""
"1863","candle","geza,gabi,farasi,kupanda","geza","f","4","html-keyboard-response","1028","f","geza","true","",""
"1374.2999999970198","","","","","4","html-slider-response","1029","","","","4",""
"3278","mother","kahawa,mbuzi,babaye,jokofu","babaye","j","4","html-keyboard-response","1030","f","kahawa","false","",""
"1509.9000000059605","","","","","4","html-slider-response","1031","","","","2",""
"2709","towel","tembo,pagpalit,funzi,pito","pagpalit","v","4","html-keyboard-response","1032","v","pagpalit","true","",""
"1431.3999999910593","","","","","4","html-slider-response","1033","","","","4",""
"4216","elephant","kito,petye,pagduol,suka","kito","f","4","html-keyboard-response","1034","f","kito","true","",""
"1633.1000000089407","","","","","4","html-slider-response","1035","","","","4",""
"3315","shelf","bungtod,pamahaw,kadaot,awit","pamahaw","v","4","html-keyboard-response","1036","f","bungtod","false","",""
"1368.8999999910593","","","","","4","html-slider-response","1037","","","","2",""
"1571","mosquito","isda,taras,martilyo,gutom","martilyo","j","4","html-keyboard-response","1038","j","martilyo","true","",""
"1298.5999999940395","","","","","4","html-slider-response","1039","","","","5",""
"2102","column","ufagio,pundok,dila,pala","ufagio","f","4","html-keyboard-response","1040","f","ufagio","true","",""
"1438.2999999970198","","","","","4","html-slider-response","1041","","","","4",""
"2250","pants","pintal,chuki,haki,hari","haki","j","4","html-keyboard-response","1042","j","haki","true","",""
"1681","","","","","4","html-slider-response","1043","","","","5",""
"2168","list","wingu,alizeti,kuzama,kaso","wingu","f","4","html-keyboard-response","1044","j","kuzama","false","",""
"1180.9000000059605","","","","","4","html-slider-response","1045","","","","4",""
"2023","bank","kudhibi,silingan,tualya,ofisi","silingan","v","4","html-keyboard-response","1046","v","silingan","true","",""
"1597.9000000059605","","","","","4","html-slider-response","1047","","","","5",""
"1684","clock","mbwa,kartasi,abang,osha","mbwa","f","4","html-keyboard-response","1048","f","mbwa","true","",""
"1592.5","","","","","4","html-slider-response","1049","","","","4",""
"2638","ceiling","kugita,maua,kawaida,rayna","maua","v","4","html-keyboard-response","1050","v","maua","true","",""
"1477.5999999940395","","","","","4","html-slider-response","1051","","","","5",""
"3573","train","itik,dakika,sayari,mungu","sayari","j","4","html-keyboard-response","1052","n","mungu","false","",""
"2806.7000000029802","","","","","4","html-slider-response","1053","","","","4",""
"2009","magazine","gundi,kiti,mchawi,bahandi","kiti","v","4","html-keyboard-response","1054","f","gundi","false","",""
"1850.9000000059605","","","","","4","html-slider-response","1055","","","","4",""
"1851","office","leso,hazini,yatima,kuna","leso","f","4","html-keyboard-response","1056","f","leso","true","",""
"2233.7999999970198","","","","","4","html-slider-response","1057","","","","4",""
"3970","wheel","punda,bafuni,tawo,baadaye","bafuni","v","4","html-keyboard-response","1058","f","punda","false","",""
"1218","","","","","4","html-slider-response","1059","","","","2",""
"1575","spoon","betri,pagsulod,nzuri,ngazi","pagsulod","v","4","html-keyboard-response","1060","v","pagsulod","true","",""
"1290.800000011921","","","","","4","html-slider-response","1061","","","","5",""
"2023","hammer","napakyas,mekno,kitovu,layag","napakyas","f","4","html-keyboard-response","1062","f","napakyas","true","",""
"1492.7000000029802","","","","","4","html-slider-response","1063","","","","4",""
"3634","cigar","ndugu,kuta,adhabu,mlango","adhabu","j","4","html-keyboard-response","1064","f","ndugu","false","",""
"1468.8999999910593","","","","","4","html-slider-response","1065","","","","2",""
"4347","shoe","nyeusi,uyoga,hatua,kama","uyoga","v","4","html-keyboard-response","1066","v","uyoga","true","",""
"2000.2999999970198","","","","","4","html-slider-response","1067","","","","2",""
"3495","list","alizeti,kuzama,kaso,wingu","wingu","n","5","html-keyboard-response","1069","j","kaso","false","",""
"1295.1000000089407","","","","","5","html-slider-response","1070","","","","2",""
"4193","number","shule,mundamo,kengele,choori","mundamo","v","5","html-keyboard-response","1071","n","choori","false","",""
"1219.3999999910593","","","","","5","html-slider-response","1072","","","","2",""
"1991","apple","ukame,estante,edad,kisu","kisu","n","5","html-keyboard-response","1073","f","ukame","false","",""
"1461.7000000029802","","","","","5","html-slider-response","1074","","","","4",""
"2195","knee","mvuke,kubale,bili,duka","duka","n","5","html-keyboard-response","1075","f","mvuke","false","",""
"1929.699999988079","","","","","5","html-slider-response","1076","","","","4",""
"2435","tooth","kijiko,uadui,pahiyum,kabalaka","kabalaka","n","5","html-keyboard-response","1077","n","kabalaka","true","",""
"1401","","","","","5","html-slider-response","1078","","","","5",""
"2718","berry","kofia,abogado,nogozi,kinywa","kofia","f","5","html-keyboard-response","1079","f","kofia","true","",""
"1415.3999999910593","","","","","5","html-slider-response","1080","","","","2",""
"2356","bridge","daima,sahani,ngono,panya","sahani","v","5","html-keyboard-response","1081","v","sahani","true","",""
"1904.4000000059605","","","","","5","html-slider-response","1082","","","","4",""
"1615","perfume","bino,katuyoan,sungura,ndogo","katuyoan","v","5","html-keyboard-response","1083","v","katuyoan","true","",""
"2165.6000000089407","","","","","5","html-slider-response","1084","","","","5",""
"1472","ladder","mashua,pangalan,mwanga,kamba","pangalan","v","5","html-keyboard-response","1085","v","pangalan","true","",""
"1196.7999999970198","","","","","5","html-slider-response","1086","","","","5",""
"2033","pants","pintal,haki,chuki,hari","haki","v","5","html-keyboard-response","1087","v","haki","true","",""
"1387.300000011921","","","","","5","html-slider-response","1088","","","","5",""
"1824","salmon","mzungu,seri,baharia,sensilyo","sensilyo","n","5","html-keyboard-response","1089","n","sensilyo","true","",""
"1307.9000000059605","","","","","5","html-slider-response","1090","","","","5",""
"1432","coffin","barua,tubag,kioo,hulma","kioo","j","5","html-keyboard-response","1091","j","kioo","true","",""
"1797","","","","","5","html-slider-response","1092","","","","5",""
"2018","park","bunifu,tambok,pwani,ihalas","bunifu","f","5","html-keyboard-response","1093","f","bunifu","true","",""
"1242.6000000089407","","","","","5","html-slider-response","1094","","","","4",""
"3026","giraffe","daraja,mahitabo,jumatu,hangyo","mahitabo","v","5","html-keyboard-response","1095","v","mahitabo","true","",""
"1265.2000000029802","","","","","5","html-slider-response","1096","","","","4",""
"4149","mirror","rangi,kanding,sulagma,furaha","sulagma","j","5","html-keyboard-response","1097","v","kanding","false","",""
"1503","","","","","5","html-slider-response","1098","","","","2",""
"4152","ceiling","kugita,kawaida,maua,rayna","maua","j","5","html-keyboard-response","1099","j","maua","true","",""
"2267.2000000029802","","","","","5","html-slider-response","1100","","","","5",""
"3347","marker","mapafu,salita,atay,maji","maji","n","5","html-keyboard-response","1101","v","salita","false","",""
"1296.8999999910593","","","","","5","html-slider-response","1102","","","","2",""
"2352","sock","ndoora,mamba,kimysa,mtirka","mamba","v","5","html-keyboard-response","1103","v","mamba","true","",""
"1619.7000000029802","","","","","5","html-slider-response","1104","","","","2",""
"1771","cop","bustani,jikoni,mechezo,bakus","mechezo","j","5","html-keyboard-response","1105","j","mechezo","true","",""
"1447.8999999910593","","","","","5","html-slider-response","1106","","","","5",""
"1850","gift","baba,pagtawag,nyange,baso","pagtawag","v","5","html-keyboard-response","1107","v","pagtawag","true","",""
"1170.0999999940395","","","","","5","html-slider-response","1108","","","","4",""
"2724","notebook","msitu,kila,mdudu,kemia","kemia","n","5","html-keyboard-response","1109","n","kemia","true","",""
"1415","","","","","5","html-slider-response","1110","","","","5",""
"1939","bank","kudhibi,silingan,tualya,ofisi","silingan","v","5","html-keyboard-response","1111","v","silingan","true","",""
"1464.4000000059605","","","","","5","html-slider-response","1112","","","","5",""
"3696","letter","filimbi,chuma,kifua,uhuru","kifua","j","5","html-keyboard-response","1113","v","chuma","false","",""
"1451.7000000029802","","","","","5","html-slider-response","1114","","","","4",""
"1625","candle","geza,gabi,farasi,kupanda","geza","f","5","html-keyboard-response","1115","f","geza","true","",""
"2282.2000000029802","","","","","5","html-slider-response","1116","","","","4",""
"1670","bread","dari,kaili,dizeli,bugas","dari","f","5","html-keyboard-response","1117","f","dari","true","",""
"1565.0999999940395","","","","","5","html-slider-response","1118","","","","5",""
"1668","snake","jansa,karon,mvringo,pagtukod","pagtukod","n","5","html-keyboard-response","1119","n","pagtukod","true","",""
"1456.0999999940395","","","","","5","html-slider-response","1120","","","","5",""
"3270","rose","singizi,mwanake,paghalad,amani","paghalad","j","5","html-keyboard-response","1121","j","paghalad","true","",""
"1991.5","","","","","5","html-slider-response","1122","","","","2",""
"2404","hill","matumbo,kushoto,kukimba,sweta","matumbo","f","5","html-keyboard-response","1123","f","matumbo","true","",""
"1386.2000000029802","","","","","5","html-slider-response","1124","","","","4",""
"2833","train","itik,dakika,sayari,mungu","sayari","j","5","html-keyboard-response","1125","v","dakika","false","",""
"1330","","","","","5","html-slider-response","1126","","","","4",""
"2161","shop","samaki,nopya,kerida,ndezu","samaki","f","5","html-keyboard-response","1127","f","samaki","true","",""
"1629.6000000089407","","","","","5","html-slider-response","1128","","","","4",""
"2262","nose","gubat,kopa,kidole,sehemu","sehemu","n","5","html-keyboard-response","1129","n","sehemu","true","",""
"1614.2000000029802","","","","","5","html-slider-response","1130","","","","2",""
"2455","boat","hamsi,pombe,agalon,kitanda","agalon","j","5","html-keyboard-response","1131","j","agalon","true","",""
"1493.2000000029802","","","","","5","html-slider-response","1132","","","","2",""
"1862","body","tindashan,nyundu,jibini,kununa","tindashan","f","5","html-keyboard-response","1133","f","tindashan","true","",""
"1342.7999999970198","","","","","5","html-slider-response","1134","","","","4",""
"1870","bed","kalipay,mapintas,haraka,starehe","mapintas","v","5","html-keyboard-response","1135","v","mapintas","true","",""
"1398.4000000059605","","","","","5","html-slider-response","1136","","","","4",""
"1734","squirrel","mahugaw,hofu,ukweli,kichwa","hofu","v","5","html-keyboard-response","1137","v","hofu","true","",""
"1573.8999999910593","","","","","5","html-slider-response","1138","","","","4",""
"2172","window","nanga,kweli,kujenga,umaga","kweli","v","5","html-keyboard-response","1139","n","umaga","false","",""
"2344.3999999910593","","","","","5","html-slider-response","1140","","","","5",""
"1900","bonfire","mwezi,mfuko,kusanya,goti","goti","n","5","html-keyboard-response","1141","n","goti","true","",""
"1983.4000000059605","","","","","5","html-slider-response","1142","","","","5",""
"3743","fish","bala,baho,buli,imani","buli","j","5","html-keyboard-response","1143","j","buli","true","",""
"1300.7999999970198","","","","","5","html-slider-response","1144","","","","2",""
"1328","cat","neyemba,paghukom,baki,akili","paghukom","v","5","html-keyboard-response","1145","v","paghukom","true","",""
"1644.2999999970198","","","","","5","html-slider-response","1146","","","","4",""
"2240","spider","bunyag,mkboa,kamwe,atop","kamwe","j","5","html-keyboard-response","1147","j","kamwe","true","",""
"1492.5999999940395","","","","","5","html-slider-response","1148","","","","5",""
"1673","eel","ishara,msumari,kunywa,kabuang","msumari","v","5","html-keyboard-response","1149","v","msumari","true","",""
"1330.0999999940395","","","","","5","html-slider-response","1150","","","","5",""
"1833","woman","bandari,bituin,pagtabon,kovuli","pagtabon","j","5","html-keyboard-response","1151","j","pagtabon","true","",""
"2042.4000000059605","","","","","5","html-slider-response","1152","","","","5",""
"2769","magazine","gundi,mchawi,kiti,bahandi","kiti","j","5","html-keyboard-response","1153","j","kiti","true","",""
"1586.5999999940395","","","","","5","html-slider-response","1154","","","","5",""
"2659","pudding","abug,aibu,mpishi,iring","aibu","v","5","html-keyboard-response","1155","v","aibu","true","",""
"1424.2999999970198","","","","","5","html-slider-response","1156","","","","4",""
"1531","lamp","daub,afya,bilaska,mbolea","afya","v","5","html-keyboard-response","1157","v","afya","true","",""
"1512.199999988079","","","","","5","html-slider-response","1158","","","","4",""
"1292","cave","kesho,ganti,maisha,nyundo","kesho","f","5","html-keyboard-response","1159","v","ganti","false","",""
"1239.5999999940395","","","","","5","html-slider-response","1160","","","","4",""
"3250","shoulder","mkuu,kelele,ndaniya,guruwe","mkuu","f","5","html-keyboard-response","1161","f","mkuu","true","",""
"1233","","","","","5","html-slider-response","1162","","","","4",""
"1663","stone","ulimwengu,mkasi,asili,wingi","wingi","n","5","html-keyboard-response","1163","v","mkasi","false","",""
"1093.5","","","","","5","html-slider-response","1164","","","","4",""
"2579","column","pundok,dila,ufagio,pala","ufagio","j","5","html-keyboard-response","1165","j","ufagio","true","",""
"1562.0999999940395","","","","","5","html-slider-response","1166","","","","5",""
"2492","page","wakala,ishiri,skina,wimbo","wimbo","n","5","html-keyboard-response","1167","n","wimbo","true","",""
"1745.5","","","","","5","html-slider-response","1168","","","","4",""
"2971","shoe","nyeusi,hatua,uyoga,kama","uyoga","j","5","html-keyboard-response","1169","n","kama","false","",""
"1610.199999988079","","","","","5","html-slider-response","1170","","","","4",""
"2686","clock","mbwa,kartasi,abang,osha","mbwa","f","5","html-keyboard-response","1171","f","mbwa","true","",""
"1431.5","","","","","5","html-slider-response","1172","","","","2",""
"1987","towel","tembo,funzi,pagpalit,pito","pagpalit","j","5","html-keyboard-response","1173","j","pagpalit","true","",""
"1449.2000000029802","","","","","5","html-slider-response","1174","","","","5",""
"1937","tomato","chupi,mvua,chupa,takatak","mvua","v","5","html-keyboard-response","1175","v","mvua","true","",""
"1252","","","","","5","html-slider-response","1176","","","","5",""
"1611","bucket","baga,kiatu,ijayo,init","kiatu","v","5","html-keyboard-response","1177","v","kiatu","true","",""
"1594.0999999940395","","","","","5","html-slider-response","1178","","","","4",""
"1402","finger","simu,moyo,sufuria,lima","moyo","v","5","html-keyboard-response","1179","v","moyo","true","",""
"1450.300000011921","","","","","5","html-slider-response","1180","","","","4",""
"2687","mother","kahawa,mbuzi,jokofu,babaye","babaye","n","5","html-keyboard-response","1181","n","babaye","true","",""
"1844.5","","","","","5","html-slider-response","1182","","","","5",""
"1534","human","bado,tinapay,kikapu,punguza","tinapay","v","5","html-keyboard-response","1183","v","tinapay","true","",""
"1237.2000000029802","","","","","5","html-slider-response","1184","","","","5",""
"1864","sun","bendi,luha,basi,uongo","basi","j","5","html-keyboard-response","1185","j","basi","true","",""
"1628.9000000059605","","","","","5","html-slider-response","1186","","","","5",""
"2995","fork","baboy,paghago,mgonjwa,gorisi","mgonjwa","j","5","html-keyboard-response","1187","j","mgonjwa","true","",""
"2136.0999999940395","","","","","5","html-slider-response","1188","","","","4",""
"2428","donkey","bloke,elfu,lalake,rombus","elfu","v","5","html-keyboard-response","1189","v","elfu","true","",""
"1600.5999999940395","","","","","5","html-slider-response","1190","","","","4",""
"1962","wolf","kaburi,ndizi,lugha,mchuzi","lugha","j","5","html-keyboard-response","1191","j","lugha","true","",""
"1594","","","","","5","html-slider-response","1192","","","","5",""
"2523","cigar","ndugu,kuta,mlango,adhabu","adhabu","n","5","html-keyboard-response","1193","n","adhabu","true","",""
"1384.9000000059605","","","","","5","html-slider-response","1194","","","","5",""
"1725","olive","bata,siagi,jiwe,welder","jiwe","j","5","html-keyboard-response","1195","j","jiwe","true","",""
"1574","","","","","5","html-slider-response","1196","","","","5",""
"2106","key","miaka,goma,chombo,ahos","chombo","j","5","html-keyboard-response","1197","v","goma","false","",""
"1386.0999999940395","","","","","5","html-slider-response","1198","","","","5",""
"1872","door","tena,soko,surali,nyota","surali","j","5","html-keyboard-response","1199","j","surali","true","",""
"1507.8999999910593","","","","","5","html-slider-response","1200","","","","5",""
"3300","wheel","bafuni,punda,tawo,baadaye","bafuni","f","5","html-keyboard-response","1201","f","bafuni","true","",""
"2887.5999999940395","","","","","5","html-slider-response","1202","","","","4",""
"2529","basket","kumba,kumbuka,utepe,hasira","kumba","f","5","html-keyboard-response","1203","f","kumba","true","",""
"1290.9000000059605","","","","","5","html-slider-response","1204","","","","4",""
"1802","elephant","kito,petye,pagduol,suka","kito","f","5","html-keyboard-response","1205","f","kito","true","",""
"1712.5","","","","","5","html-slider-response","1206","","","","5",""
"3196","office","hazini,leso,yatima,kuna","leso","v","5","html-keyboard-response","1207","v","leso","true","",""
"1638.5","","","","","5","html-slider-response","1208","","","","4",""
"1725","music","mraba,baiski,mageho,tumbo","baiski","v","5","html-keyboard-response","1209","v","baiski","true","",""
"1157.199999988079","","","","","5","html-slider-response","1210","","","","5",""
"2645","tissue","lamigas,kisiwa,ugomvi,katika","ugomvi","j","5","html-keyboard-response","1211","j","ugomvi","true","",""
"1543.1000000089407","","","","","5","html-slider-response","1212","","","","4",""
"2161","curtain","mchanga,lisud,bulwawan,chubani","mchanga","f","5","html-keyboard-response","1213","n","chubani","false","",""
"1528.800000011921","","","","","5","html-slider-response","1214","","","","5",""
"3040","flag","ndege,mkate,kawa,trekta","trekta","n","5","html-keyboard-response","1215","j","kawa","false","",""
"1564.5","","","","","5","html-slider-response","1216","","","","4",""
"2472","dog","lubi,washia,kalamu,bahari","bahari","n","5","html-keyboard-response","1217","n","bahari","true","",""
"1332.2999999970198","","","","","5","html-slider-response","1218","","","","2",""
"1835","cup","dagat,matumai,shimoni,jeraha","matumai","v","5","html-keyboard-response","1219","v","matumai","true","",""
"1306.7000000029802","","","","","5","html-slider-response","1220","","","","4",""
"1695","sheet","juuya,watu,kamantis,bililhon","bililhon","n","5","html-keyboard-response","1221","v","watu","false","",""
"1174.5","","","","","5","html-slider-response","1222","","","","4",""
"2310","spoon","betri,nzuri,ngazi,pagsulod","pagsulod","n","5","html-keyboard-response","1223","v","nzuri","false","",""
"1237.7999999970198","","","","","5","html-slider-response","1224","","","","4",""
"2707","flower","tamasha,lobo,usiku,bega","bega","n","5","html-keyboard-response","1225","v","lobo","false","",""
"1368.2999999970198","","","","","5","html-slider-response","1226","","","","4",""
"1726","picture","silya,kubwa,chaki,asin","kubwa","v","5","html-keyboard-response","1227","f","silya","false","",""
"1494.2000000029802","","","","","5","html-slider-response","1228","","","","4",""
"2657","puppet","napulo,lamok,mazishi,godoro","mazishi","j","5","html-keyboard-response","1229","j","mazishi","true","",""
"1587.4000000059605","","","","","5","html-slider-response","1230","","","","2",""
"2095","banana","kasamok,hagdan,kazi,twai","kazi","j","5","html-keyboard-response","1231","j","kazi","true","",""
"1469.300000011921","","","","","5","html-slider-response","1232","","","","2",""
"2001","book","kuhesa,picha,mali,mara","mali","j","5","html-keyboard-response","1233","j","mali","true","",""
"1826.2000000029802","","","","","5","html-slider-response","1234","","","","5",""
"3502","triangle","kihozi,bentaha,liog,kasadpan","kasadpan","n","5","html-keyboard-response","1235","n","kasadpan","true","",""
"1326.7000000029802","","","","","5","html-slider-response","1236","","","","5",""
"4763","poster","nchi,madungog,fedha,kasuko","madungog","v","5","html-keyboard-response","1237","v","madungog","true","",""
"1649","","","","","5","html-slider-response","1238","","","","4",""
"2288","box","kuacha,adui,rafiki,kitande","adui","v","5","html-keyboard-response","1239","v","adui","true","",""
"2996.4000000059605","","","","","5","html-slider-response","1240","","","","4",""
"1393","mosquito","isda,martilyo,taras,gutom","martilyo","v","5","html-keyboard-response","1241","v","martilyo","true","",""
"1530.2999999970198","","","","","5","html-slider-response","1242","","","","5",""
"4536","shelf","bungtod,kadaot,awit,pamahaw","pamahaw","n","5","html-keyboard-response","1243","n","pamahaw","true","",""
"1747.2000000029802","","","","","5","html-slider-response","1244","","","","5",""
"2835","scissors","duga,mtawa,suga,tanuri","tanuri","n","5","html-keyboard-response","1245","n","tanuri","true","",""
"1313.4000000059605","","","","","5","html-slider-response","1246","","","","5",""
"3614","hammer","mekno,kitovu,napakyas,layag","napakyas","j","5","html-keyboard-response","1247","j","napakyas","true","",""
"2014","","","","","5","html-slider-response","1248","","","","4",""
