"rt","en_word","options","swa_word","correct_answer","phase","trial_type","trial_index","input_answer","input_word","accuracy","certainty","amt_choices"
"3008","bonfire","mwezi,mfuko,kusanya,goti","goti","n","2","html-keyboard-response","106","n","goti","true","",""
"2015.7999999821186","","","","","2","html-slider-response","107","","","","4",""
"2849","flower","bega,tamasha,lobo,usiku","bega","f","2","html-keyboard-response","108","f","bega","true","",""
"1494.9000000059605","","","","","2","html-slider-response","109","","","","1",""
"1798","column","ufagio,pundok,dila,pala","ufagio","f","2","html-keyboard-response","110","f","ufagio","true","",""
"1867.300000011921","","","","","2","html-slider-response","111","","","","4",""
"2537","music","mraba,mageho,tumbo,baiski","baiski","n","2","html-keyboard-response","112","n","baiski","true","",""
"1242.9000000059605","","","","","2","html-slider-response","113","","","","2",""
"1816","spider","bunyag,mkboa,kamwe,atop","kamwe","j","2","html-keyboard-response","114","j","kamwe","true","",""
"1651.699999988079","","","","","2","html-slider-response","115","","","","5",""
"2551","fork","mgonjwa,baboy,paghago,gorisi","mgonjwa","f","2","html-keyboard-response","116","f","mgonjwa","true","",""
"1298.9000000059605","","","","","2","html-slider-response","117","","","","1",""
"2088","mosquito","isda,taras,martilyo,gutom","martilyo","j","2","html-keyboard-response","118","j","martilyo","true","",""
"1432.5999999940395","","","","","2","html-slider-response","119","","","","5",""
"2017","banana","kasamok,hagdan,twai,kazi","kazi","n","2","html-keyboard-response","120","v","hagdan","false","",""
"1261.5999999940395","","","","","2","html-slider-response","121","","","","2",""
"3035","cup","dagat,shimoni,jeraha,matumai","matumai","n","2","html-keyboard-response","122","n","matumai","true","",""
"1481.800000011921","","","","","2","html-slider-response","123","","","","1",""
"1936","shop","nopya,kerida,samaki,ndezu","samaki","j","2","html-keyboard-response","124","j","samaki","true","",""
"1428.5","","","","","2","html-slider-response","125","","","","1",""
"2414","elephant","petye,kito,pagduol,suka","kito","v","2","html-keyboard-response","126","j","pagduol","false","",""
"952.1999999880791","","","","","2","html-slider-response","127","","","","2",""
"2119","bucket","baga,ijayo,init,kiatu","kiatu","n","2","html-keyboard-response","128","v","ijayo","false","",""
"1270.5","","","","","2","html-slider-response","129","","","","2",""
"1525","book","kuhesa,picha,mara,mali","mali","n","2","html-keyboard-response","130","f","kuhesa","false","",""
"1061.5","","","","","2","html-slider-response","131","","","","2",""
"2118","mirror","rangi,kanding,furaha,sulagma","sulagma","n","2","html-keyboard-response","132","n","sulagma","true","",""
"1502.2999999821186","","","","","2","html-slider-response","133","","","","4",""
"2293","office","leso,hazini,yatima,kuna","leso","f","2","html-keyboard-response","134","v","hazini","false","",""
"1212.199999988079","","","","","2","html-slider-response","135","","","","1",""
"6635","body","nyundu,jibini,kununa,tindashan","tindashan","n","2","html-keyboard-response","136","n","tindashan","true","",""
"1086.199999988079","","","","","2","html-slider-response","137","","","","2",""
"2300","perfume","katuyoan,bino,sungura,ndogo","katuyoan","f","2","html-keyboard-response","138","j","sungura","false","",""
"1684.6000000238419","","","","","2","html-slider-response","139","","","","1",""
"2000","olive","jiwe,bata,siagi,welder","jiwe","f","2","html-keyboard-response","140","f","jiwe","true","",""
"1101.2000000178814","","","","","2","html-slider-response","141","","","","2",""
"1772","magazine","gundi,mchawi,kiti,bahandi","kiti","j","2","html-keyboard-response","142","n","bahandi","false","",""
"1178.5","","","","","2","html-slider-response","143","","","","1",""
"2521","bread","kaili,dizeli,bugas,dari","dari","n","2","html-keyboard-response","144","j","bugas","false","",""
"1821.9000000059605","","","","","2","html-slider-response","145","","","","2",""
"2762","cave","kesho,ganti,maisha,nyundo","kesho","f","2","html-keyboard-response","146","f","kesho","true","",""
"1374.2999999821186","","","","","2","html-slider-response","147","","","","1",""
"1731","ladder","mashua,mwanga,kamba,pangalan","pangalan","n","2","html-keyboard-response","148","n","pangalan","true","",""
"1180.800000011921","","","","","2","html-slider-response","149","","","","5",""
"2269","human","bado,kikapu,punguza,tinapay","tinapay","n","2","html-keyboard-response","150","n","tinapay","true","",""
"1113.5","","","","","2","html-slider-response","151","","","","5",""
"2373","clock","kartasi,abang,mbwa,osha","mbwa","j","2","html-keyboard-response","152","j","mbwa","true","",""
"1213","","","","","2","html-slider-response","153","","","","5",""
"2227","shelf","bungtod,kadaot,pamahaw,awit","pamahaw","j","2","html-keyboard-response","154","v","kadaot","false","",""
"1098.3999999761581","","","","","2","html-slider-response","155","","","","1",""
"1540","salmon","mzungu,seri,sensilyo,baharia","sensilyo","j","2","html-keyboard-response","156","j","sensilyo","true","",""
"1192.2999999821186","","","","","2","html-slider-response","157","","","","5",""
"3006","coffin","kioo,barua,tubag,hulma","kioo","f","2","html-keyboard-response","158","f","kioo","true","",""
"2194.300000011921","","","","","2","html-slider-response","159","","","","2",""
"2861","notebook","kemia,msitu,kila,mdudu","kemia","f","2","html-keyboard-response","160","n","mdudu","false","",""
"1333.699999988079","","","","","2","html-slider-response","161","","","","1",""
"1673","shoulder","kelele,ndaniya,mkuu,guruwe","mkuu","j","2","html-keyboard-response","162","j","mkuu","true","",""
"2082.4000000059605","","","","","2","html-slider-response","163","","","","4",""
"2027","park","tambok,bunifu,pwani,ihalas","bunifu","v","2","html-keyboard-response","164","v","bunifu","true","",""
"1281.800000011921","","","","","2","html-slider-response","165","","","","2",""
"3227","number","shule,kengele,mundamo,choori","mundamo","j","2","html-keyboard-response","166","j","mundamo","true","",""
"1526.9000000059605","","","","","2","html-slider-response","167","","","","1",""
"1593","apple","ukame,kisu,estante,edad","kisu","v","2","html-keyboard-response","168","v","kisu","true","",""
"1169.3999999761581","","","","","2","html-slider-response","169","","","","4",""
"2374","letter","filimbi,chuma,kifua,uhuru","kifua","j","2","html-keyboard-response","170","v","chuma","false","",""
"990.0999999940395","","","","","2","html-slider-response","171","","","","2",""
"2279","eel","ishara,kunywa,msumari,kabuang","msumari","j","2","html-keyboard-response","172","j","msumari","true","",""
"1297.699999988079","","","","","2","html-slider-response","173","","","","2",""
"1692","cop","mechezo,bustani,jikoni,bakus","mechezo","f","2","html-keyboard-response","174","v","bustani","false","",""
"1450.9000000059605","","","","","2","html-slider-response","175","","","","1",""
"1561","wolf","kaburi,lugha,ndizi,mchuzi","lugha","v","2","html-keyboard-response","176","f","kaburi","false","",""
"1131.5999999940395","","","","","2","html-slider-response","177","","","","1",""
"2447","squirrel","mahugaw,ukweli,kichwa,hofu","hofu","n","2","html-keyboard-response","178","n","hofu","true","",""
"1063.0999999940395","","","","","2","html-slider-response","179","","","","1",""
"2855","nose","sehemu,gubat,kopa,kidole","sehemu","f","2","html-keyboard-response","180","f","sehemu","true","",""
"1612.300000011921","","","","","2","html-slider-response","181","","","","1",""
"4250","sock","ndoora,mamba,kimysa,mtirka","mamba","v","2","html-keyboard-response","182","f","ndoora","false","",""
"1318","","","","","2","html-slider-response","183","","","","1",""
"2528","bank","kudhibi,tualya,ofisi,silingan","silingan","n","2","html-keyboard-response","184","j","ofisi","false","",""
"1165.5","","","","","2","html-slider-response","185","","","","1",""
"2201","donkey","bloke,lalake,rombus,elfu","elfu","n","2","html-keyboard-response","186","n","elfu","true","",""
"1661.5999999940395","","","","","2","html-slider-response","187","","","","4",""
"3213","poster","nchi,madungog,fedha,kasuko","madungog","v","2","html-keyboard-response","188","v","madungog","true","",""
"1091.3999999761581","","","","","2","html-slider-response","189","","","","2",""
"2316","puppet","napulo,lamok,mazishi,godoro","mazishi","j","2","html-keyboard-response","190","f","napulo","false","",""
"1137.5999999940395","","","","","2","html-slider-response","191","","","","1",""
"2354","hill","kushoto,matumbo,kukimba,sweta","matumbo","v","2","html-keyboard-response","192","v","matumbo","true","",""
"1060.5","","","","","2","html-slider-response","193","","","","2",""
"2334","tooth","kijiko,uadui,kabalaka,pahiyum","kabalaka","j","2","html-keyboard-response","194","n","pahiyum","false","",""
"1243.4000000059605","","","","","2","html-slider-response","195","","","","1",""
"3574","woman","bandari,bituin,pagtabon,kovuli","pagtabon","j","2","html-keyboard-response","196","j","pagtabon","true","",""
"1154.199999988079","","","","","2","html-slider-response","197","","","","2",""
"2589","wheel","bafuni,punda,tawo,baadaye","bafuni","f","2","html-keyboard-response","198","f","bafuni","true","",""
"994.5","","","","","2","html-slider-response","199","","","","1",""
"3276","mother","kahawa,mbuzi,babaye,jokofu","babaye","j","2","html-keyboard-response","200","j","babaye","true","",""
"1359.7000000178814","","","","","2","html-slider-response","201","","","","1",""
"3272","bed","kalipay,haraka,starehe,mapintas","mapintas","n","2","html-keyboard-response","202","v","haraka","false","",""
"1043.4000000059605","","","","","2","html-slider-response","203","","","","2",""
"3777","key","miaka,chombo,goma,ahos","chombo","v","2","html-keyboard-response","204","n","ahos","false","",""
"1325.5","","","","","2","html-slider-response","205","","","","1",""
"2537","page","wimbo,wakala,ishiri,skina","wimbo","f","2","html-keyboard-response","206","f","wimbo","true","",""
"1190.5999999940395","","","","","2","html-slider-response","207","","","","4",""
"2212","pants","haki,pintal,chuki,hari","haki","f","2","html-keyboard-response","208","n","hari","false","",""
"1095.199999988079","","","","","2","html-slider-response","209","","","","1",""
"2635","sun","basi,bendi,luha,uongo","basi","f","2","html-keyboard-response","210","n","uongo","false","",""
"1190.9000000059605","","","","","2","html-slider-response","211","","","","1",""
"2060","finger","simu,sufuria,lima,moyo","moyo","n","2","html-keyboard-response","212","n","moyo","true","",""
"1020.1999999880791","","","","","2","html-slider-response","213","","","","1",""
"2450","shoe","uyoga,nyeusi,hatua,kama","uyoga","f","2","html-keyboard-response","214","f","uyoga","true","",""
"1715.0999999940395","","","","","2","html-slider-response","215","","","","1",""
"2176","giraffe","mahitabo,daraja,jumatu,hangyo","mahitabo","f","2","html-keyboard-response","216","v","daraja","false","",""
"1222.199999988079","","","","","2","html-slider-response","217","","","","1",""
"2815","dog","bahari,lubi,washia,kalamu","bahari","f","2","html-keyboard-response","218","f","bahari","true","",""
"1725.800000011921","","","","","2","html-slider-response","219","","","","1",""
"2176","box","kuacha,rafiki,kitande,adui","adui","n","2","html-keyboard-response","220","v","rafiki","false","",""
"1151.5999999940395","","","","","2","html-slider-response","221","","","","1",""
"2843","scissors","duga,mtawa,tanuri,suga","tanuri","j","2","html-keyboard-response","222","v","mtawa","false","",""
"1225.5","","","","","2","html-slider-response","223","","","","1",""
"2693","cat","neyemba,baki,akili,paghukom","paghukom","n","2","html-keyboard-response","224","n","paghukom","true","",""
"1070.5","","","","","2","html-slider-response","225","","","","1",""
"2312","basket","kumbuka,utepe,kumba,hasira","kumba","j","2","html-keyboard-response","226","j","kumba","true","",""
"2040.800000011921","","","","","2","html-slider-response","227","","","","5",""
"3803","snake","jansa,pagtukod,karon,mvringo","pagtukod","v","2","html-keyboard-response","228","v","pagtukod","true","",""
"1462.800000011921","","","","","2","html-slider-response","229","","","","4",""
"2818","gift","baba,nyange,baso,pagtawag","pagtawag","n","2","html-keyboard-response","230","n","pagtawag","true","",""
"1444.7999999821186","","","","","2","html-slider-response","231","","","","5",""
"2033","train","itik,dakika,mungu,sayari","sayari","n","2","html-keyboard-response","232","v","dakika","false","",""
"976.5","","","","","2","html-slider-response","233","","","","2",""
"2645","pudding","abug,aibu,mpishi,iring","aibu","v","2","html-keyboard-response","234","n","iring","false","",""
"1298.5999999940395","","","","","2","html-slider-response","235","","","","1",""
"1790","tomato","mvua,chupi,chupa,takatak","mvua","f","2","html-keyboard-response","236","v","chupi","false","",""
"1387.699999988079","","","","","2","html-slider-response","237","","","","1",""
"2284","stone","wingi,ulimwengu,mkasi,asili","wingi","f","2","html-keyboard-response","238","n","asili","false","",""
"1150.300000011921","","","","","2","html-slider-response","239","","","","1",""
"1997","hammer","mekno,napakyas,kitovu,layag","napakyas","v","2","html-keyboard-response","240","v","napakyas","true","",""
"1078.300000011921","","","","","2","html-slider-response","241","","","","1",""
"2269","knee","mvuke,duka,kubale,bili","duka","v","2","html-keyboard-response","242","n","bili","false","",""
"1316.7000000178814","","","","","2","html-slider-response","243","","","","1",""
"2325","ceiling","kugita,maua,kawaida,rayna","maua","v","2","html-keyboard-response","244","n","rayna","false","",""
"1175.5","","","","","2","html-slider-response","245","","","","1",""
"2138","spoon","betri,pagsulod,nzuri,ngazi","pagsulod","v","2","html-keyboard-response","246","v","pagsulod","true","",""
"1043.0999999940395","","","","","2","html-slider-response","247","","","","2",""
"3631","marker","mapafu,salita,atay,maji","maji","n","2","html-keyboard-response","248","f","mapafu","false","",""
"1020.4000000059605","","","","","2","html-slider-response","249","","","","1",""
"3034","candle","gabi,farasi,kupanda,geza","geza","n","2","html-keyboard-response","250","v","farasi","false","",""
"1502.7999999821186","","","","","2","html-slider-response","251","","","","1",""
"2696","tissue","ugomvi,lamigas,kisiwa,katika","ugomvi","f","2","html-keyboard-response","252","n","katika","false","",""
"1089.300000011921","","","","","2","html-slider-response","253","","","","2",""
"2323","bridge","daima,ngono,panya,sahani","sahani","n","2","html-keyboard-response","254","n","sahani","true","",""
"947.1999999880791","","","","","2","html-slider-response","255","","","","2",""
"2575","berry","abogado,nogozi,kinywa,kofia","kofia","n","2","html-keyboard-response","256","n","kofia","true","",""
"1451.6000000238419","","","","","2","html-slider-response","257","","","","1",""
"3224","triangle","kihozi,kasadpan,bentaha,liog","kasadpan","v","2","html-keyboard-response","258","v","kasadpan","true","",""
"1325.7000000178814","","","","","2","html-slider-response","259","","","","1",""
"2549","door","surali,tena,soko,nyota","surali","f","2","html-keyboard-response","260","f","surali","true","",""
"1070.699999988079","","","","","2","html-slider-response","261","","","","1",""
"2393","fish","bala,baho,imani,buli","buli","n","2","html-keyboard-response","262","n","buli","true","",""
"999.8999999761581","","","","","2","html-slider-response","263","","","","1",""
"2065","curtain","mchanga,lisud,bulwawan,chubani","mchanga","f","2","html-keyboard-response","264","f","mchanga","true","",""
"1138.7000000178814","","","","","2","html-slider-response","265","","","","1",""
"2327","flag","ndege,trekta,mkate,kawa","trekta","v","2","html-keyboard-response","266","f","ndege","false","",""
"2031.5","","","","","2","html-slider-response","267","","","","1",""
"3216","boat","hamsi,agalon,pombe,kitanda","agalon","v","2","html-keyboard-response","268","j","pombe","false","",""
"1731.0999999940395","","","","","2","html-slider-response","269","","","","1",""
"2781","rose","singizi,paghalad,mwanake,amani","paghalad","v","2","html-keyboard-response","270","v","paghalad","true","",""
"1017.0999999940395","","","","","2","html-slider-response","271","","","","1",""
"2744","lamp","afya,daub,bilaska,mbolea","afya","f","2","html-keyboard-response","272","j","bilaska","false","",""
"1258.3999999761581","","","","","2","html-slider-response","273","","","","1",""
"1844","cigar","ndugu,kuta,adhabu,mlango","adhabu","j","2","html-keyboard-response","274","f","ndugu","false","",""
"1374.7000000178814","","","","","2","html-slider-response","275","","","","1",""
"2229","list","alizeti,wingu,kuzama,kaso","wingu","v","2","html-keyboard-response","276","v","wingu","true","",""
"1451.7000000178814","","","","","2","html-slider-response","277","","","","2",""
"4800","sheet","juuya,watu,bililhon,kamantis","bililhon","j","2","html-keyboard-response","278","j","bililhon","true","",""
"1124.0999999940395","","","","","2","html-slider-response","279","","","","1",""
"2198","picture","silya,chaki,kubwa,asin","kubwa","j","2","html-keyboard-response","280","v","chaki","false","",""
"1004.6999999880791","","","","","2","html-slider-response","281","","","","1",""
"2721","towel","pagpalit,tembo,funzi,pito","pagpalit","f","2","html-keyboard-response","282","f","pagpalit","true","",""
"1463.6000000238419","","","","","2","html-slider-response","283","","","","1",""
"2019","window","nanga,kweli,kujenga,umaga","kweli","v","2","html-keyboard-response","284","v","kweli","true","",""
"1081.1000000238419","","","","","2","html-slider-response","285","","","","1",""
"3801","box","adui,kuacha,rafiki,kitande","adui","f","3","html-keyboard-response","293","j","rafiki","false","","4"
"2834.800000011921","","","","","3","html-slider-response","294","","","","1",""
"2126","","","","","3","html-keyboard-response","295","","","","",""
"2048","pants","pintal,chuki,hari,haki","haki","n","3","html-keyboard-response","296","v","chuki","false","","4"
"1220.7999999821186","","","","","3","html-slider-response","297","","","","1",""
"1019","","","","","3","html-keyboard-response","298","","","","",""
"3711","cup","dagat,shimoni,matumai,jeraha","matumai","j","3","html-keyboard-response","299","f","dagat","false","","4"
"1071.2999999821186","","","","","3","html-slider-response","300","","","","1",""
"962","","","","","3","html-keyboard-response","301","","","","",""
"2801","triangle","kihozi,bentaha,kasadpan,liog","kasadpan","j","3","html-keyboard-response","302","j","kasadpan","true","","4"
"1127.5999999940395","","","","","3","html-slider-response","303","","","","1",""
"1139","","","","","3","html-keyboard-response","304","","","","",""
"2995","curtain","lisud,bulwawan,chubani,mchanga","mchanga","n","3","html-keyboard-response","305","n","mchanga","true","","4"
"1552.8999999761581","","","","","3","html-slider-response","306","","","","2",""
"821","","","","","3","html-keyboard-response","307","","","","",""
"2261","clock","kartasi,abang,osha,mbwa","mbwa","n","3","html-keyboard-response","308","n","mbwa","true","","4"
"1098.5","","","","","3","html-slider-response","309","","","","5",""
"583","","","","","3","html-keyboard-response","310","","","","",""
"3149","mirror","sulagma,rangi,kanding,furaha","sulagma","f","3","html-keyboard-response","311","v","rangi","false","","4"
"1134.2000000178814","","","","","3","html-slider-response","312","","","","1",""
"1348","","","","","3","html-keyboard-response","313","","","","",""
"1563","coffin","barua,kioo,tubag,hulma","kioo","v","3","html-keyboard-response","314","v","kioo","true","","1"
"1306.300000011921","","","","","3","html-slider-response","315","","","","5",""
"595","","","","","3","html-keyboard-response","316","","","","",""
"2319","magazine","gundi,kiti,mchawi,bahandi","kiti","v","3","html-keyboard-response","317","j","mchawi","false","","4"
"1205.699999988079","","","","","3","html-slider-response","318","","","","1",""
"829","","","","","3","html-keyboard-response","319","","","","",""
"1294","column","pundok,dila,pala,ufagio","ufagio","n","3","html-keyboard-response","320","n","ufagio","true","","1"
"2238.7999999821186","","","","","3","html-slider-response","321","","","","5",""
"585","","","","","3","html-keyboard-response","322","","","","",""
"2539","number","shule,kengele,mundamo,choori","mundamo","j","3","html-keyboard-response","323","n","choori","false","","4"
"1106.5","","","","","3","html-slider-response","324","","","","1",""
"805","","","","","3","html-keyboard-response","325","","","","",""
"1959","rose","paghalad,singizi,mwanake,amani","paghalad","f","3","html-keyboard-response","326","v","singizi","false","","4"
"1337.5","","","","","3","html-slider-response","327","","","","1",""
"941","","","","","3","html-keyboard-response","328","","","","",""
"5239","eel","msumari,ishara,kunywa,kabuang","msumari","f","3","html-keyboard-response","329","j","kunywa","false","","4"
"1198.2999999821186","","","","","3","html-slider-response","330","","","","1",""
"840","","","","","3","html-keyboard-response","331","","","","",""
"3133","gift","baba,nyange,pagtawag,baso","pagtawag","j","3","html-keyboard-response","332","j","pagtawag","true","","4"
"1725.5999999940395","","","","","3","html-slider-response","333","","","","2",""
"967","","","","","3","html-keyboard-response","334","","","","",""
"1251","apple","ukame,estante,edad,kisu","kisu","n","3","html-keyboard-response","335","n","kisu","true","","1"
"1535.0999999940395","","","","","3","html-slider-response","336","","","","5",""
"446","","","","","3","html-keyboard-response","337","","","","",""
"1018","wheel","bafuni,punda,tawo,baadaye","bafuni","f","3","html-keyboard-response","338","f","bafuni","true","","1"
"1720.6000000238419","","","","","3","html-slider-response","339","","","","5",""
"434","","","","","3","html-keyboard-response","340","","","","",""
"1783","knee","mvuke,kubale,duka,bili","duka","j","3","html-keyboard-response","341","n","bili","false","","4"
"1292.7999999821186","","","","","3","html-slider-response","342","","","","1",""
"674","","","","","3","html-keyboard-response","343","","","","",""
"1124","basket","kumbuka,utepe,hasira,kumba","kumba","n","3","html-keyboard-response","344","n","kumba","true","","1"
"990.2999999821186","","","","","3","html-slider-response","345","","","","5",""
"470","","","","","3","html-keyboard-response","346","","","","",""
"2517","park","tambok,pwani,ihalas,bunifu","bunifu","n","3","html-keyboard-response","347","n","bunifu","true","","4"
"1600.3999999761581","","","","","3","html-slider-response","348","","","","2",""
"571","","","","","3","html-keyboard-response","349","","","","",""
"2938","finger","simu,moyo,sufuria,lima","moyo","v","3","html-keyboard-response","350","f","simu","false","","4"
"1119.5","","","","","3","html-slider-response","351","","","","1",""
"696","","","","","3","html-keyboard-response","352","","","","",""
"2077","boat","hamsi,pombe,agalon,kitanda","agalon","j","3","html-keyboard-response","353","n","kitanda","false","","4"
"1057.4000000059605","","","","","3","html-slider-response","354","","","","1",""
"984","","","","","3","html-keyboard-response","355","","","","",""
"2995","hill","kushoto,kukimba,sweta,matumbo","matumbo","n","3","html-keyboard-response","356","n","matumbo","true","","4"
"1292.8999999761581","","","","","3","html-slider-response","357","","","","2",""
"843","","","","","3","html-keyboard-response","358","","","","",""
"1940","train","itik,dakika,sayari,mungu","sayari","j","3","html-keyboard-response","359","j","sayari","true","","4"
"1148.4000000059605","","","","","3","html-slider-response","360","","","","1",""
"716","","","","","3","html-keyboard-response","361","","","","",""
"2345","wolf","kaburi,lugha,ndizi,mchuzi","lugha","v","3","html-keyboard-response","362","v","lugha","true","","4"
"1186.800000011921","","","","","3","html-slider-response","363","","","","1",""
"983","","","","","3","html-keyboard-response","364","","","","",""
"1701","snake","jansa,karon,pagtukod,mvringo","pagtukod","j","3","html-keyboard-response","365","j","pagtukod","true","","4"
"1023","","","","","3","html-slider-response","366","","","","5",""
"432","","","","","3","html-keyboard-response","367","","","","",""
"2350","tooth","kabalaka,kijiko,uadui,pahiyum","kabalaka","f","3","html-keyboard-response","368","v","kijiko","false","","4"
"2570.0999999940395","","","","","3","html-slider-response","369","","","","1",""
"1008","","","","","3","html-keyboard-response","370","","","","",""
"3951","notebook","kemia,msitu,kila,mdudu","kemia","f","3","html-keyboard-response","371","v","msitu","false","","4"
"1346.199999988079","","","","","3","html-slider-response","372","","","","1",""
"728","","","","","3","html-keyboard-response","373","","","","",""
"1703","flag","ndege,mkate,kawa,trekta","trekta","n","3","html-keyboard-response","374","f","ndege","false","","4"
"1145.5999999940395","","","","","3","html-slider-response","375","","","","1",""
"879","","","","","3","html-keyboard-response","376","","","","",""
"1776","squirrel","mahugaw,ukweli,hofu,kichwa","hofu","j","3","html-keyboard-response","377","f","mahugaw","false","","4"
"1039.5999999940395","","","","","3","html-slider-response","378","","","","2",""
"466","","","","","3","html-keyboard-response","379","","","","",""
"2475","door","surali,tena,soko,nyota","surali","f","3","html-keyboard-response","380","f","surali","true","","4"
"1735.7999999821186","","","","","3","html-slider-response","381","","","","2",""
"620","","","","","3","html-keyboard-response","382","","","","",""
"1694","salmon","mzungu,seri,baharia,sensilyo","sensilyo","n","3","html-keyboard-response","383","n","sensilyo","true","","4"
"1112.699999988079","","","","","3","html-slider-response","384","","","","5",""
"381","","","","","3","html-keyboard-response","385","","","","",""
"1673","shoulder","kelele,mkuu,ndaniya,guruwe","mkuu","v","3","html-keyboard-response","386","v","mkuu","true","","4"
"1326.4000000059605","","","","","3","html-slider-response","387","","","","5",""
"813","","","","","3","html-keyboard-response","388","","","","",""
"4212","lamp","daub,bilaska,afya,mbolea","afya","j","3","html-keyboard-response","389","f","daub","false","","4"
"1458.2000000178814","","","","","3","html-slider-response","390","","","","1",""
"596","","","","","3","html-keyboard-response","391","","","","",""
"1515","shelf","bungtod,kadaot,pamahaw,awit","pamahaw","j","3","html-keyboard-response","392","j","pamahaw","true","","1"
"2403.600000023842","","","","","3","html-slider-response","393","","","","5",""
"846","","","","","3","html-keyboard-response","394","","","","",""
"1870","human","bado,kikapu,tinapay,punguza","tinapay","j","3","html-keyboard-response","395","j","tinapay","true","","4"
"1198.6000000238419","","","","","3","html-slider-response","396","","","","5",""
"474","","","","","3","html-keyboard-response","397","","","","",""
"1905","towel","tembo,pagpalit,funzi,pito","pagpalit","v","3","html-keyboard-response","398","n","pito","false","","4"
"2371.600000023842","","","","","3","html-slider-response","399","","","","1",""
"696","","","","","3","html-keyboard-response","400","","","","",""
"2109","cat","neyemba,paghukom,baki,akili","paghukom","v","3","html-keyboard-response","401","v","paghukom","true","","4"
"1172","","","","","3","html-slider-response","402","","","","1",""
"695","","","","","3","html-keyboard-response","403","","","","",""
"2534","spider","bunyag,kamwe,mkboa,atop","kamwe","v","3","html-keyboard-response","404","v","kamwe","true","","4"
"1106.7000000178814","","","","","3","html-slider-response","405","","","","5",""
"374","","","","","3","html-keyboard-response","406","","","","",""
"3035","window","nanga,kweli,kujenga,umaga","kweli","v","3","html-keyboard-response","407","v","kweli","true","","4"
"983.8000000119209","","","","","3","html-slider-response","408","","","","1",""
"660","","","","","3","html-keyboard-response","409","","","","",""
"1159","woman","bandari,pagtabon,bituin,kovuli","pagtabon","v","3","html-keyboard-response","410","v","pagtabon","true","","1"
"1061.7999999821186","","","","","3","html-slider-response","411","","","","5",""
"490","","","","","3","html-keyboard-response","412","","","","",""
"1822","giraffe","mahitabo,daraja,jumatu,hangyo","mahitabo","f","3","html-keyboard-response","413","f","mahitabo","true","","4"
"1193.4000000059605","","","","","3","html-slider-response","414","","","","2",""
"518","","","","","3","html-keyboard-response","415","","","","",""
"1755","elephant","petye,pagduol,kito,suka","kito","j","3","html-keyboard-response","416","v","pagduol","false","","4"
"1338.699999988079","","","","","3","html-slider-response","417","","","","2",""
"541","","","","","3","html-keyboard-response","418","","","","",""
"2783","cave","kesho,ganti,maisha,nyundo","kesho","f","3","html-keyboard-response","419","v","ganti","false","","4"
"1174.5999999940395","","","","","3","html-slider-response","420","","","","1",""
"423","","","","","3","html-keyboard-response","421","","","","",""
"3977","bread","dari,kaili,dizeli,bugas","dari","f","3","html-keyboard-response","422","n","bugas","false","","4"
"1065.7000000178814","","","","","3","html-slider-response","423","","","","1",""
"593","","","","","3","html-keyboard-response","424","","","","",""
"2292","stone","ulimwengu,mkasi,wingi,asili","wingi","j","3","html-keyboard-response","425","v","mkasi","false","","4"
"1121.7999999821186","","","","","3","html-slider-response","426","","","","1",""
"424","","","","","3","html-keyboard-response","427","","","","",""
"2647","donkey","elfu,bloke,lalake,rombus","elfu","f","3","html-keyboard-response","428","f","elfu","true","","4"
"1125.2999999821186","","","","","3","html-slider-response","429","","","","5",""
"394","","","","","3","html-keyboard-response","430","","","","",""
"2894","bridge","daima,ngono,sahani,panya","sahani","j","3","html-keyboard-response","431","j","sahani","true","","4"
"1346.0999999940395","","","","","3","html-slider-response","432","","","","4",""
"405","","","","","3","html-keyboard-response","433","","","","",""
"1795","bonfire","mwezi,goti,mfuko,kusanya","goti","v","3","html-keyboard-response","434","v","goti","true","","4"
"992.3000000119209","","","","","3","html-slider-response","435","","","","5",""
"361","","","","","3","html-keyboard-response","436","","","","",""
"1865","book","kuhesa,mali,picha,mara","mali","v","3","html-keyboard-response","437","f","kuhesa","false","","4"
"2378.5","","","","","3","html-slider-response","438","","","","1",""
"460","","","","","3","html-keyboard-response","439","","","","",""
"2606","fish","buli,bala,baho,imani","buli","f","3","html-keyboard-response","440","f","buli","true","","4"
"1400.5999999940395","","","","","3","html-slider-response","441","","","","4",""
"445","","","","","3","html-keyboard-response","442","","","","",""
"2946","spoon","betri,nzuri,pagsulod,ngazi","pagsulod","j","3","html-keyboard-response","443","v","nzuri","false","","4"
"1248.5","","","","","3","html-slider-response","444","","","","1",""
"636","","","","","3","html-keyboard-response","445","","","","",""
"3297","scissors","tanuri,duga,mtawa,suga","tanuri","f","3","html-keyboard-response","446","f","tanuri","true","","4"
"1306.5","","","","","3","html-slider-response","447","","","","1",""
"606","","","","","3","html-keyboard-response","448","","","","",""
"1966","page","wakala,wimbo,ishiri,skina","wimbo","v","3","html-keyboard-response","449","n","skina","false","","4"
"1246","","","","","3","html-slider-response","450","","","","1",""
"454","","","","","3","html-keyboard-response","451","","","","",""
"1086","nose","sehemu,gubat,kopa,kidole","sehemu","f","3","html-keyboard-response","452","f","sehemu","true","","1"
"1639.300000011921","","","","","3","html-slider-response","453","","","","5",""
"387","","","","","3","html-keyboard-response","454","","","","",""
"2968","ceiling","kugita,kawaida,maua,rayna","maua","j","3","html-keyboard-response","455","f","kugita","false","","4"
"1145.7000000178814","","","","","3","html-slider-response","456","","","","2",""
"394","","","","","3","html-keyboard-response","457","","","","",""
"2400","bucket","kiatu,baga,ijayo,init","kiatu","f","3","html-keyboard-response","458","f","kiatu","true","","4"
"1086.199999988079","","","","","3","html-slider-response","459","","","","1",""
"424","","","","","3","html-keyboard-response","460","","","","",""
"1307","berry","abogado,nogozi,kofia,kinywa","kofia","j","3","html-keyboard-response","461","j","kofia","true","","1"
"1081.5","","","","","3","html-slider-response","462","","","","5",""
"372","","","","","3","html-keyboard-response","463","","","","",""
"762","mother","babaye,kahawa,mbuzi,jokofu","babaye","f","3","html-keyboard-response","464","f","babaye","true","","1"
"1438.699999988079","","","","","3","html-slider-response","465","","","","5",""
"489","","","","","3","html-keyboard-response","466","","","","",""
"1919","mosquito","martilyo,isda,taras,gutom","martilyo","f","3","html-keyboard-response","467","f","martilyo","true","","4"
"1085.4000000059605","","","","","3","html-slider-response","468","","","","5",""
"290","","","","","3","html-keyboard-response","469","","","","",""
"2834","perfume","bino,katuyoan,sungura,ndogo","katuyoan","v","3","html-keyboard-response","470","n","ndogo","false","","4"
"1221.6000000238419","","","","","3","html-slider-response","471","","","","1",""
"542","","","","","3","html-keyboard-response","472","","","","",""
"2196","sheet","bililhon,juuya,watu,kamantis","bililhon","f","3","html-keyboard-response","473","j","watu","false","","4"
"1305.4000000059605","","","","","3","html-slider-response","474","","","","1",""
"654","","","","","3","html-keyboard-response","475","","","","",""
"1012","puppet","napulo,lamok,godoro,mazishi","mazishi","n","3","html-keyboard-response","476","n","mazishi","true","","1"
"1133.9000000059605","","","","","3","html-slider-response","477","","","","5",""
"939","","","","","3","html-keyboard-response","478","","","","",""
"2925","poster","madungog,nchi,fedha,kasuko","madungog","f","3","html-keyboard-response","479","f","madungog","true","","4"
"1073.0999999940395","","","","","3","html-slider-response","480","","","","1",""
"710","","","","","3","html-keyboard-response","481","","","","",""
"4293","music","mraba,baiski,mageho,tumbo","baiski","v","3","html-keyboard-response","482","v","baiski","true","","4"
"1926.0999999940395","","","","","3","html-slider-response","483","","","","4",""
"442","","","","","3","html-keyboard-response","484","","","","",""
"2417","key","chombo,miaka,goma,ahos","chombo","f","3","html-keyboard-response","485","f","chombo","true","","4"
"1107.8999999761581","","","","","3","html-slider-response","486","","","","5",""
"420","","","","","3","html-keyboard-response","487","","","","",""
"3752","sock","ndoora,kimysa,mamba,mtirka","mamba","j","3","html-keyboard-response","488","j","mamba","true","","4"
"1119.6000000238419","","","","","3","html-slider-response","489","","","","1",""
"451","","","","","3","html-keyboard-response","490","","","","",""
"2511","marker","mapafu,salita,maji,atay","maji","j","3","html-keyboard-response","491","n","atay","false","","4"
"1015.7999999821186","","","","","3","html-slider-response","492","","","","4",""
"705","","","","","3","html-keyboard-response","493","","","","",""
"5357","office","leso,hazini,yatima,kuna","leso","f","3","html-keyboard-response","494","v","hazini","false","","4"
"1603.4000000059605","","","","","3","html-slider-response","495","","","","1",""
"609","","","","","3","html-keyboard-response","496","","","","",""
"2817","shoe","uyoga,nyeusi,hatua,kama","uyoga","f","3","html-keyboard-response","497","n","kama","false","","4"
"1215.0999999940395","","","","","3","html-slider-response","498","","","","1",""
"478","","","","","3","html-keyboard-response","499","","","","",""
"2612","cop","bustani,mechezo,jikoni,bakus","mechezo","v","3","html-keyboard-response","500","n","bakus","false","","4"
"1148.699999988079","","","","","3","html-slider-response","501","","","","1",""
"506","","","","","3","html-keyboard-response","502","","","","",""
"2625","bank","silingan,kudhibi,tualya,ofisi","silingan","f","3","html-keyboard-response","503","n","ofisi","false","","4"
"1334.0999999940395","","","","","3","html-slider-response","504","","","","5",""
"860","","","","","3","html-keyboard-response","505","","","","",""
"1038","letter","filimbi,chuma,uhuru,kifua","kifua","n","3","html-keyboard-response","506","n","kifua","true","","1"
"1028.800000011921","","","","","3","html-slider-response","507","","","","5",""
"376","","","","","3","html-keyboard-response","508","","","","",""
"993","dog","lubi,bahari,washia,kalamu","bahari","v","3","html-keyboard-response","509","v","bahari","true","","1"
"1658.7999999821186","","","","","3","html-slider-response","510","","","","5",""
"653","","","","","3","html-keyboard-response","511","","","","",""
"2809","shop","samaki,nopya,kerida,ndezu","samaki","f","3","html-keyboard-response","512","n","ndezu","false","","4"
"1378.199999988079","","","","","3","html-slider-response","513","","","","1",""
"950","","","","","3","html-keyboard-response","514","","","","",""
"6079","flower","tamasha,lobo,usiku,bega","bega","n","3","html-keyboard-response","515","j","usiku","false","","4"
"1039.4000000059605","","","","","3","html-slider-response","516","","","","1",""
"823","","","","","3","html-keyboard-response","517","","","","",""
"1079","cigar","ndugu,kuta,mlango,adhabu","adhabu","n","3","html-keyboard-response","518","n","adhabu","true","","1"
"1248.199999988079","","","","","3","html-slider-response","519","","","","5",""
"930","","","","","3","html-keyboard-response","520","","","","",""
"4722","hammer","mekno,kitovu,layag,napakyas","napakyas","n","3","html-keyboard-response","521","n","napakyas","true","","4"
"1044","","","","","3","html-slider-response","522","","","","1",""
"928","","","","","3","html-keyboard-response","523","","","","",""
"2818","fork","mgonjwa,baboy,paghago,gorisi","mgonjwa","f","3","html-keyboard-response","524","j","paghago","false","","4"
"1395.5","","","","","3","html-slider-response","525","","","","1",""
"946","","","","","3","html-keyboard-response","526","","","","",""
"967","sun","basi,bendi,luha,uongo","basi","f","3","html-keyboard-response","527","f","basi","true","","1"
"1554","","","","","3","html-slider-response","528","","","","5",""
"1697","","","","","3","html-keyboard-response","529","","","","",""
"1664","ladder","mashua,mwanga,kamba,pangalan","pangalan","n","3","html-keyboard-response","530","n","pangalan","true","","4"
"1976.0999999940395","","","","","3","html-slider-response","531","","","","5",""
"402","","","","","3","html-keyboard-response","532","","","","",""
"975","banana","kasamok,hagdan,twai,kazi","kazi","n","3","html-keyboard-response","533","n","kazi","true","","1"
"1465.699999988079","","","","","3","html-slider-response","534","","","","5",""
"244","","","","","3","html-keyboard-response","535","","","","",""
"2574","pudding","abug,mpishi,aibu,iring","aibu","j","3","html-keyboard-response","536","j","aibu","true","","4"
"1304.7999999821186","","","","","3","html-slider-response","537","","","","4",""
"435","","","","","3","html-keyboard-response","538","","","","",""
"2587","body","nyundu,tindashan,jibini,kununa","tindashan","v","3","html-keyboard-response","539","v","tindashan","true","","4"
"1599.4000000059605","","","","","3","html-slider-response","540","","","","2",""
"481","","","","","3","html-keyboard-response","541","","","","",""
"2632","bed","kalipay,haraka,mapintas,starehe","mapintas","j","3","html-keyboard-response","542","f","kalipay","false","","4"
"1396.199999988079","","","","","3","html-slider-response","543","","","","1",""
"357","","","","","3","html-keyboard-response","544","","","","",""
"4538","tissue","lamigas,ugomvi,kisiwa,katika","ugomvi","v","3","html-keyboard-response","545","n","katika","false","","4"
"1388.4000000059605","","","","","3","html-slider-response","546","","","","1",""
"525","","","","","3","html-keyboard-response","547","","","","",""
"4826","candle","gabi,farasi,geza,kupanda","geza","j","3","html-keyboard-response","548","f","gabi","false","","4"
"1281.0999999940395","","","","","3","html-slider-response","549","","","","1",""
"510","","","","","3","html-keyboard-response","550","","","","",""
"997","tomato","chupi,mvua,chupa,takatak","mvua","v","3","html-keyboard-response","551","v","mvua","true","","1"
"1175","","","","","3","html-slider-response","552","","","","5",""
"477","","","","","3","html-keyboard-response","553","","","","",""
"2293","list","alizeti,kuzama,kaso,wingu","wingu","n","3","html-keyboard-response","554","n","wingu","true","","4"
"1485.9000000059605","","","","","3","html-slider-response","555","","","","5",""
"443","","","","","3","html-keyboard-response","556","","","","",""
"3078","olive","bata,siagi,jiwe,welder","jiwe","j","3","html-keyboard-response","557","j","jiwe","true","","4"
"1012.7999999821186","","","","","3","html-slider-response","558","","","","1",""
"450","","","","","3","html-keyboard-response","559","","","","",""
"1042","picture","silya,chaki,kubwa,asin","kubwa","j","3","html-keyboard-response","560","j","kubwa","true","","1"
"1139.5","","","","","3","html-slider-response","561","","","","5",""
"284","","","","","3","html-keyboard-response","562","","","","",""
"1987","page","wakala,ishiri,skina,wimbo","wimbo","n","4","html-keyboard-response","888","n","wimbo","true","",""
"1774.5","","","","","4","html-slider-response","889","","","","5",""
"3141","sheet","juuya,bililhon,watu,kamantis","bililhon","v","4","html-keyboard-response","890","v","bililhon","true","",""
"1271.6000000238419","","","","","4","html-slider-response","891","","","","5",""
"1492","ladder","mashua,mwanga,pangalan,kamba","pangalan","j","4","html-keyboard-response","892","j","pangalan","true","",""
"1286.5","","","","","4","html-slider-response","893","","","","5",""
"1620","door","tena,soko,nyota,surali","surali","n","4","html-keyboard-response","894","n","surali","true","",""
"1209.5999999940395","","","","","4","html-slider-response","895","","","","5",""
"1351","spider","bunyag,mkboa,atop,kamwe","kamwe","n","4","html-keyboard-response","896","n","kamwe","true","",""
"1150.5","","","","","4","html-slider-response","897","","","","5",""
"3384","picture","silya,chaki,kubwa,asin","kubwa","j","4","html-keyboard-response","898","v","chaki","false","",""
"1064.5999999940395","","","","","4","html-slider-response","899","","","","1",""
"1519","boat","hamsi,pombe,kitanda,agalon","agalon","n","4","html-keyboard-response","900","n","agalon","true","",""
"1619.5999999940395","","","","","4","html-slider-response","901","","","","5",""
"1973","donkey","bloke,elfu,lalake,rombus","elfu","v","4","html-keyboard-response","902","v","elfu","true","",""
"1072.3999999761581","","","","","4","html-slider-response","903","","","","5",""
"2174","book","mali,kuhesa,picha,mara","mali","f","4","html-keyboard-response","904","f","mali","true","",""
"1245","","","","","4","html-slider-response","905","","","","5",""
"2553","cup","dagat,matumai,shimoni,jeraha","matumai","v","4","html-keyboard-response","906","v","matumai","true","",""
"1179.5","","","","","4","html-slider-response","907","","","","1",""
"9529","sun","bendi,basi,luha,uongo","basi","v","4","html-keyboard-response","908","v","basi","true","",""
"1519.9000000059605","","","","","4","html-slider-response","909","","","","2",""
"2631","pudding","aibu,abug,mpishi,iring","aibu","f","4","html-keyboard-response","910","f","aibu","true","",""
"1704.7000000178814","","","","","4","html-slider-response","911","","","","1",""
"1749","human","tinapay,bado,kikapu,punguza","tinapay","f","4","html-keyboard-response","912","f","tinapay","true","",""
"1093.9000000059605","","","","","4","html-slider-response","913","","","","5",""
"1927","squirrel","hofu,mahugaw,ukweli,kichwa","hofu","f","4","html-keyboard-response","914","v","mahugaw","false","",""
"1158.4000000059605","","","","","4","html-slider-response","915","","","","4",""
"2689","park","tambok,pwani,ihalas,bunifu","bunifu","n","4","html-keyboard-response","916","n","bunifu","true","",""
"1083.699999988079","","","","","4","html-slider-response","917","","","","4",""
"3686","poster","nchi,madungog,fedha,kasuko","madungog","v","4","html-keyboard-response","918","v","madungog","true","",""
"1255.199999988079","","","","","4","html-slider-response","919","","","","5",""
"4251","wolf","lugha,kaburi,ndizi,mchuzi","lugha","f","4","html-keyboard-response","920","n","mchuzi","false","",""
"1217.5999999940395","","","","","4","html-slider-response","921","","","","2",""
"2055","cat","neyemba,baki,akili,paghukom","paghukom","n","4","html-keyboard-response","922","n","paghukom","true","",""
"1008.3000000119209","","","","","4","html-slider-response","923","","","","4",""
"3210","fish","bala,buli,baho,imani","buli","v","4","html-keyboard-response","924","v","buli","true","",""
"1146.5","","","","","4","html-slider-response","925","","","","5",""
"3260","tooth","kijiko,uadui,pahiyum,kabalaka","kabalaka","n","4","html-keyboard-response","926","n","kabalaka","true","",""
"1382.5","","","","","4","html-slider-response","927","","","","1",""
"2011","cave","ganti,maisha,nyundo,kesho","kesho","n","4","html-keyboard-response","928","n","kesho","true","",""
"2051.4000000059605","","","","","4","html-slider-response","929","","","","2",""
"1957","lamp","daub,bilaska,afya,mbolea","afya","j","4","html-keyboard-response","930","j","afya","true","",""
"1378.0999999940395","","","","","4","html-slider-response","931","","","","4",""
"3850","banana","kasamok,kazi,hagdan,twai","kazi","v","4","html-keyboard-response","932","v","kazi","true","",""
"1441","","","","","4","html-slider-response","933","","","","1",""
"1558","bonfire","mwezi,goti,mfuko,kusanya","goti","v","4","html-keyboard-response","934","v","goti","true","",""
"1601.2999999821186","","","","","4","html-slider-response","935","","","","5",""
"2018","cop","bustani,jikoni,mechezo,bakus","mechezo","j","4","html-keyboard-response","936","j","mechezo","true","",""
"1073.0999999940395","","","","","4","html-slider-response","937","","","","4",""
"3110","marker","mapafu,salita,maji,atay","maji","j","4","html-keyboard-response","938","n","atay","false","",""
"1771.9000000059605","","","","","4","html-slider-response","939","","","","1",""
"1635","window","nanga,kweli,kujenga,umaga","kweli","v","4","html-keyboard-response","940","v","kweli","true","",""
"1426.5","","","","","4","html-slider-response","941","","","","5",""
"1629","body","nyundu,jibini,tindashan,kununa","tindashan","j","4","html-keyboard-response","942","j","tindashan","true","",""
"1099","","","","","4","html-slider-response","943","","","","5",""
"1472","apple","ukame,kisu,estante,edad","kisu","v","4","html-keyboard-response","944","v","kisu","true","",""
"1254.199999988079","","","","","4","html-slider-response","945","","","","5",""
"1374","salmon","sensilyo,mzungu,seri,baharia","sensilyo","f","4","html-keyboard-response","946","f","sensilyo","true","",""
"1123","","","","","4","html-slider-response","947","","","","5",""
"3227","bed","mapintas,kalipay,haraka,starehe","mapintas","f","4","html-keyboard-response","948","v","kalipay","false","",""
"1071.5","","","","","4","html-slider-response","949","","","","2",""
"2844","berry","abogado,nogozi,kofia,kinywa","kofia","j","4","html-keyboard-response","950","j","kofia","true","",""
"1117.199999988079","","","","","4","html-slider-response","951","","","","2",""
"2540","mirror","rangi,kanding,furaha,sulagma","sulagma","n","4","html-keyboard-response","952","n","sulagma","true","",""
"1276.4000000059605","","","","","4","html-slider-response","953","","","","5",""
"4263","flag","trekta,ndege,mkate,kawa","trekta","f","4","html-keyboard-response","954","f","trekta","true","",""
"2772.0999999940395","","","","","4","html-slider-response","955","","","","5",""
"2217","shoulder","kelele,mkuu,ndaniya,guruwe","mkuu","v","4","html-keyboard-response","956","v","mkuu","true","",""
"1164.7000000178814","","","","","4","html-slider-response","957","","","","5",""
"2898","tissue","lamigas,kisiwa,ugomvi,katika","ugomvi","j","4","html-keyboard-response","958","v","kisiwa","false","",""
"1382.300000011921","","","","","4","html-slider-response","959","","","","2",""
"4267","notebook","msitu,kemia,kila,mdudu","kemia","v","4","html-keyboard-response","960","v","kemia","true","",""
"2074.9000000059605","","","","","4","html-slider-response","961","","","","5",""
"2007","snake","pagtukod,jansa,karon,mvringo","pagtukod","f","4","html-keyboard-response","962","f","pagtukod","true","",""
"1397.7000000178814","","","","","4","html-slider-response","963","","","","5",""
"2447","finger","simu,sufuria,moyo,lima","moyo","j","4","html-keyboard-response","964","j","moyo","true","",""
"1180","","","","","4","html-slider-response","965","","","","4",""
"1654","basket","kumbuka,utepe,hasira,kumba","kumba","n","4","html-keyboard-response","966","n","kumba","true","",""
"1593.0999999940395","","","","","4","html-slider-response","967","","","","5",""
"2689","curtain","mchanga,lisud,bulwawan,chubani","mchanga","f","4","html-keyboard-response","968","f","mchanga","true","",""
"1828.699999988079","","","","","4","html-slider-response","969","","","","1",""
"2570","perfume","bino,katuyoan,sungura,ndogo","katuyoan","v","4","html-keyboard-response","970","j","sungura","false","",""
"1337.5","","","","","4","html-slider-response","971","","","","1",""
"1367","key","miaka,goma,chombo,ahos","chombo","j","4","html-keyboard-response","972","j","chombo","true","",""
"1458.7999999821186","","","","","4","html-slider-response","973","","","","5",""
"2131","olive","bata,siagi,jiwe,welder","jiwe","j","4","html-keyboard-response","974","j","jiwe","true","",""
"1496.800000011921","","","","","4","html-slider-response","975","","","","4",""
"3246","rose","singizi,mwanake,amani,paghalad","paghalad","n","4","html-keyboard-response","976","n","paghalad","true","",""
"1485.8999999761581","","","","","4","html-slider-response","977","","","","2",""
"2325","bridge","daima,ngono,panya,sahani","sahani","n","4","html-keyboard-response","978","n","sahani","true","",""
"1117.0999999940395","","","","","4","html-slider-response","979","","","","5",""
"2166","hill","kushoto,matumbo,kukimba,sweta","matumbo","v","4","html-keyboard-response","980","v","matumbo","true","",""
"1119.699999988079","","","","","4","html-slider-response","981","","","","5",""
"5410","letter","filimbi,kifua,chuma,uhuru","kifua","v","4","html-keyboard-response","982","j","chuma","false","",""
"1135.7999999821186","","","","","4","html-slider-response","983","","","","2",""
"1469","sock","ndoora,kimysa,mamba,mtirka","mamba","j","4","html-keyboard-response","984","j","mamba","true","",""
"1062.5999999940395","","","","","4","html-slider-response","985","","","","5",""
"2689","fork","baboy,paghago,mgonjwa,gorisi","mgonjwa","j","4","html-keyboard-response","986","j","mgonjwa","true","",""
"2101.199999988079","","","","","4","html-slider-response","987","","","","2",""
"4954","box","kuacha,rafiki,adui,kitande","adui","j","4","html-keyboard-response","988","v","rafiki","false","",""
"1034.199999988079","","","","","4","html-slider-response","989","","","","2",""
"2353","gift","baba,nyange,baso,pagtawag","pagtawag","n","4","html-keyboard-response","990","n","pagtawag","true","",""
"1105.5","","","","","4","html-slider-response","991","","","","4",""
"2869","bucket","kiatu,baga,ijayo,init","kiatu","f","4","html-keyboard-response","992","f","kiatu","true","",""
"1379.7000000178814","","","","","4","html-slider-response","993","","","","1",""
"2875","shop","nopya,kerida,samaki,ndezu","samaki","j","4","html-keyboard-response","994","j","samaki","true","",""
"1236.6000000238419","","","","","4","html-slider-response","995","","","","4",""
"3536","puppet","mazishi,napulo,lamok,godoro","mazishi","f","4","html-keyboard-response","996","f","mazishi","true","",""
"1352.9000000059605","","","","","4","html-slider-response","997","","","","1",""
"2165","nose","sehemu,gubat,kopa,kidole","sehemu","f","4","html-keyboard-response","998","f","sehemu","true","",""
"1076.0999999940395","","","","","4","html-slider-response","999","","","","1",""
"1451","music","mraba,mageho,baiski,tumbo","baiski","j","4","html-keyboard-response","1000","j","baiski","true","",""
"1106.9000000059605","","","","","4","html-slider-response","1001","","","","5",""
"3299","dog","lubi,washia,bahari,kalamu","bahari","j","4","html-keyboard-response","1002","j","bahari","true","",""
"1644.2000000178814","","","","","4","html-slider-response","1003","","","","2",""
"1970","eel","ishara,kunywa,msumari,kabuang","msumari","j","4","html-keyboard-response","1004","j","msumari","true","",""
"1081.2999999821186","","","","","4","html-slider-response","1005","","","","4",""
"2799","number","shule,kengele,choori,mundamo","mundamo","n","4","html-keyboard-response","1006","n","mundamo","true","",""
"1103","","","","","4","html-slider-response","1007","","","","5",""
"3387","tomato","mvua,chupi,chupa,takatak","mvua","f","4","html-keyboard-response","1008","v","chupi","false","",""
"1276.699999988079","","","","","4","html-slider-response","1009","","","","2",""
"2328","coffin","barua,kioo,tubag,hulma","kioo","v","4","html-keyboard-response","1010","v","kioo","true","",""
"1166.0999999940395","","","","","4","html-slider-response","1011","","","","4",""
"2021","knee","duka,mvuke,kubale,bili","duka","f","4","html-keyboard-response","1012","n","bili","false","",""
"1024.1000000238419","","","","","4","html-slider-response","1013","","","","4",""
"2244","woman","bandari,bituin,kovuli,pagtabon","pagtabon","n","4","html-keyboard-response","1014","n","pagtabon","true","",""
"1951.2999999821186","","","","","4","html-slider-response","1015","","","","5",""
"4106","stone","ulimwengu,wingi,mkasi,asili","wingi","v","4","html-keyboard-response","1016","v","wingi","true","",""
"1288.199999988079","","","","","4","html-slider-response","1017","","","","1",""
"5016","bread","kaili,dizeli,dari,bugas","dari","j","4","html-keyboard-response","1018","n","bugas","false","",""
"1491.2000000178814","","","","","4","html-slider-response","1019","","","","2",""
"2221","triangle","kihozi,bentaha,kasadpan,liog","kasadpan","j","4","html-keyboard-response","1020","v","bentaha","false","",""
"1379.4000000059605","","","","","4","html-slider-response","1021","","","","1",""
"2538","scissors","duga,mtawa,suga,tanuri","tanuri","n","4","html-keyboard-response","1022","n","tanuri","true","",""
"1285.5","","","","","4","html-slider-response","1023","","","","1",""
"2957","giraffe","mahitabo,daraja,jumatu,hangyo","mahitabo","f","4","html-keyboard-response","1024","f","mahitabo","true","",""
"1062.0999999940395","","","","","4","html-slider-response","1025","","","","4",""
"4452","flower","tamasha,bega,lobo,usiku","bega","v","4","html-keyboard-response","1026","v","bega","true","",""
"1107.9000000059605","","","","","4","html-slider-response","1027","","","","2",""
"3057","candle","gabi,geza,farasi,kupanda","geza","v","4","html-keyboard-response","1028","v","geza","true","",""
"1172.5999999940395","","","","","4","html-slider-response","1029","","","","5",""
"2071","mother","babaye,kahawa,mbuzi,jokofu","babaye","f","4","html-keyboard-response","1030","f","babaye","true","",""
"1344.9000000059605","","","","","4","html-slider-response","1031","","","","5",""
"3216","towel","pagpalit,tembo,funzi,pito","pagpalit","f","4","html-keyboard-response","1032","f","pagpalit","true","",""
"2195.5","","","","","4","html-slider-response","1033","","","","2",""
"2011","elephant","kito,petye,pagduol,suka","kito","f","4","html-keyboard-response","1034","f","kito","true","",""
"1729.5999999940395","","","","","4","html-slider-response","1035","","","","4",""
"4749","shelf","bungtod,kadaot,pamahaw,awit","pamahaw","j","4","html-keyboard-response","1036","v","kadaot","false","",""
"1525.5999999940395","","","","","4","html-slider-response","1037","","","","1",""
"1447","mosquito","martilyo,isda,taras,gutom","martilyo","f","4","html-keyboard-response","1038","f","martilyo","true","",""
"1037.300000011921","","","","","4","html-slider-response","1039","","","","5",""
"1574","column","pundok,dila,pala,ufagio","ufagio","n","4","html-keyboard-response","1040","n","ufagio","true","",""
"958.7000000178814","","","","","4","html-slider-response","1041","","","","5",""
"3491","pants","pintal,chuki,haki,hari","haki","j","4","html-keyboard-response","1042","n","hari","false","",""
"2374.5","","","","","4","html-slider-response","1043","","","","4",""
"2348","list","alizeti,kuzama,kaso,wingu","wingu","n","4","html-keyboard-response","1044","n","wingu","true","",""
"1450.0999999940395","","","","","4","html-slider-response","1045","","","","5",""
"1687","bank","kudhibi,silingan,tualya,ofisi","silingan","v","4","html-keyboard-response","1046","n","ofisi","false","",""
"1308.300000011921","","","","","4","html-slider-response","1047","","","","2",""
"1690","clock","kartasi,abang,osha,mbwa","mbwa","n","4","html-keyboard-response","1048","n","mbwa","true","",""
"1053.699999988079","","","","","4","html-slider-response","1049","","","","5",""
"4411","ceiling","kugita,kawaida,maua,rayna","maua","j","4","html-keyboard-response","1050","v","kawaida","false","",""
"1373.5999999940395","","","","","4","html-slider-response","1051","","","","1",""
"2223","train","itik,sayari,dakika,mungu","sayari","v","4","html-keyboard-response","1052","v","sayari","true","",""
"1532.9000000059605","","","","","4","html-slider-response","1053","","","","5",""
"1471","magazine","gundi,mchawi,bahandi,kiti","kiti","n","4","html-keyboard-response","1054","n","kiti","true","",""
"1030.1000000238419","","","","","4","html-slider-response","1055","","","","5",""
"4392","office","hazini,yatima,kuna,leso","leso","n","4","html-keyboard-response","1056","n","leso","true","",""
"1231.5","","","","","4","html-slider-response","1057","","","","4",""
"2213","wheel","punda,bafuni,tawo,baadaye","bafuni","v","4","html-keyboard-response","1058","v","bafuni","true","",""
"1222.5999999940395","","","","","4","html-slider-response","1059","","","","4",""
"1390","spoon","betri,nzuri,pagsulod,ngazi","pagsulod","j","4","html-keyboard-response","1060","j","pagsulod","true","",""
"1637.9000000059605","","","","","4","html-slider-response","1061","","","","5",""
"2032","hammer","mekno,kitovu,napakyas,layag","napakyas","j","4","html-keyboard-response","1062","n","layag","false","",""
"1017.4000000059605","","","","","4","html-slider-response","1063","","","","4",""
"2023","cigar","ndugu,kuta,mlango,adhabu","adhabu","n","4","html-keyboard-response","1064","f","ndugu","false","",""
"1477.2000000178814","","","","","4","html-slider-response","1065","","","","2",""
"1837","shoe","nyeusi,uyoga,hatua,kama","uyoga","v","4","html-keyboard-response","1066","n","kama","false","",""
"1093.5","","","","","4","html-slider-response","1067","","","","4",""
"2377","list","wingu,alizeti,kuzama,kaso","wingu","f","5","html-keyboard-response","1069","f","wingu","true","",""
"1388.699999988079","","","","","5","html-slider-response","1070","","","","5",""
"1154","number","mundamo,shule,kengele,choori","mundamo","f","5","html-keyboard-response","1071","f","mundamo","true","",""
"1133.9000000059605","","","","","5","html-slider-response","1072","","","","5",""
"1089","apple","ukame,estante,kisu,edad","kisu","j","5","html-keyboard-response","1073","j","kisu","true","",""
"1165.7000000178814","","","","","5","html-slider-response","1074","","","","5",""
"1133","knee","mvuke,kubale,bili,duka","duka","n","5","html-keyboard-response","1075","j","bili","false","",""
"1023.0999999940395","","","","","5","html-slider-response","1076","","","","4",""
"1573","tooth","kijiko,kabalaka,uadui,pahiyum","kabalaka","v","5","html-keyboard-response","1077","f","kijiko","false","",""
"1310.4000000059605","","","","","5","html-slider-response","1078","","","","2",""
"1722","berry","abogado,kofia,nogozi,kinywa","kofia","v","5","html-keyboard-response","1079","v","kofia","true","",""
"1493.300000011921","","","","","5","html-slider-response","1080","","","","1",""
"1260","bridge","daima,ngono,sahani,panya","sahani","j","5","html-keyboard-response","1081","j","sahani","true","",""
"1062.5","","","","","5","html-slider-response","1082","","","","5",""
"3202","perfume","katuyoan,bino,sungura,ndogo","katuyoan","f","5","html-keyboard-response","1083","n","ndogo","false","",""
"1303.800000011921","","","","","5","html-slider-response","1084","","","","1",""
"1078","ladder","mashua,mwanga,kamba,pangalan","pangalan","n","5","html-keyboard-response","1085","n","pangalan","true","",""
"992.3999999761581","","","","","5","html-slider-response","1086","","","","5",""
"1476","pants","pintal,chuki,haki,hari","haki","j","5","html-keyboard-response","1087","n","hari","false","",""
"1394.4000000059605","","","","","5","html-slider-response","1088","","","","2",""
"1485","salmon","mzungu,seri,sensilyo,baharia","sensilyo","j","5","html-keyboard-response","1089","j","sensilyo","true","",""
"991.5999999940395","","","","","5","html-slider-response","1090","","","","5",""
"1455","coffin","barua,kioo,tubag,hulma","kioo","v","5","html-keyboard-response","1091","v","kioo","true","",""
"1095.199999988079","","","","","5","html-slider-response","1092","","","","5",""
"2177","park","bunifu,tambok,pwani,ihalas","bunifu","f","5","html-keyboard-response","1093","f","bunifu","true","",""
"1468.0999999940395","","","","","5","html-slider-response","1094","","","","4",""
"2019","giraffe","daraja,mahitabo,jumatu,hangyo","mahitabo","v","5","html-keyboard-response","1095","v","mahitabo","true","",""
"1729.800000011921","","","","","5","html-slider-response","1096","","","","4",""
"2106","mirror","sulagma,rangi,kanding,furaha","sulagma","f","5","html-keyboard-response","1097","f","sulagma","true","",""
"1240.9000000059605","","","","","5","html-slider-response","1098","","","","5",""
"1951","ceiling","kugita,kawaida,maua,rayna","maua","j","5","html-keyboard-response","1099","v","kawaida","false","",""
"1168.2999999821186","","","","","5","html-slider-response","1100","","","","1",""
"2466","marker","mapafu,maji,salita,atay","maji","v","5","html-keyboard-response","1101","n","atay","false","",""
"1042.5999999940395","","","","","5","html-slider-response","1102","","","","2",""
"1349","sock","ndoora,kimysa,mtirka,mamba","mamba","n","5","html-keyboard-response","1103","n","mamba","true","",""
"1221.0999999940395","","","","","5","html-slider-response","1104","","","","5",""
"1245","cop","bustani,jikoni,bakus,mechezo","mechezo","n","5","html-keyboard-response","1105","n","mechezo","true","",""
"1459","","","","","5","html-slider-response","1106","","","","5",""
"1662","gift","baba,nyange,pagtawag,baso","pagtawag","j","5","html-keyboard-response","1107","j","pagtawag","true","",""
"1278.199999988079","","","","","5","html-slider-response","1108","","","","5",""
"2488","notebook","msitu,kila,kemia,mdudu","kemia","j","5","html-keyboard-response","1109","j","kemia","true","",""
"1027.300000011921","","","","","5","html-slider-response","1110","","","","5",""
"5602","bank","kudhibi,tualya,silingan,ofisi","silingan","j","5","html-keyboard-response","1111","n","ofisi","false","",""
"1434.2000000178814","","","","","5","html-slider-response","1112","","","","1",""
"2682","letter","filimbi,kifua,chuma,uhuru","kifua","v","5","html-keyboard-response","1113","j","chuma","false","",""
"1135.699999988079","","","","","5","html-slider-response","1114","","","","4",""
"1896","candle","gabi,farasi,kupanda,geza","geza","n","5","html-keyboard-response","1115","n","geza","true","",""
"1083.5999999940395","","","","","5","html-slider-response","1116","","","","5",""
"2611","bread","kaili,dari,dizeli,bugas","dari","v","5","html-keyboard-response","1117","n","bugas","false","",""
"1242.300000011921","","","","","5","html-slider-response","1118","","","","1",""
"1772","snake","pagtukod,jansa,karon,mvringo","pagtukod","f","5","html-keyboard-response","1119","f","pagtukod","true","",""
"991.9000000059605","","","","","5","html-slider-response","1120","","","","5",""
"1331","rose","singizi,mwanake,paghalad,amani","paghalad","j","5","html-keyboard-response","1121","j","paghalad","true","",""
"1217.199999988079","","","","","5","html-slider-response","1122","","","","5",""
"2331","hill","matumbo,kushoto,kukimba,sweta","matumbo","f","5","html-keyboard-response","1123","f","matumbo","true","",""
"1000.1999999880791","","","","","5","html-slider-response","1124","","","","5",""
"1753","train","itik,dakika,sayari,mungu","sayari","j","5","html-keyboard-response","1125","j","sayari","true","",""
"1316.6000000238419","","","","","5","html-slider-response","1126","","","","5",""
"2530","shop","samaki,nopya,kerida,ndezu","samaki","f","5","html-keyboard-response","1127","f","samaki","true","",""
"1123.7999999821186","","","","","5","html-slider-response","1128","","","","5",""
"3359","nose","sehemu,gubat,kopa,kidole","sehemu","f","5","html-keyboard-response","1129","f","sehemu","true","",""
"1481.6000000238419","","","","","5","html-slider-response","1130","","","","1",""
"20240","boat","hamsi,pombe,kitanda,agalon","agalon","n","5","html-keyboard-response","1131","n","agalon","true","",""
"1902.5","","","","","5","html-slider-response","1132","","","","5",""
"1981","body","nyundu,jibini,kununa,tindashan","tindashan","n","5","html-keyboard-response","1133","n","tindashan","true","",""
"1077.0999999940395","","","","","5","html-slider-response","1134","","","","5",""
"4026","bed","kalipay,haraka,starehe,mapintas","mapintas","n","5","html-keyboard-response","1135","f","kalipay","false","",""
"1074.5","","","","","5","html-slider-response","1136","","","","1",""
"3105","squirrel","mahugaw,hofu,ukweli,kichwa","hofu","v","5","html-keyboard-response","1137","f","mahugaw","false","",""
"1088.5","","","","","5","html-slider-response","1138","","","","1",""
"2151","window","nanga,kweli,kujenga,umaga","kweli","v","5","html-keyboard-response","1139","v","kweli","true","",""
"1144.5999999940395","","","","","5","html-slider-response","1140","","","","5",""
"1282","bonfire","mwezi,goti,mfuko,kusanya","goti","v","5","html-keyboard-response","1141","v","goti","true","",""
"1104.800000011921","","","","","5","html-slider-response","1142","","","","5",""
"2537","fish","bala,baho,buli,imani","buli","j","5","html-keyboard-response","1143","j","buli","true","",""
"1182.5999999940395","","","","","5","html-slider-response","1144","","","","5",""
"1645","cat","neyemba,paghukom,baki,akili","paghukom","v","5","html-keyboard-response","1145","v","paghukom","true","",""
"975.1999999880791","","","","","5","html-slider-response","1146","","","","5",""
"3230","spider","kamwe,bunyag,mkboa,atop","kamwe","f","5","html-keyboard-response","1147","f","kamwe","true","",""
"1090","","","","","5","html-slider-response","1148","","","","5",""
"1486","eel","msumari,ishara,kunywa,kabuang","msumari","f","5","html-keyboard-response","1149","f","msumari","true","",""
"1020.1000000238419","","","","","5","html-slider-response","1150","","","","5",""
"1080","woman","pagtabon,bandari,bituin,kovuli","pagtabon","f","5","html-keyboard-response","1151","f","pagtabon","true","",""
"985.7999999821186","","","","","5","html-slider-response","1152","","","","5",""
"1242","magazine","gundi,mchawi,kiti,bahandi","kiti","j","5","html-keyboard-response","1153","j","kiti","true","",""
"1166.0999999940395","","","","","5","html-slider-response","1154","","","","5",""
"2376","pudding","abug,aibu,mpishi,iring","aibu","v","5","html-keyboard-response","1155","v","aibu","true","",""
"1279.800000011921","","","","","5","html-slider-response","1156","","","","2",""
"1797","lamp","daub,bilaska,afya,mbolea","afya","j","5","html-keyboard-response","1157","j","afya","true","",""
"1050.300000011921","","","","","5","html-slider-response","1158","","","","5",""
"1576","cave","ganti,maisha,kesho,nyundo","kesho","j","5","html-keyboard-response","1159","j","kesho","true","",""
"1033.4000000059605","","","","","5","html-slider-response","1160","","","","1",""
"1473","shoulder","mkuu,kelele,ndaniya,guruwe","mkuu","f","5","html-keyboard-response","1161","f","mkuu","true","",""
"1552.199999988079","","","","","5","html-slider-response","1162","","","","5",""
"1664","stone","ulimwengu,wingi,mkasi,asili","wingi","v","5","html-keyboard-response","1163","v","wingi","true","",""
"1453.300000011921","","","","","5","html-slider-response","1164","","","","2",""
"1933","column","pundok,ufagio,dila,pala","ufagio","v","5","html-keyboard-response","1165","v","ufagio","true","",""
"1146.7999999821186","","","","","5","html-slider-response","1166","","","","5",""
"1946","page","wakala,wimbo,ishiri,skina","wimbo","v","5","html-keyboard-response","1167","v","wimbo","true","",""
"1199.199999988079","","","","","5","html-slider-response","1168","","","","5",""
"3243","shoe","nyeusi,uyoga,hatua,kama","uyoga","v","5","html-keyboard-response","1169","n","kama","false","",""
"1073.2999999821186","","","","","5","html-slider-response","1170","","","","5",""
"1991","clock","mbwa,kartasi,abang,osha","mbwa","f","5","html-keyboard-response","1171","f","mbwa","true","",""
"1039.0999999940395","","","","","5","html-slider-response","1172","","","","5",""
"1890","towel","pagpalit,tembo,funzi,pito","pagpalit","f","5","html-keyboard-response","1173","f","pagpalit","true","",""
"1199.5","","","","","5","html-slider-response","1174","","","","5",""
"2351","tomato","chupi,chupa,takatak,mvua","mvua","n","5","html-keyboard-response","1175","n","mvua","true","",""
"1056.4000000059605","","","","","5","html-slider-response","1176","","","","5",""
"2900","bucket","baga,ijayo,kiatu,init","kiatu","j","5","html-keyboard-response","1177","j","kiatu","true","",""
"1479.2000000178814","","","","","5","html-slider-response","1178","","","","2",""
"2138","finger","moyo,simu,sufuria,lima","moyo","f","5","html-keyboard-response","1179","f","moyo","true","",""
"871.5999999940395","","","","","5","html-slider-response","1180","","","","4",""
"2201","mother","babaye,kahawa,mbuzi,jokofu","babaye","f","5","html-keyboard-response","1181","f","babaye","true","",""
"1010.7999999821186","","","","","5","html-slider-response","1182","","","","5",""
"2274","human","bado,tinapay,kikapu,punguza","tinapay","v","5","html-keyboard-response","1183","v","tinapay","true","",""
"1562.2000000178814","","","","","5","html-slider-response","1184","","","","5",""
"2294","sun","bendi,luha,uongo,basi","basi","n","5","html-keyboard-response","1185","v","luha","false","",""
"1449.300000011921","","","","","5","html-slider-response","1186","","","","1",""
"2400","fork","mgonjwa,baboy,paghago,gorisi","mgonjwa","f","5","html-keyboard-response","1187","f","mgonjwa","true","",""
"1605.9000000059605","","","","","5","html-slider-response","1188","","","","4",""
"1499","donkey","bloke,lalake,elfu,rombus","elfu","j","5","html-keyboard-response","1189","j","elfu","true","",""
"1101.5999999940395","","","","","5","html-slider-response","1190","","","","5",""
"2106","wolf","kaburi,lugha,ndizi,mchuzi","lugha","v","5","html-keyboard-response","1191","v","lugha","true","",""
"1082.5","","","","","5","html-slider-response","1192","","","","5",""
"4185","cigar","ndugu,adhabu,kuta,mlango","adhabu","v","5","html-keyboard-response","1193","f","ndugu","false","",""
"1200.9000000059605","","","","","5","html-slider-response","1194","","","","1",""
"1835","olive","jiwe,bata,siagi,welder","jiwe","f","5","html-keyboard-response","1195","f","jiwe","true","",""
"1001.5","","","","","5","html-slider-response","1196","","","","5",""
"1346","key","miaka,goma,ahos,chombo","chombo","n","5","html-keyboard-response","1197","n","chombo","true","",""
"1980.699999988079","","","","","5","html-slider-response","1198","","","","5",""
"2157","door","tena,soko,nyota,surali","surali","n","5","html-keyboard-response","1199","n","surali","true","",""
"931.7999999821186","","","","","5","html-slider-response","1200","","","","5",""
"1978","wheel","punda,bafuni,tawo,baadaye","bafuni","v","5","html-keyboard-response","1201","v","bafuni","true","",""
"951.8999999761581","","","","","5","html-slider-response","1202","","","","5",""
"1594","basket","kumbuka,utepe,kumba,hasira","kumba","j","5","html-keyboard-response","1203","j","kumba","true","",""
"1220.0999999940395","","","","","5","html-slider-response","1204","","","","5",""
"2353","elephant","kito,petye,pagduol,suka","kito","f","5","html-keyboard-response","1205","f","kito","true","",""
"1305.7000000178814","","","","","5","html-slider-response","1206","","","","2",""
"2846","office","hazini,leso,yatima,kuna","leso","v","5","html-keyboard-response","1207","v","leso","true","",""
"1369.2000000178814","","","","","5","html-slider-response","1208","","","","4",""
"3063","music","mraba,baiski,mageho,tumbo","baiski","v","5","html-keyboard-response","1209","v","baiski","true","",""
"1419.5999999940395","","","","","5","html-slider-response","1210","","","","5",""
"2291","tissue","lamigas,kisiwa,ugomvi,katika","ugomvi","j","5","html-keyboard-response","1211","v","kisiwa","false","",""
"1069.9000000059605","","","","","5","html-slider-response","1212","","","","1",""
"3287","curtain","mchanga,lisud,bulwawan,chubani","mchanga","f","5","html-keyboard-response","1213","f","mchanga","true","",""
"940.4000000059605","","","","","5","html-slider-response","1214","","","","2",""
"1671","flag","ndege,mkate,trekta,kawa","trekta","j","5","html-keyboard-response","1215","j","trekta","true","",""
"1296.2999999821186","","","","","5","html-slider-response","1216","","","","5",""
"3555","dog","lubi,bahari,washia,kalamu","bahari","v","5","html-keyboard-response","1217","v","bahari","true","",""
"2498.7999999821186","","","","","5","html-slider-response","1218","","","","1",""
"2896","cup","dagat,shimoni,jeraha,matumai","matumai","n","5","html-keyboard-response","1219","n","matumai","true","",""
"1098.199999988079","","","","","5","html-slider-response","1220","","","","1",""
"1247","sheet","bililhon,juuya,watu,kamantis","bililhon","f","5","html-keyboard-response","1221","f","bililhon","true","",""
"1209.300000011921","","","","","5","html-slider-response","1222","","","","5",""
"2788","spoon","betri,nzuri,pagsulod,ngazi","pagsulod","j","5","html-keyboard-response","1223","j","pagsulod","true","",""
"1096.0999999940395","","","","","5","html-slider-response","1224","","","","5",""
"4162","flower","bega,tamasha,lobo,usiku","bega","f","5","html-keyboard-response","1225","f","bega","true","",""
"1403.4000000059605","","","","","5","html-slider-response","1226","","","","2",""
"6929","picture","silya,chaki,asin,kubwa","kubwa","n","5","html-keyboard-response","1227","v","chaki","false","",""
"1946.5","","","","","5","html-slider-response","1228","","","","1",""
"4715","puppet","napulo,lamok,godoro,mazishi","mazishi","n","5","html-keyboard-response","1229","v","lamok","false","",""
"1115","","","","","5","html-slider-response","1230","","","","1",""
"3110","banana","kazi,kasamok,hagdan,twai","kazi","f","5","html-keyboard-response","1231","j","hagdan","false","",""
"1114.199999988079","","","","","5","html-slider-response","1232","","","","1",""
"2460","book","kuhesa,mali,picha,mara","mali","v","5","html-keyboard-response","1233","v","mali","true","",""
"1037.699999988079","","","","","5","html-slider-response","1234","","","","4",""
"2401","triangle","kihozi,bentaha,kasadpan,liog","kasadpan","j","5","html-keyboard-response","1235","f","kihozi","false","",""
"1636.8999999761581","","","","","5","html-slider-response","1236","","","","1",""
"1843","poster","madungog,nchi,fedha,kasuko","madungog","f","5","html-keyboard-response","1237","f","madungog","true","",""
"1018.5","","","","","5","html-slider-response","1238","","","","5",""
"2145","box","kuacha,rafiki,adui,kitande","adui","j","5","html-keyboard-response","1239","j","adui","true","",""
"1150.9000000059605","","","","","5","html-slider-response","1240","","","","1",""
"1221","mosquito","martilyo,isda,taras,gutom","martilyo","f","5","html-keyboard-response","1241","f","martilyo","true","",""
"961.0999999940395","","","","","5","html-slider-response","1242","","","","5",""
"3201","shelf","bungtod,pamahaw,kadaot,awit","pamahaw","v","5","html-keyboard-response","1243","f","bungtod","false","",""
"1091.5999999940395","","","","","5","html-slider-response","1244","","","","1",""
"1775","scissors","duga,mtawa,tanuri,suga","tanuri","j","5","html-keyboard-response","1245","j","tanuri","true","",""
"1332.5","","","","","5","html-slider-response","1246","","","","1",""
"1498","hammer","napakyas,mekno,kitovu,layag","napakyas","f","5","html-keyboard-response","1247","n","layag","false","",""
"1367","","","","","5","html-slider-response","1248","","","","5",""
