"rt","en_word","options","swa_word","correct_answer","phase","trial_type","trial_index","input_answer","input_word","accuracy","certainty","amt_choices"
"2537","bonfire","mwezi,mfuko,kusanya,goti","goti","n","2","html-keyboard-response","106","n","goti","true","",""
"2043.5","","","","","2","html-slider-response","107","","","","5",""
"5274","flower","tamasha,lobo,usiku,bega","bega","n","2","html-keyboard-response","108","j","usiku","false","",""
"2100.9000000003725","","","","","2","html-slider-response","109","","","","2",""
"2763","column","pundok,dila,pala,ufagio","ufagio","n","2","html-keyboard-response","110","n","ufagio","true","",""
"1873.7000000001863","","","","","2","html-slider-response","111","","","","5",""
"1690","music","mraba,baiski,mageho,tumbo","baiski","v","2","html-keyboard-response","112","v","baiski","true","",""
"1402.2999999998137","","","","","2","html-slider-response","113","","","","2",""
"2329","spider","bunyag,mkboa,atop,kamwe","kamwe","n","2","html-keyboard-response","114","n","kamwe","true","",""
"1690.8999999999069","","","","","2","html-slider-response","115","","","","2",""
"3614","fork","baboy,paghago,gorisi,mgonjwa","mgonjwa","n","2","html-keyboard-response","116","j","gorisi","false","",""
"1355","","","","","2","html-slider-response","117","","","","4",""
"1502","mosquito","isda,taras,martilyo,gutom","martilyo","j","2","html-keyboard-response","118","v","taras","false","",""
"1736","","","","","2","html-slider-response","119","","","","3",""
"2505","banana","kasamok,kazi,hagdan,twai","kazi","v","2","html-keyboard-response","120","v","kazi","true","",""
"1421.6000000000931","","","","","2","html-slider-response","121","","","","3",""
"3746","cup","matumai,dagat,shimoni,jeraha","matumai","f","2","html-keyboard-response","122","v","dagat","false","",""
"1493.6999999997206","","","","","2","html-slider-response","123","","","","3",""
"3026","shop","nopya,samaki,kerida,ndezu","samaki","v","2","html-keyboard-response","124","f","nopya","false","",""
"1652.6000000000931","","","","","2","html-slider-response","125","","","","4",""
"1087","elephant","petye,pagduol,suka,kito","kito","n","2","html-keyboard-response","126","f","petye","false","",""
"1107.1999999997206","","","","","2","html-slider-response","127","","","","4",""
"208","bucket","kiatu,baga,ijayo,init","kiatu","f","2","html-keyboard-response","128","f","kiatu","true","",""
"1502.5","","","","","2","html-slider-response","129","","","","2",""
"451","book","mali,kuhesa,picha,mara","mali","f","2","html-keyboard-response","130","n","mara","false","",""
"1452.5","","","","","2","html-slider-response","131","","","","2",""
"765","mirror","sulagma,rangi,kanding,furaha","sulagma","f","2","html-keyboard-response","132","v","rangi","false","",""
"1120.6999999997206","","","","","2","html-slider-response","133","","","","2",""
"2006","office","leso,hazini,yatima,kuna","leso","f","2","html-keyboard-response","134","n","kuna","false","",""
"1109.6999999997206","","","","","2","html-slider-response","135","","","","2",""
"215","body","nyundu,jibini,tindashan,kununa","tindashan","j","2","html-keyboard-response","136","v","jibini","false","",""
"1943.4000000003725","","","","","2","html-slider-response","137","","","","2",""
"1125","perfume","bino,katuyoan,sungura,ndogo","katuyoan","v","2","html-keyboard-response","138","f","bino","false","",""
"1350.1999999997206","","","","","2","html-slider-response","139","","","","5",""
"1083","olive","bata,jiwe,siagi,welder","jiwe","v","2","html-keyboard-response","140","j","siagi","false","",""
"1218.1999999997206","","","","","2","html-slider-response","141","","","","4",""
"1132","magazine","kiti,gundi,mchawi,bahandi","kiti","f","2","html-keyboard-response","142","j","mchawi","false","",""
"2725.899999999907","","","","","2","html-slider-response","143","","","","2",""
"310","bread","dari,kaili,dizeli,bugas","dari","f","2","html-keyboard-response","144","f","dari","true","",""
"1353.8000000002794","","","","","2","html-slider-response","145","","","","2",""
"781","cave","ganti,maisha,kesho,nyundo","kesho","j","2","html-keyboard-response","146","n","nyundo","false","",""
"1807.7000000001863","","","","","2","html-slider-response","147","","","","2",""
"800","ladder","mashua,mwanga,kamba,pangalan","pangalan","n","2","html-keyboard-response","148","f","mashua","false","",""
"2130.0999999996275","","","","","2","html-slider-response","149","","","","3",""
"945","human","tinapay,bado,kikapu,punguza","tinapay","f","2","html-keyboard-response","150","v","bado","false","",""
"1094.1999999997206","","","","","2","html-slider-response","151","","","","4",""
"1357","clock","kartasi,abang,osha,mbwa","mbwa","n","2","html-keyboard-response","152","n","mbwa","true","",""
"1432.1999999997206","","","","","2","html-slider-response","153","","","","4",""
"775","shelf","bungtod,pamahaw,kadaot,awit","pamahaw","v","2","html-keyboard-response","154","v","pamahaw","true","",""
"1505.0999999996275","","","","","2","html-slider-response","155","","","","1",""
"876","salmon","mzungu,sensilyo,seri,baharia","sensilyo","v","2","html-keyboard-response","156","j","seri","false","",""
"1439.3999999999069","","","","","2","html-slider-response","157","","","","2",""
"2027","coffin","barua,tubag,kioo,hulma","kioo","j","2","html-keyboard-response","158","j","kioo","true","",""
"1589.1999999997206","","","","","2","html-slider-response","159","","","","4",""
"108","notebook","msitu,kila,kemia,mdudu","kemia","j","2","html-keyboard-response","160","f","msitu","false","",""
"1914.6999999997206","","","","","2","html-slider-response","161","","","","3",""
"1043","shoulder","kelele,ndaniya,guruwe,mkuu","mkuu","n","2","html-keyboard-response","162","v","ndaniya","false","",""
"1664.1999999997206","","","","","2","html-slider-response","163","","","","3",""
"991","park","tambok,pwani,bunifu,ihalas","bunifu","j","2","html-keyboard-response","164","v","pwani","false","",""
"1900.8999999999069","","","","","2","html-slider-response","165","","","","4",""
"296","number","shule,mundamo,kengele,choori","mundamo","v","2","html-keyboard-response","166","n","choori","false","",""
"1880","","","","","2","html-slider-response","167","","","","2",""
"2329","apple","ukame,kisu,estante,edad","kisu","v","2","html-keyboard-response","168","j","estante","false","",""
"1074.8000000002794","","","","","2","html-slider-response","169","","","","2",""
"642","letter","filimbi,chuma,kifua,uhuru","kifua","j","2","html-keyboard-response","170","v","chuma","false","",""
"4413.5","","","","","2","html-slider-response","171","","","","3",""
"2593","eel","msumari,ishara,kunywa,kabuang","msumari","f","2","html-keyboard-response","172","j","kunywa","false","",""
"2280","","","","","2","html-slider-response","173","","","","4",""
"1253","cop","mechezo,bustani,jikoni,bakus","mechezo","f","2","html-keyboard-response","174","v","bustani","false","",""
"1231.1000000000931","","","","","2","html-slider-response","175","","","","4",""
"1400","wolf","kaburi,ndizi,mchuzi,lugha","lugha","n","2","html-keyboard-response","176","v","ndizi","false","",""
"1464.1000000000931","","","","","2","html-slider-response","177","","","","2",""
"786","squirrel","mahugaw,hofu,ukweli,kichwa","hofu","v","2","html-keyboard-response","178","n","kichwa","false","",""
"1147.6000000000931","","","","","2","html-slider-response","179","","","","2",""
"998","nose","gubat,kopa,kidole,sehemu","sehemu","n","2","html-keyboard-response","180","f","gubat","false","",""
"2642","","","","","2","html-slider-response","181","","","","3",""
"1063","sock","mamba,ndoora,kimysa,mtirka","mamba","f","2","html-keyboard-response","182","j","kimysa","false","",""
"1469.2999999998137","","","","","2","html-slider-response","183","","","","3",""
"1259","bank","kudhibi,tualya,silingan,ofisi","silingan","j","2","html-keyboard-response","184","j","silingan","true","",""
"1750","","","","","2","html-slider-response","185","","","","3",""
"671","donkey","bloke,elfu,lalake,rombus","elfu","v","2","html-keyboard-response","186","j","lalake","false","",""
"1717.9000000003725","","","","","2","html-slider-response","187","","","","3",""
"306","poster","nchi,fedha,kasuko,madungog","madungog","n","2","html-keyboard-response","188","n","madungog","true","",""
"1756.1000000000931","","","","","2","html-slider-response","189","","","","2",""
"766","puppet","napulo,mazishi,lamok,godoro","mazishi","v","2","html-keyboard-response","190","f","napulo","false","",""
"1090.1999999997206","","","","","2","html-slider-response","191","","","","4",""
"862","hill","kushoto,kukimba,matumbo,sweta","matumbo","j","2","html-keyboard-response","192","v","kukimba","false","",""
"1353.0999999996275","","","","","2","html-slider-response","193","","","","3",""
"864","tooth","kijiko,uadui,kabalaka,pahiyum","kabalaka","j","2","html-keyboard-response","194","j","kabalaka","true","",""
"1658.8999999999069","","","","","2","html-slider-response","195","","","","3",""
"1119","woman","bandari,bituin,pagtabon,kovuli","pagtabon","j","2","html-keyboard-response","196","v","bituin","false","",""
"1536.7999999998137","","","","","2","html-slider-response","197","","","","2",""
"660","wheel","bafuni,punda,tawo,baadaye","bafuni","f","2","html-keyboard-response","198","n","baadaye","false","",""
"1849.3999999999069","","","","","2","html-slider-response","199","","","","4",""
"2150","mother","kahawa,babaye,mbuzi,jokofu","babaye","v","2","html-keyboard-response","200","v","babaye","true","",""
"1839.8000000002794","","","","","2","html-slider-response","201","","","","5",""
"1895","bed","mapintas,kalipay,haraka,starehe","mapintas","f","2","html-keyboard-response","202","n","starehe","false","",""
"1575.2000000001863","","","","","2","html-slider-response","203","","","","2",""
"1135","key","miaka,goma,ahos,chombo","chombo","n","2","html-keyboard-response","204","v","goma","false","",""
"1091.3000000002794","","","","","2","html-slider-response","205","","","","2",""
"1155","page","wakala,ishiri,skina,wimbo","wimbo","n","2","html-keyboard-response","206","f","wakala","false","",""
"1191.0999999996275","","","","","2","html-slider-response","207","","","","2",""
"800","pants","pintal,chuki,hari,haki","haki","n","2","html-keyboard-response","208","v","chuki","false","",""
"1958.3999999999069","","","","","2","html-slider-response","209","","","","3",""
"1132","sun","bendi,luha,basi,uongo","basi","j","2","html-keyboard-response","210","n","uongo","false","",""
"1967.7000000001863","","","","","2","html-slider-response","211","","","","3",""
"944","finger","simu,sufuria,lima,moyo","moyo","n","2","html-keyboard-response","212","f","simu","false","",""
"1174.2000000001863","","","","","2","html-slider-response","213","","","","4",""
"848","shoe","uyoga,nyeusi,hatua,kama","uyoga","f","2","html-keyboard-response","214","j","hatua","false","",""
"1501","","","","","2","html-slider-response","215","","","","3",""
"813","giraffe","daraja,mahitabo,jumatu,hangyo","mahitabo","v","2","html-keyboard-response","216","v","mahitabo","true","",""
"1490.3000000002794","","","","","2","html-slider-response","217","","","","3",""
"5413","dog","lubi,bahari,washia,kalamu","bahari","v","2","html-keyboard-response","218","f","lubi","false","",""
"1380.3999999999069","","","","","2","html-slider-response","219","","","","5",""
"3158","box","adui,kuacha,rafiki,kitande","adui","f","2","html-keyboard-response","220","f","adui","true","",""
"1092.9000000003725","","","","","2","html-slider-response","221","","","","5",""
"3942","scissors","duga,mtawa,suga,tanuri","tanuri","n","2","html-keyboard-response","222","n","tanuri","true","",""
"3121.600000000093","","","","","2","html-slider-response","223","","","","3",""
"1325","cat","paghukom,neyemba,baki,akili","paghukom","f","2","html-keyboard-response","224","f","paghukom","true","",""
"2263.9000000003725","","","","","2","html-slider-response","225","","","","3",""
"250","basket","kumbuka,kumba,utepe,hasira","kumba","v","2","html-keyboard-response","226","j","utepe","false","",""
"967.1000000000931","","","","","2","html-slider-response","227","","","","2",""
"689","snake","jansa,pagtukod,karon,mvringo","pagtukod","v","2","html-keyboard-response","228","n","mvringo","false","",""
"1662.0999999996275","","","","","2","html-slider-response","229","","","","2",""
"174","gift","baba,pagtawag,nyange,baso","pagtawag","v","2","html-keyboard-response","230","j","nyange","false","",""
"2114.2999999998137","","","","","2","html-slider-response","231","","","","5",""
"2655","train","itik,sayari,dakika,mungu","sayari","v","2","html-keyboard-response","232","v","sayari","true","",""
"1176.7000000001863","","","","","2","html-slider-response","233","","","","2",""
"2948","pudding","abug,mpishi,iring,aibu","aibu","n","2","html-keyboard-response","234","j","iring","false","",""
"1259.6999999997206","","","","","2","html-slider-response","235","","","","4",""
"1068","tomato","chupi,chupa,mvua,takatak","mvua","j","2","html-keyboard-response","236","v","chupa","false","",""
"1595.3999999999069","","","","","2","html-slider-response","237","","","","2",""
"1037","stone","wingi,ulimwengu,mkasi,asili","wingi","f","2","html-keyboard-response","238","v","ulimwengu","false","",""
"1620.1999999997206","","","","","2","html-slider-response","239","","","","4",""
"961","hammer","mekno,kitovu,napakyas,layag","napakyas","j","2","html-keyboard-response","240","n","layag","false","",""
"1290.1000000000931","","","","","2","html-slider-response","241","","","","1",""
"2042","knee","mvuke,kubale,duka,bili","duka","j","2","html-keyboard-response","242","f","mvuke","false","",""
"1436","","","","","2","html-slider-response","243","","","","4",""
"2181","ceiling","kugita,kawaida,rayna,maua","maua","n","2","html-keyboard-response","244","v","kawaida","false","",""
"1965.3000000002794","","","","","2","html-slider-response","245","","","","5",""
"1626","spoon","pagsulod,betri,nzuri,ngazi","pagsulod","f","2","html-keyboard-response","246","v","betri","false","",""
"2315.2999999998137","","","","","2","html-slider-response","247","","","","2",""
"80","marker","mapafu,maji,salita,atay","maji","v","2","html-keyboard-response","248","j","salita","false","",""
"3127.2000000001863","","","","","2","html-slider-response","249","","","","2",""
"103","candle","gabi,geza,farasi,kupanda","geza","v","2","html-keyboard-response","250","f","gabi","false","",""
"1405.3000000002794","","","","","2","html-slider-response","251","","","","3",""
"643","tissue","ugomvi,lamigas,kisiwa,katika","ugomvi","f","2","html-keyboard-response","252","n","katika","false","",""
"1411.0999999996275","","","","","2","html-slider-response","253","","","","3",""
"2702","bridge","daima,ngono,panya,sahani","sahani","n","2","html-keyboard-response","254","j","panya","false","",""
"2308.7999999998137","","","","","2","html-slider-response","255","","","","1",""
"1591","berry","abogado,nogozi,kinywa,kofia","kofia","n","2","html-keyboard-response","256","v","nogozi","false","",""
"1964.3000000002794","","","","","2","html-slider-response","257","","","","4",""
"1639","triangle","kihozi,bentaha,liog,kasadpan","kasadpan","n","2","html-keyboard-response","258","v","bentaha","false","",""
"2989.100000000093","","","","","2","html-slider-response","259","","","","3",""
"933","door","tena,soko,nyota,surali","surali","n","2","html-keyboard-response","260","v","soko","false","",""
"1530.7000000001863","","","","","2","html-slider-response","261","","","","4",""
"882","fish","bala,baho,imani,buli","buli","n","2","html-keyboard-response","262","n","buli","true","",""
"2201.2999999998137","","","","","2","html-slider-response","263","","","","2",""
"639","curtain","lisud,bulwawan,mchanga,chubani","mchanga","j","2","html-keyboard-response","264","n","chubani","false","",""
"2092.399999999907","","","","","2","html-slider-response","265","","","","3",""
"1453","flag","ndege,trekta,mkate,kawa","trekta","v","2","html-keyboard-response","266","f","ndege","false","",""
"1559.6000000000931","","","","","2","html-slider-response","267","","","","4",""
"1096","boat","agalon,hamsi,pombe,kitanda","agalon","f","2","html-keyboard-response","268","v","hamsi","false","",""
"1595.6000000000931","","","","","2","html-slider-response","269","","","","2",""
"2055","rose","paghalad,singizi,mwanake,amani","paghalad","f","2","html-keyboard-response","270","v","singizi","false","",""
"1318","","","","","2","html-slider-response","271","","","","4",""
"695","lamp","daub,bilaska,mbolea,afya","afya","n","2","html-keyboard-response","272","v","bilaska","false","",""
"1504","","","","","2","html-slider-response","273","","","","2",""
"531","cigar","ndugu,kuta,adhabu,mlango","adhabu","j","2","html-keyboard-response","274","v","kuta","false","",""
"2435.2999999998137","","","","","2","html-slider-response","275","","","","1",""
"1811","list","alizeti,wingu,kuzama,kaso","wingu","v","2","html-keyboard-response","276","j","kuzama","false","",""
"1142.9000000003725","","","","","2","html-slider-response","277","","","","4",""
"1025","sheet","juuya,watu,bililhon,kamantis","bililhon","j","2","html-keyboard-response","278","n","kamantis","false","",""
"2469.6999999997206","","","","","2","html-slider-response","279","","","","3",""
"820","picture","silya,chaki,asin,kubwa","kubwa","n","2","html-keyboard-response","280","f","silya","false","",""
"1506.2999999998137","","","","","2","html-slider-response","281","","","","3",""
"955","towel","tembo,pagpalit,funzi,pito","pagpalit","v","2","html-keyboard-response","282","n","pito","false","",""
"1499.9000000003725","","","","","2","html-slider-response","283","","","","3",""
"933","window","kweli,nanga,kujenga,umaga","kweli","f","2","html-keyboard-response","284","v","nanga","false","",""
"2226.100000000093","","","","","2","html-slider-response","285","","","","1",""
"4430","box","kuacha,rafiki,adui,kitande","adui","j","3","html-keyboard-response","293","v","rafiki","false","","4"
"1370.5","","","","","3","html-slider-response","294","","","","2",""
"1933","","","","","3","html-keyboard-response","295","","","","",""
"4711","pants","pintal,chuki,haki,hari","haki","j","3","html-keyboard-response","296","f","pintal","false","","4"
"2667.1999999997206","","","","","3","html-slider-response","297","","","","4",""
"1843","","","","","3","html-keyboard-response","298","","","","",""
"2206","cup","dagat,shimoni,jeraha,matumai","matumai","n","3","html-keyboard-response","299","f","dagat","false","","4"
"1441","","","","","3","html-slider-response","300","","","","2",""
"925","","","","","3","html-keyboard-response","301","","","","",""
"1978","triangle","kihozi,bentaha,liog,kasadpan","kasadpan","n","3","html-keyboard-response","302","n","kasadpan","true","","4"
"1903","","","","","3","html-slider-response","303","","","","4",""
"1718","","","","","3","html-keyboard-response","304","","","","",""
"4673","curtain","lisud,mchanga,bulwawan,chubani","mchanga","v","3","html-keyboard-response","305","n","chubani","false","","4"
"1393.1000000000931","","","","","3","html-slider-response","306","","","","4",""
"1162","","","","","3","html-keyboard-response","307","","","","",""
"2825","clock","kartasi,abang,osha,mbwa","mbwa","n","3","html-keyboard-response","308","n","mbwa","true","","4"
"1176.8999999999069","","","","","3","html-slider-response","309","","","","5",""
"1422","","","","","3","html-keyboard-response","310","","","","",""
"2790","mirror","sulagma,rangi,kanding,furaha","sulagma","f","3","html-keyboard-response","311","f","sulagma","true","","4"
"1928.6999999997206","","","","","3","html-slider-response","312","","","","2",""
"1091","","","","","3","html-keyboard-response","313","","","","",""
"7378","coffin","kioo,barua,tubag,hulma","kioo","f","3","html-keyboard-response","314","f","kioo","true","","1"
"2258","","","","","3","html-slider-response","315","","","","2",""
"1332","","","","","3","html-keyboard-response","316","","","","",""
"9010","magazine","gundi,mchawi,bahandi,kiti","kiti","n","3","html-keyboard-response","317","n","kiti","true","","4"
"1687.5","","","","","3","html-slider-response","318","","","","4",""
"1195","","","","","3","html-keyboard-response","319","","","","",""
"1677","column","pundok,dila,ufagio,pala","ufagio","j","3","html-keyboard-response","320","j","ufagio","true","","1"
"1605.6000000000931","","","","","3","html-slider-response","321","","","","5",""
"564","","","","","3","html-keyboard-response","322","","","","",""
"6977","number","shule,kengele,mundamo,choori","mundamo","j","3","html-keyboard-response","323","f","shule","false","","4"
"1872.6000000000931","","","","","3","html-slider-response","324","","","","4",""
"833","","","","","3","html-keyboard-response","325","","","","",""
"2311","rose","singizi,paghalad,mwanake,amani","paghalad","v","3","html-keyboard-response","326","v","paghalad","true","","4"
"1157.6999999997206","","","","","3","html-slider-response","327","","","","2",""
"987","","","","","3","html-keyboard-response","328","","","","",""
"2257","eel","ishara,msumari,kunywa,kabuang","msumari","v","3","html-keyboard-response","329","f","ishara","false","","4"
"1316","","","","","3","html-slider-response","330","","","","1",""
"559","","","","","3","html-keyboard-response","331","","","","",""
"1981","gift","baba,pagtawag,nyange,baso","pagtawag","v","3","html-keyboard-response","332","n","baso","false","","4"
"1626.3999999999069","","","","","3","html-slider-response","333","","","","4",""
"515","","","","","3","html-keyboard-response","334","","","","",""
"1547","apple","ukame,estante,kisu,edad","kisu","j","3","html-keyboard-response","335","j","kisu","true","","1"
"1745.1999999997206","","","","","3","html-slider-response","336","","","","5",""
"739","","","","","3","html-keyboard-response","337","","","","",""
"1953","wheel","punda,tawo,bafuni,baadaye","bafuni","j","3","html-keyboard-response","338","j","bafuni","true","","1"
"1693.1000000000931","","","","","3","html-slider-response","339","","","","5",""
"517","","","","","3","html-keyboard-response","340","","","","",""
"2064","knee","mvuke,kubale,bili,duka","duka","n","3","html-keyboard-response","341","v","kubale","false","","4"
"1499.6000000000931","","","","","3","html-slider-response","342","","","","1",""
"992","","","","","3","html-keyboard-response","343","","","","",""
"1418","basket","kumba,kumbuka,utepe,hasira","kumba","f","3","html-keyboard-response","344","f","kumba","true","","1"
"1566.0999999996275","","","","","3","html-slider-response","345","","","","5",""
"506","","","","","3","html-keyboard-response","346","","","","",""
"4366","park","tambok,pwani,bunifu,ihalas","bunifu","j","3","html-keyboard-response","347","f","tambok","false","","4"
"2119.899999999907","","","","","3","html-slider-response","348","","","","3",""
"661","","","","","3","html-keyboard-response","349","","","","",""
"1569","finger","simu,moyo,sufuria,lima","moyo","v","3","html-keyboard-response","350","n","lima","false","","4"
"1838.8999999999069","","","","","3","html-slider-response","351","","","","3",""
"1038","","","","","3","html-keyboard-response","352","","","","",""
"1572","boat","hamsi,pombe,kitanda,agalon","agalon","n","3","html-keyboard-response","353","v","pombe","false","","4"
"1724.1000000000931","","","","","3","html-slider-response","354","","","","2",""
"619","","","","","3","html-keyboard-response","355","","","","",""
"1662","hill","kushoto,kukimba,sweta,matumbo","matumbo","n","3","html-keyboard-response","356","f","kushoto","false","","4"
"1119.5","","","","","3","html-slider-response","357","","","","2",""
"556","","","","","3","html-keyboard-response","358","","","","",""
"1539","train","sayari,itik,dakika,mungu","sayari","f","3","html-keyboard-response","359","v","itik","false","","4"
"1254.8000000002794","","","","","3","html-slider-response","360","","","","4",""
"914","","","","","3","html-keyboard-response","361","","","","",""
"1630","wolf","kaburi,ndizi,lugha,mchuzi","lugha","j","3","html-keyboard-response","362","n","mchuzi","false","","4"
"1308.1999999997206","","","","","3","html-slider-response","363","","","","2",""
"551","","","","","3","html-keyboard-response","364","","","","",""
"1528","snake","jansa,karon,pagtukod,mvringo","pagtukod","j","3","html-keyboard-response","365","j","pagtukod","true","","4"
"1362.1999999997206","","","","","3","html-slider-response","366","","","","4",""
"931","","","","","3","html-keyboard-response","367","","","","",""
"1847","tooth","kijiko,kabalaka,uadui,pahiyum","kabalaka","v","3","html-keyboard-response","368","n","pahiyum","false","","4"
"1196.8999999999069","","","","","3","html-slider-response","369","","","","4",""
"397","","","","","3","html-keyboard-response","370","","","","",""
"3056","notebook","kemia,msitu,kila,mdudu","kemia","f","3","html-keyboard-response","371","v","msitu","false","","4"
"2460.5999999996275","","","","","3","html-slider-response","372","","","","2",""
"434","","","","","3","html-keyboard-response","373","","","","",""
"1427","flag","ndege,mkate,kawa,trekta","trekta","n","3","html-keyboard-response","374","f","ndege","false","","4"
"1155.7999999998137","","","","","3","html-slider-response","375","","","","2",""
"559","","","","","3","html-keyboard-response","376","","","","",""
"1211","squirrel","mahugaw,ukweli,kichwa,hofu","hofu","n","3","html-keyboard-response","377","n","hofu","true","","4"
"1309.1999999997206","","","","","3","html-slider-response","378","","","","4",""
"496","","","","","3","html-keyboard-response","379","","","","",""
"1290","door","tena,soko,nyota,surali","surali","n","3","html-keyboard-response","380","v","soko","false","","4"
"2284.899999999907","","","","","3","html-slider-response","381","","","","3",""
"1131","","","","","3","html-keyboard-response","382","","","","",""
"1086","salmon","mzungu,sensilyo,seri,baharia","sensilyo","v","3","html-keyboard-response","383","j","seri","false","","4"
"1249","","","","","3","html-slider-response","384","","","","4",""
"421","","","","","3","html-keyboard-response","385","","","","",""
"2540","shoulder","kelele,mkuu,ndaniya,guruwe","mkuu","v","3","html-keyboard-response","386","f","kelele","false","","4"
"1280.2999999998137","","","","","3","html-slider-response","387","","","","2",""
"633","","","","","3","html-keyboard-response","388","","","","",""
"1119","lamp","daub,bilaska,mbolea,afya","afya","n","3","html-keyboard-response","389","v","bilaska","false","","4"
"1170","","","","","3","html-slider-response","390","","","","2",""
"759","","","","","3","html-keyboard-response","391","","","","",""
"1660","shelf","bungtod,pamahaw,kadaot,awit","pamahaw","v","3","html-keyboard-response","392","v","pamahaw","true","","1"
"1513.2999999998137","","","","","3","html-slider-response","393","","","","2",""
"866","","","","","3","html-keyboard-response","394","","","","",""
"2665","human","bado,kikapu,punguza,tinapay","tinapay","n","3","html-keyboard-response","395","n","tinapay","true","","4"
"1222.5","","","","","3","html-slider-response","396","","","","4",""
"608","","","","","3","html-keyboard-response","397","","","","",""
"2198","towel","tembo,funzi,pito,pagpalit","pagpalit","n","3","html-keyboard-response","398","j","pito","false","","4"
"1998.5","","","","","3","html-slider-response","399","","","","4",""
"523","","","","","3","html-keyboard-response","400","","","","",""
"2749","cat","neyemba,paghukom,baki,akili","paghukom","v","3","html-keyboard-response","401","j","baki","false","","4"
"1319","","","","","3","html-slider-response","402","","","","2",""
"505","","","","","3","html-keyboard-response","403","","","","",""
"1568","spider","kamwe,bunyag,mkboa,atop","kamwe","f","3","html-keyboard-response","404","v","bunyag","false","","4"
"1145.2999999998137","","","","","3","html-slider-response","405","","","","2",""
"418","","","","","3","html-keyboard-response","406","","","","",""
"1057","window","nanga,kujenga,kweli,umaga","kweli","j","3","html-keyboard-response","407","n","umaga","false","","4"
"1340.2999999998137","","","","","3","html-slider-response","408","","","","5",""
"503","","","","","3","html-keyboard-response","409","","","","",""
"1501","woman","bandari,pagtabon,bituin,kovuli","pagtabon","v","3","html-keyboard-response","410","v","pagtabon","true","","1"
"1429","","","","","3","html-slider-response","411","","","","5",""
"1002","","","","","3","html-keyboard-response","412","","","","",""
"1594","giraffe","daraja,jumatu,hangyo,mahitabo","mahitabo","n","3","html-keyboard-response","413","n","mahitabo","true","","4"
"1626.2000000001863","","","","","3","html-slider-response","414","","","","3",""
"717","","","","","3","html-keyboard-response","415","","","","",""
"1097","elephant","petye,pagduol,kito,suka","kito","j","3","html-keyboard-response","416","v","pagduol","false","","4"
"1035.1999999997206","","","","","3","html-slider-response","417","","","","2",""
"468","","","","","3","html-keyboard-response","418","","","","",""
"2296","cave","kesho,ganti,maisha,nyundo","kesho","f","3","html-keyboard-response","419","v","ganti","false","","4"
"4646.0999999996275","","","","","3","html-slider-response","420","","","","3",""
"424","","","","","3","html-keyboard-response","421","","","","",""
"1859","bread","kaili,dari,dizeli,bugas","dari","v","3","html-keyboard-response","422","j","dizeli","false","","4"
"1998.6999999997206","","","","","3","html-slider-response","423","","","","3",""
"669","","","","","3","html-keyboard-response","424","","","","",""
"1762","stone","ulimwengu,wingi,mkasi,asili","wingi","v","3","html-keyboard-response","425","v","wingi","true","","4"
"1971.7999999998137","","","","","3","html-slider-response","426","","","","3",""
"694","","","","","3","html-keyboard-response","427","","","","",""
"3313","donkey","bloke,elfu,lalake,rombus","elfu","v","3","html-keyboard-response","428","n","rombus","false","","4"
"1509.6000000000931","","","","","3","html-slider-response","429","","","","2",""
"421","","","","","3","html-keyboard-response","430","","","","",""
"1922","bridge","sahani,daima,ngono,panya","sahani","f","3","html-keyboard-response","431","v","daima","false","","4"
"1349.1000000000931","","","","","3","html-slider-response","432","","","","4",""
"385","","","","","3","html-keyboard-response","433","","","","",""
"1014","bonfire","mwezi,mfuko,kusanya,goti","goti","n","3","html-keyboard-response","434","v","mfuko","false","","4"
"1525","","","","","3","html-slider-response","435","","","","2",""
"455","","","","","3","html-keyboard-response","436","","","","",""
"1351","book","kuhesa,picha,mara,mali","mali","n","3","html-keyboard-response","437","n","mali","true","","4"
"1285.1999999997206","","","","","3","html-slider-response","438","","","","5",""
"777","","","","","3","html-keyboard-response","439","","","","",""
"2415","fish","bala,buli,baho,imani","buli","v","3","html-keyboard-response","440","n","imani","false","","4"
"1766.1000000000931","","","","","3","html-slider-response","441","","","","1",""
"430","","","","","3","html-keyboard-response","442","","","","",""
"946","spoon","betri,nzuri,pagsulod,ngazi","pagsulod","j","3","html-keyboard-response","443","v","nzuri","false","","4"
"1156.1000000000931","","","","","3","html-slider-response","444","","","","1",""
"510","","","","","3","html-keyboard-response","445","","","","",""
"829","scissors","tanuri,duga,mtawa,suga","tanuri","f","3","html-keyboard-response","446","v","duga","false","","4"
"1000.1000000000931","","","","","3","html-slider-response","447","","","","2",""
"402","","","","","3","html-keyboard-response","448","","","","",""
"1013","page","wimbo,wakala,ishiri,skina","wimbo","f","3","html-keyboard-response","449","n","skina","false","","4"
"1409.8000000002794","","","","","3","html-slider-response","450","","","","4",""
"486","","","","","3","html-keyboard-response","451","","","","",""
"1192","nose","gubat,kopa,sehemu,kidole","sehemu","j","3","html-keyboard-response","452","j","sehemu","true","","1"
"1235","","","","","3","html-slider-response","453","","","","5",""
"601","","","","","3","html-keyboard-response","454","","","","",""
"1477","ceiling","kugita,maua,kawaida,rayna","maua","v","3","html-keyboard-response","455","n","rayna","false","","4"
"1134.1000000000931","","","","","3","html-slider-response","456","","","","2",""
"505","","","","","3","html-keyboard-response","457","","","","",""
"2061","bucket","baga,kiatu,ijayo,init","kiatu","v","3","html-keyboard-response","458","v","kiatu","true","","4"
"1767.1000000000931","","","","","3","html-slider-response","459","","","","3",""
"519","","","","","3","html-keyboard-response","460","","","","",""
"1141","berry","abogado,kofia,nogozi,kinywa","kofia","v","3","html-keyboard-response","461","v","kofia","true","","1"
"1438.6000000000931","","","","","3","html-slider-response","462","","","","5",""
"391","","","","","3","html-keyboard-response","463","","","","",""
"827","mother","kahawa,babaye,mbuzi,jokofu","babaye","v","3","html-keyboard-response","464","v","babaye","true","","1"
"1470.6000000000931","","","","","3","html-slider-response","465","","","","5",""
"329","","","","","3","html-keyboard-response","466","","","","",""
"3417","mosquito","isda,taras,martilyo,gutom","martilyo","j","3","html-keyboard-response","467","n","gutom","false","","4"
"1289.7999999998137","","","","","3","html-slider-response","468","","","","2",""
"490","","","","","3","html-keyboard-response","469","","","","",""
"1364","perfume","bino,sungura,ndogo,katuyoan","katuyoan","n","3","html-keyboard-response","470","v","sungura","false","","4"
"1512.7999999998137","","","","","3","html-slider-response","471","","","","1",""
"462","","","","","3","html-keyboard-response","472","","","","",""
"1077","sheet","juuya,watu,kamantis,bililhon","bililhon","n","3","html-keyboard-response","473","n","bililhon","true","","4"
"1174","","","","","3","html-slider-response","474","","","","5",""
"656","","","","","3","html-keyboard-response","475","","","","",""
"1237","puppet","mazishi,napulo,lamok,godoro","mazishi","f","3","html-keyboard-response","476","f","mazishi","true","","1"
"1152.1000000000931","","","","","3","html-slider-response","477","","","","5",""
"666","","","","","3","html-keyboard-response","478","","","","",""
"937","poster","madungog,nchi,fedha,kasuko","madungog","f","3","html-keyboard-response","479","v","nchi","false","","4"
"1159.1999999997206","","","","","3","html-slider-response","480","","","","4",""
"375","","","","","3","html-keyboard-response","481","","","","",""
"1121","music","mraba,mageho,tumbo,baiski","baiski","n","3","html-keyboard-response","482","n","baiski","true","","4"
"1218","","","","","3","html-slider-response","483","","","","2",""
"846","","","","","3","html-keyboard-response","484","","","","",""
"934","key","miaka,chombo,goma,ahos","chombo","v","3","html-keyboard-response","485","n","ahos","false","","4"
"1581.5","","","","","3","html-slider-response","486","","","","2",""
"306","","","","","3","html-keyboard-response","487","","","","",""
"1135","sock","ndoora,kimysa,mtirka,mamba","mamba","n","3","html-keyboard-response","488","v","kimysa","false","","4"
"2114","","","","","3","html-slider-response","489","","","","4",""
"300","","","","","3","html-keyboard-response","490","","","","",""
"1255","marker","mapafu,salita,atay,maji","maji","n","3","html-keyboard-response","491","j","atay","false","","4"
"1128.1000000000931","","","","","3","html-slider-response","492","","","","2",""
"492","","","","","3","html-keyboard-response","493","","","","",""
"959","office","leso,hazini,yatima,kuna","leso","f","3","html-keyboard-response","494","n","kuna","false","","4"
"1501.5","","","","","3","html-slider-response","495","","","","4",""
"738","","","","","3","html-keyboard-response","496","","","","",""
"1372","shoe","nyeusi,hatua,kama,uyoga","uyoga","n","3","html-keyboard-response","497","v","hatua","false","","4"
"2163.7999999998137","","","","","3","html-slider-response","498","","","","3",""
"394","","","","","3","html-keyboard-response","499","","","","",""
"1324","cop","bustani,mechezo,jikoni,bakus","mechezo","v","3","html-keyboard-response","500","v","mechezo","true","","4"
"1125.1000000000931","","","","","3","html-slider-response","501","","","","1",""
"428","","","","","3","html-keyboard-response","502","","","","",""
"1192","bank","kudhibi,silingan,tualya,ofisi","silingan","v","3","html-keyboard-response","503","n","ofisi","false","","4"
"1830.5","","","","","3","html-slider-response","504","","","","4",""
"346","","","","","3","html-keyboard-response","505","","","","",""
"1299","letter","filimbi,chuma,uhuru,kifua","kifua","n","3","html-keyboard-response","506","n","kifua","true","","1"
"1354.3000000002794","","","","","3","html-slider-response","507","","","","5",""
"379","","","","","3","html-keyboard-response","508","","","","",""
"1269","dog","bahari,lubi,washia,kalamu","bahari","f","3","html-keyboard-response","509","f","bahari","true","","1"
"1006.1000000000931","","","","","3","html-slider-response","510","","","","5",""
"820","","","","","3","html-keyboard-response","511","","","","",""
"1334","shop","nopya,kerida,samaki,ndezu","samaki","j","3","html-keyboard-response","512","n","ndezu","false","","4"
"1754.1000000000931","","","","","3","html-slider-response","513","","","","3",""
"372","","","","","3","html-keyboard-response","514","","","","",""
"950","flower","bega,tamasha,lobo,usiku","bega","f","3","html-keyboard-response","515","v","tamasha","false","","4"
"3658.2000000001863","","","","","3","html-slider-response","516","","","","4",""
"684","","","","","3","html-keyboard-response","517","","","","",""
"1183","cigar","adhabu,ndugu,kuta,mlango","adhabu","f","3","html-keyboard-response","518","f","adhabu","true","","1"
"1531.1000000000931","","","","","3","html-slider-response","519","","","","5",""
"437","","","","","3","html-keyboard-response","520","","","","",""
"171","hammer","mekno,napakyas,kitovu,layag","napakyas","v","3","html-keyboard-response","521","f","mekno","false","","4"
"1900.3999999999069","","","","","3","html-slider-response","522","","","","1",""
"468","","","","","3","html-keyboard-response","523","","","","",""
"966","fork","baboy,paghago,mgonjwa,gorisi","mgonjwa","j","3","html-keyboard-response","524","f","baboy","false","","4"
"1705.5","","","","","3","html-slider-response","525","","","","4",""
"229","","","","","3","html-keyboard-response","526","","","","",""
"1231","sun","bendi,basi,luha,uongo","basi","v","3","html-keyboard-response","527","v","basi","true","","1"
"1601.2000000001863","","","","","3","html-slider-response","528","","","","5",""
"152","","","","","3","html-keyboard-response","529","","","","",""
"1386","ladder","mashua,mwanga,pangalan,kamba","pangalan","j","3","html-keyboard-response","530","f","mashua","false","","4"
"2099.600000000093","","","","","3","html-slider-response","531","","","","1",""
"626","","","","","3","html-keyboard-response","532","","","","",""
"1156","banana","kasamok,hagdan,kazi,twai","kazi","j","3","html-keyboard-response","533","j","kazi","true","","1"
"1059.1000000000931","","","","","3","html-slider-response","534","","","","5",""
"497","","","","","3","html-keyboard-response","535","","","","",""
"1254","pudding","abug,mpishi,iring,aibu","aibu","n","3","html-keyboard-response","536","f","abug","false","","4"
"3247.100000000093","","","","","3","html-slider-response","537","","","","4",""
"177","","","","","3","html-keyboard-response","538","","","","",""
"1134","body","nyundu,jibini,kununa,tindashan","tindashan","n","3","html-keyboard-response","539","v","jibini","false","","4"
"1659.7999999998137","","","","","3","html-slider-response","540","","","","2",""
"557","","","","","3","html-keyboard-response","541","","","","",""
"1558","bed","kalipay,haraka,starehe,mapintas","mapintas","n","3","html-keyboard-response","542","n","mapintas","true","","4"
"1529.2000000001863","","","","","3","html-slider-response","543","","","","4",""
"490","","","","","3","html-keyboard-response","544","","","","",""
"2784","tissue","lamigas,ugomvi,kisiwa,katika","ugomvi","v","3","html-keyboard-response","545","f","lamigas","false","","4"
"1359.5","","","","","3","html-slider-response","546","","","","2",""
"356","","","","","3","html-keyboard-response","547","","","","",""
"861","candle","gabi,farasi,geza,kupanda","geza","j","3","html-keyboard-response","548","f","gabi","false","","4"
"1602.3000000002794","","","","","3","html-slider-response","549","","","","1",""
"505","","","","","3","html-keyboard-response","550","","","","",""
"1702","tomato","mvua,chupi,chupa,takatak","mvua","f","3","html-keyboard-response","551","f","mvua","true","","1"
"1650.2000000001863","","","","","3","html-slider-response","552","","","","5",""
"621","","","","","3","html-keyboard-response","553","","","","",""
"1290","list","alizeti,kuzama,kaso,wingu","wingu","n","3","html-keyboard-response","554","f","alizeti","false","","4"
"1330","","","","","3","html-slider-response","555","","","","4",""
"454","","","","","3","html-keyboard-response","556","","","","",""
"1214","olive","jiwe,bata,siagi,welder","jiwe","f","3","html-keyboard-response","557","v","bata","false","","4"
"1487.1000000000931","","","","","3","html-slider-response","558","","","","1",""
"420","","","","","3","html-keyboard-response","559","","","","",""
"1133","picture","silya,kubwa,chaki,asin","kubwa","v","3","html-keyboard-response","560","v","kubwa","true","","1"
"1681.3999999999069","","","","","3","html-slider-response","561","","","","5",""
"766","","","","","3","html-keyboard-response","562","","","","",""
"4270","page","wakala,ishiri,wimbo,skina","wimbo","j","4","html-keyboard-response","888","f","wakala","false","",""
"1452.1999999997206","","","","","4","html-slider-response","889","","","","2",""
"1028","sheet","bililhon,juuya,watu,kamantis","bililhon","f","4","html-keyboard-response","890","v","juuya","false","",""
"1127","","","","","4","html-slider-response","891","","","","2",""
"2876","ladder","mashua,mwanga,pangalan,kamba","pangalan","j","4","html-keyboard-response","892","n","kamba","false","",""
"926.8999999999069","","","","","4","html-slider-response","893","","","","2",""
"1581","door","surali,tena,soko,nyota","surali","f","4","html-keyboard-response","894","j","soko","false","",""
"2401.1999999997206","","","","","4","html-slider-response","895","","","","3",""
"1275","spider","bunyag,mkboa,atop,kamwe","kamwe","n","4","html-keyboard-response","896","n","kamwe","true","",""
"1086.2999999998137","","","","","4","html-slider-response","897","","","","1",""
"1635","picture","silya,kubwa,chaki,asin","kubwa","v","4","html-keyboard-response","898","v","kubwa","true","",""
"1166.8999999999069","","","","","4","html-slider-response","899","","","","4",""
"1915","boat","hamsi,pombe,kitanda,agalon","agalon","n","4","html-keyboard-response","900","v","pombe","false","",""
"1208.2000000001863","","","","","4","html-slider-response","901","","","","4",""
"348","donkey","bloke,elfu,lalake,rombus","elfu","v","4","html-keyboard-response","902","n","rombus","false","",""
"1587.1999999997206","","","","","4","html-slider-response","903","","","","2",""
"2566","book","mali,kuhesa,picha,mara","mali","f","4","html-keyboard-response","904","j","picha","false","",""
"1587.5","","","","","4","html-slider-response","905","","","","2",""
"24","cup","dagat,shimoni,jeraha,matumai","matumai","n","4","html-keyboard-response","906","n","matumai","true","",""
"2361.399999999907","","","","","4","html-slider-response","907","","","","2",""
"107","sun","bendi,luha,uongo,basi","basi","n","4","html-keyboard-response","908","f","bendi","false","",""
"1163.3000000002794","","","","","4","html-slider-response","909","","","","4",""
"475","pudding","aibu,abug,mpishi,iring","aibu","f","4","html-keyboard-response","910","j","mpishi","false","",""
"3281.2000000001863","","","","","4","html-slider-response","911","","","","3",""
"453","human","bado,tinapay,kikapu,punguza","tinapay","v","4","html-keyboard-response","912","n","punguza","false","",""
"1378.2000000001863","","","","","4","html-slider-response","913","","","","1",""
"98","squirrel","mahugaw,ukweli,kichwa,hofu","hofu","n","4","html-keyboard-response","914","f","mahugaw","false","",""
"1500.1000000005588","","","","","4","html-slider-response","915","","","","2",""
"36","park","bunifu,tambok,pwani,ihalas","bunifu","f","4","html-keyboard-response","916","n","ihalas","false","",""
"1242.2999999998137","","","","","4","html-slider-response","917","","","","4",""
"213","poster","nchi,fedha,madungog,kasuko","madungog","j","4","html-keyboard-response","918","j","madungog","true","",""
"1981.0999999996275","","","","","4","html-slider-response","919","","","","5",""
"109","wolf","lugha,kaburi,ndizi,mchuzi","lugha","f","4","html-keyboard-response","920","f","lugha","true","",""
"3278.4000000003725","","","","","4","html-slider-response","921","","","","2",""
"5999","cat","neyemba,baki,akili,paghukom","paghukom","n","4","html-keyboard-response","922","v","baki","false","",""
"2047.7999999998137","","","","","4","html-slider-response","923","","","","2",""
"111","fish","bala,buli,baho,imani","buli","v","4","html-keyboard-response","924","f","bala","false","",""
"1415.9000000003725","","","","","4","html-slider-response","925","","","","4",""
"41","tooth","kijiko,kabalaka,uadui,pahiyum","kabalaka","v","4","html-keyboard-response","926","f","kijiko","false","",""
"1226.300000000745","","","","","4","html-slider-response","927","","","","2",""
"114","cave","kesho,ganti,maisha,nyundo","kesho","f","4","html-keyboard-response","928","f","kesho","true","",""
"2092.4000000003725","","","","","4","html-slider-response","929","","","","3",""
"296","lamp","daub,bilaska,afya,mbolea","afya","j","4","html-keyboard-response","930","f","daub","false","",""
"1489.1000000005588","","","","","4","html-slider-response","931","","","","5",""
"224","banana","kazi,kasamok,hagdan,twai","kazi","f","4","html-keyboard-response","932","f","kazi","true","",""
"1377.300000000745","","","","","4","html-slider-response","933","","","","1",""
"358","bonfire","mwezi,mfuko,goti,kusanya","goti","j","4","html-keyboard-response","934","f","mwezi","false","",""
"1230.3999999994412","","","","","4","html-slider-response","935","","","","2",""
"201","cop","bustani,jikoni,bakus,mechezo","mechezo","n","4","html-keyboard-response","936","f","bustani","false","",""
"1254.4000000003725","","","","","4","html-slider-response","937","","","","1",""
"163","marker","maji,mapafu,salita,atay","maji","f","4","html-keyboard-response","938","f","maji","true","",""
"2372.399999999441","","","","","4","html-slider-response","939","","","","4",""
"19","window","nanga,kweli,kujenga,umaga","kweli","v","4","html-keyboard-response","940","n","umaga","false","",""
"1247.2000000001863","","","","","4","html-slider-response","941","","","","2",""
"22","body","tindashan,nyundu,jibini,kununa","tindashan","f","4","html-keyboard-response","942","f","tindashan","true","",""
"2122.5","","","","","4","html-slider-response","943","","","","2",""
"136","apple","ukame,kisu,estante,edad","kisu","v","4","html-keyboard-response","944","v","kisu","true","",""
"3478.2000000001863","","","","","4","html-slider-response","945","","","","3",""
"2133","salmon","mzungu,seri,sensilyo,baharia","sensilyo","j","4","html-keyboard-response","946","n","baharia","false","",""
"1646","","","","","4","html-slider-response","947","","","","5",""
"19","bed","mapintas,kalipay,haraka,starehe","mapintas","f","4","html-keyboard-response","948","f","mapintas","true","",""
"1569.4000000003725","","","","","4","html-slider-response","949","","","","1",""
"294","berry","abogado,nogozi,kofia,kinywa","kofia","j","4","html-keyboard-response","950","f","abogado","false","",""
"1850.300000000745","","","","","4","html-slider-response","951","","","","2",""
"469","mirror","rangi,kanding,sulagma,furaha","sulagma","j","4","html-keyboard-response","952","j","sulagma","true","",""
"1852.4000000003725","","","","","4","html-slider-response","953","","","","3",""
"618","flag","ndege,mkate,kawa,trekta","trekta","n","4","html-keyboard-response","954","n","trekta","true","",""
"1648.199999999255","","","","","4","html-slider-response","955","","","","2",""
"160","shoulder","kelele,ndaniya,guruwe,mkuu","mkuu","n","4","html-keyboard-response","956","n","mkuu","true","",""
"1378","","","","","4","html-slider-response","957","","","","2",""
"141","tissue","lamigas,ugomvi,kisiwa,katika","ugomvi","v","4","html-keyboard-response","958","f","lamigas","false","",""
"2153.5","","","","","4","html-slider-response","959","","","","1",""
"258","notebook","kemia,msitu,kila,mdudu","kemia","f","4","html-keyboard-response","960","v","msitu","false","",""
"1634.7000000001863","","","","","4","html-slider-response","961","","","","5",""
"1159","snake","jansa,karon,mvringo,pagtukod","pagtukod","n","4","html-keyboard-response","962","j","mvringo","false","",""
"1151.1000000005588","","","","","4","html-slider-response","963","","","","4",""
"638","finger","simu,sufuria,moyo,lima","moyo","j","4","html-keyboard-response","964","n","lima","false","",""
"1544.5","","","","","4","html-slider-response","965","","","","2",""
"446","basket","kumbuka,utepe,kumba,hasira","kumba","j","4","html-keyboard-response","966","f","kumbuka","false","",""
"1084.5","","","","","4","html-slider-response","967","","","","4",""
"564","curtain","mchanga,lisud,bulwawan,chubani","mchanga","f","4","html-keyboard-response","968","n","chubani","false","",""
"1134.8999999994412","","","","","4","html-slider-response","969","","","","1",""
"273","perfume","katuyoan,bino,sungura,ndogo","katuyoan","f","4","html-keyboard-response","970","n","ndogo","false","",""
"1211.4000000003725","","","","","4","html-slider-response","971","","","","2",""
"794","key","miaka,goma,chombo,ahos","chombo","j","4","html-keyboard-response","972","f","miaka","false","",""
"1822.2999999998137","","","","","4","html-slider-response","973","","","","5",""
"103","olive","jiwe,bata,siagi,welder","jiwe","f","4","html-keyboard-response","974","j","siagi","false","",""
"1543.5","","","","","4","html-slider-response","975","","","","2",""
"837","rose","singizi,mwanake,amani,paghalad","paghalad","n","4","html-keyboard-response","976","n","paghalad","true","",""
"2401.7000000001863","","","","","4","html-slider-response","977","","","","4",""
"177","bridge","daima,ngono,panya,sahani","sahani","n","4","html-keyboard-response","978","f","daima","false","",""
"1147.2999999998137","","","","","4","html-slider-response","979","","","","2",""
"1005","hill","matumbo,kushoto,kukimba,sweta","matumbo","f","4","html-keyboard-response","980","n","sweta","false","",""
"1704.9000000003725","","","","","4","html-slider-response","981","","","","4",""
"1072","letter","filimbi,chuma,uhuru,kifua","kifua","n","4","html-keyboard-response","982","n","kifua","true","",""
"1723","","","","","4","html-slider-response","983","","","","2",""
"1320","sock","mamba,ndoora,kimysa,mtirka","mamba","f","4","html-keyboard-response","984","n","mtirka","false","",""
"1668.199999999255","","","","","4","html-slider-response","985","","","","2",""
"265","fork","baboy,mgonjwa,paghago,gorisi","mgonjwa","v","4","html-keyboard-response","986","f","baboy","false","",""
"1231.2999999998137","","","","","4","html-slider-response","987","","","","1",""
"1270","box","kuacha,adui,rafiki,kitande","adui","v","4","html-keyboard-response","988","j","rafiki","false","",""
"3315.9000000003725","","","","","4","html-slider-response","989","","","","4",""
"157","gift","baba,nyange,pagtawag,baso","pagtawag","j","4","html-keyboard-response","990","j","pagtawag","true","",""
"2539.2999999998137","","","","","4","html-slider-response","991","","","","2",""
"168","bucket","kiatu,baga,ijayo,init","kiatu","f","4","html-keyboard-response","992","f","kiatu","true","",""
"3989.2000000001863","","","","","4","html-slider-response","993","","","","3",""
"137","shop","nopya,kerida,samaki,ndezu","samaki","j","4","html-keyboard-response","994","f","nopya","false","",""
"1583.2000000001863","","","","","4","html-slider-response","995","","","","3",""
"273","puppet","napulo,lamok,godoro,mazishi","mazishi","n","4","html-keyboard-response","996","j","godoro","false","",""
"1538","","","","","4","html-slider-response","997","","","","3",""
"420","nose","sehemu,gubat,kopa,kidole","sehemu","f","4","html-keyboard-response","998","f","sehemu","true","",""
"1137.4000000003725","","","","","4","html-slider-response","999","","","","4",""
"215","music","mraba,baiski,mageho,tumbo","baiski","v","4","html-keyboard-response","1000","n","tumbo","false","",""
"1139.4000000003725","","","","","4","html-slider-response","1001","","","","5",""
"260","dog","lubi,bahari,washia,kalamu","bahari","v","4","html-keyboard-response","1002","j","washia","false","",""
"1869.199999999255","","","","","4","html-slider-response","1003","","","","2",""
"154","eel","msumari,ishara,kunywa,kabuang","msumari","f","4","html-keyboard-response","1004","v","ishara","false","",""
"1402.2000000001863","","","","","4","html-slider-response","1005","","","","1",""
"321","number","shule,mundamo,kengele,choori","mundamo","v","4","html-keyboard-response","1006","v","mundamo","true","",""
"2118.2999999998137","","","","","4","html-slider-response","1007","","","","4",""
"251","tomato","mvua,chupi,chupa,takatak","mvua","f","4","html-keyboard-response","1008","j","chupa","false","",""
"2059.0999999996275","","","","","4","html-slider-response","1009","","","","3",""
"199","coffin","barua,kioo,tubag,hulma","kioo","v","4","html-keyboard-response","1010","v","kioo","true","",""
"2633.2000000001863","","","","","4","html-slider-response","1011","","","","3",""
"651","knee","mvuke,kubale,duka,bili","duka","j","4","html-keyboard-response","1012","j","duka","true","",""
"1274.4000000003725","","","","","4","html-slider-response","1013","","","","5",""
"385","woman","bandari,pagtabon,bituin,kovuli","pagtabon","v","4","html-keyboard-response","1014","n","kovuli","false","",""
"1083.0999999996275","","","","","4","html-slider-response","1015","","","","2",""
"238","stone","ulimwengu,mkasi,wingi,asili","wingi","j","4","html-keyboard-response","1016","n","asili","false","",""
"1284.6000000005588","","","","","4","html-slider-response","1017","","","","4",""
"193","bread","kaili,dizeli,bugas,dari","dari","n","4","html-keyboard-response","1018","n","dari","true","",""
"996.4000000003725","","","","","4","html-slider-response","1019","","","","4",""
"562","triangle","kihozi,bentaha,kasadpan,liog","kasadpan","j","4","html-keyboard-response","1020","n","liog","false","",""
"1773.7000000001863","","","","","4","html-slider-response","1021","","","","2",""
"160","scissors","duga,tanuri,mtawa,suga","tanuri","v","4","html-keyboard-response","1022","v","tanuri","true","",""
"1365.2999999998137","","","","","4","html-slider-response","1023","","","","3",""
"432","giraffe","mahitabo,daraja,jumatu,hangyo","mahitabo","f","4","html-keyboard-response","1024","v","daraja","false","",""
"3583.4000000003725","","","","","4","html-slider-response","1025","","","","3",""
"224","flower","tamasha,bega,lobo,usiku","bega","v","4","html-keyboard-response","1026","f","tamasha","false","",""
"1615.2000000001863","","","","","4","html-slider-response","1027","","","","1",""
"325","candle","gabi,farasi,geza,kupanda","geza","j","4","html-keyboard-response","1028","j","geza","true","",""
"1119.2999999998137","","","","","4","html-slider-response","1029","","","","4",""
"494","mother","babaye,kahawa,mbuzi,jokofu","babaye","f","4","html-keyboard-response","1030","f","babaye","true","",""
"1045","","","","","4","html-slider-response","1031","","","","2",""
"1489","towel","tembo,funzi,pagpalit,pito","pagpalit","j","4","html-keyboard-response","1032","n","pito","false","",""
"2721.4000000003725","","","","","4","html-slider-response","1033","","","","5",""
"1172","elephant","petye,pagduol,kito,suka","kito","j","4","html-keyboard-response","1034","v","pagduol","false","",""
"1063.4000000003725","","","","","4","html-slider-response","1035","","","","1",""
"592","shelf","bungtod,kadaot,awit,pamahaw","pamahaw","n","4","html-keyboard-response","1036","j","awit","false","",""
"1522.2000000001863","","","","","4","html-slider-response","1037","","","","2",""
"845","mosquito","isda,taras,martilyo,gutom","martilyo","j","4","html-keyboard-response","1038","n","gutom","false","",""
"1054.5","","","","","4","html-slider-response","1039","","","","1",""
"777","column","pundok,ufagio,dila,pala","ufagio","v","4","html-keyboard-response","1040","f","pundok","false","",""
"1438.0999999996275","","","","","4","html-slider-response","1041","","","","4",""
"971","pants","pintal,chuki,hari,haki","haki","n","4","html-keyboard-response","1042","v","chuki","false","",""
"2143.0999999996275","","","","","4","html-slider-response","1043","","","","2",""
"485","list","alizeti,wingu,kuzama,kaso","wingu","v","4","html-keyboard-response","1044","j","kuzama","false","",""
"1098.5999999996275","","","","","4","html-slider-response","1045","","","","4",""
"650","bank","kudhibi,silingan,tualya,ofisi","silingan","v","4","html-keyboard-response","1046","n","ofisi","false","",""
"2193.2000000001863","","","","","4","html-slider-response","1047","","","","3",""
"312","clock","kartasi,mbwa,abang,osha","mbwa","v","4","html-keyboard-response","1048","n","osha","false","",""
"1535.9000000003725","","","","","4","html-slider-response","1049","","","","3",""
"297","ceiling","maua,kugita,kawaida,rayna","maua","f","4","html-keyboard-response","1050","j","kawaida","false","",""
"1437.2999999998137","","","","","4","html-slider-response","1051","","","","3",""
"816","train","itik,dakika,mungu,sayari","sayari","n","4","html-keyboard-response","1052","f","itik","false","",""
"1313.2000000001863","","","","","4","html-slider-response","1053","","","","1",""
"400","magazine","gundi,kiti,mchawi,bahandi","kiti","v","4","html-keyboard-response","1054","j","mchawi","false","",""
"1560","","","","","4","html-slider-response","1055","","","","1",""
"309","office","hazini,leso,yatima,kuna","leso","v","4","html-keyboard-response","1056","f","hazini","false","",""
"2294.199999999255","","","","","4","html-slider-response","1057","","","","5",""
"3206","wheel","punda,tawo,baadaye,bafuni","bafuni","n","4","html-keyboard-response","1058","n","bafuni","true","",""
"2037.699999999255","","","","","4","html-slider-response","1059","","","","2",""
"169","spoon","betri,nzuri,ngazi,pagsulod","pagsulod","n","4","html-keyboard-response","1060","j","ngazi","false","",""
"1228.199999999255","","","","","4","html-slider-response","1061","","","","4",""
"212","hammer","napakyas,mekno,kitovu,layag","napakyas","f","4","html-keyboard-response","1062","j","kitovu","false","",""
"1746.2999999998137","","","","","4","html-slider-response","1063","","","","4",""
"317","cigar","ndugu,adhabu,kuta,mlango","adhabu","v","4","html-keyboard-response","1064","v","adhabu","true","",""
"1291.9000000003725","","","","","4","html-slider-response","1065","","","","5",""
"191","shoe","nyeusi,uyoga,hatua,kama","uyoga","v","4","html-keyboard-response","1066","v","uyoga","true","",""
"1782.199999999255","","","","","4","html-slider-response","1067","","","","1",""
"1199","list","alizeti,wingu,kuzama,kaso","wingu","v","5","html-keyboard-response","1069","n","kaso","false","",""
"1122.0999999996275","","","","","5","html-slider-response","1070","","","","2",""
"2103","number","shule,kengele,mundamo,choori","mundamo","j","5","html-keyboard-response","1071","j","mundamo","true","",""
"1658.7999999998137","","","","","5","html-slider-response","1072","","","","2",""
"258","apple","ukame,kisu,estante,edad","kisu","v","5","html-keyboard-response","1073","j","estante","false","",""
"2051.4000000003725","","","","","5","html-slider-response","1074","","","","3",""
"108","knee","mvuke,kubale,duka,bili","duka","j","5","html-keyboard-response","1075","n","bili","false","",""
"1485.0999999996275","","","","","5","html-slider-response","1076","","","","3",""
"242","tooth","kijiko,uadui,kabalaka,pahiyum","kabalaka","j","5","html-keyboard-response","1077","n","pahiyum","false","",""
"1551.2999999998137","","","","","5","html-slider-response","1078","","","","1",""
"85","berry","abogado,nogozi,kofia,kinywa","kofia","j","5","html-keyboard-response","1079","n","kinywa","false","",""
"1755.5","","","","","5","html-slider-response","1080","","","","5",""
"196","bridge","daima,ngono,sahani,panya","sahani","j","5","html-keyboard-response","1081","f","daima","false","",""
"2583.199999999255","","","","","5","html-slider-response","1082","","","","1",""
"229","perfume","bino,sungura,katuyoan,ndogo","katuyoan","j","5","html-keyboard-response","1083","n","ndogo","false","",""
"2519.2999999998137","","","","","5","html-slider-response","1084","","","","2",""
"236","ladder","pangalan,mashua,mwanga,kamba","pangalan","f","5","html-keyboard-response","1085","j","mwanga","false","",""
"1516.0999999996275","","","","","5","html-slider-response","1086","","","","4",""
"149","pants","haki,pintal,chuki,hari","haki","f","5","html-keyboard-response","1087","n","hari","false","",""
"1435.199999999255","","","","","5","html-slider-response","1088","","","","2",""
"225","salmon","sensilyo,mzungu,seri,baharia","sensilyo","f","5","html-keyboard-response","1089","n","baharia","false","",""
"2262","","","","","5","html-slider-response","1090","","","","3",""
"260","coffin","barua,kioo,tubag,hulma","kioo","v","5","html-keyboard-response","1091","j","tubag","false","",""
"1518.2000000001863","","","","","5","html-slider-response","1092","","","","5",""
"972","park","bunifu,tambok,pwani,ihalas","bunifu","f","5","html-keyboard-response","1093","v","tambok","false","",""
"1218.9000000003725","","","","","5","html-slider-response","1094","","","","1",""
"564","giraffe","daraja,mahitabo,jumatu,hangyo","mahitabo","v","5","html-keyboard-response","1095","f","daraja","false","",""
"1204.2999999998137","","","","","5","html-slider-response","1096","","","","2",""
"1635","mirror","sulagma,rangi,kanding,furaha","sulagma","f","5","html-keyboard-response","1097","v","rangi","false","",""
"1103.2000000001863","","","","","5","html-slider-response","1098","","","","4",""
"944","ceiling","kugita,kawaida,rayna,maua","maua","n","5","html-keyboard-response","1099","n","maua","true","",""
"1109","","","","","5","html-slider-response","1100","","","","2",""
"532","marker","maji,mapafu,salita,atay","maji","f","5","html-keyboard-response","1101","n","atay","false","",""
"1737.199999999255","","","","","5","html-slider-response","1102","","","","2",""
"1249","sock","ndoora,kimysa,mtirka,mamba","mamba","n","5","html-keyboard-response","1103","j","mtirka","false","",""
"1815.699999999255","","","","","5","html-slider-response","1104","","","","1",""
"475","cop","mechezo,bustani,jikoni,bakus","mechezo","f","5","html-keyboard-response","1105","j","jikoni","false","",""
"1506.199999999255","","","","","5","html-slider-response","1106","","","","5",""
"468","gift","baba,nyange,pagtawag,baso","pagtawag","j","5","html-keyboard-response","1107","v","nyange","false","",""
"1255.9000000003725","","","","","5","html-slider-response","1108","","","","2",""
"583","notebook","msitu,kila,mdudu,kemia","kemia","n","5","html-keyboard-response","1109","f","msitu","false","",""
"1326.2999999998137","","","","","5","html-slider-response","1110","","","","2",""
"899","bank","kudhibi,silingan,tualya,ofisi","silingan","v","5","html-keyboard-response","1111","v","silingan","true","",""
"2875.2999999998137","","","","","5","html-slider-response","1112","","","","2",""
"3967","letter","filimbi,kifua,chuma,uhuru","kifua","v","5","html-keyboard-response","1113","f","filimbi","false","",""
"2818.699999999255","","","","","5","html-slider-response","1114","","","","4",""
"190","candle","gabi,farasi,kupanda,geza","geza","n","5","html-keyboard-response","1115","j","kupanda","false","",""
"1618.0999999996275","","","","","5","html-slider-response","1116","","","","2",""
"355","bread","dari,kaili,dizeli,bugas","dari","f","5","html-keyboard-response","1117","f","dari","true","",""
"1430.0999999996275","","","","","5","html-slider-response","1118","","","","2",""
"82","snake","pagtukod,jansa,karon,mvringo","pagtukod","f","5","html-keyboard-response","1119","f","pagtukod","true","",""
"1409.199999999255","","","","","5","html-slider-response","1120","","","","3",""
"176","rose","singizi,mwanake,amani,paghalad","paghalad","n","5","html-keyboard-response","1121","f","singizi","false","",""
"989.5","","","","","5","html-slider-response","1122","","","","5",""
"295","hill","matumbo,kushoto,kukimba,sweta","matumbo","f","5","html-keyboard-response","1123","v","kushoto","false","",""
"1164.4000000003725","","","","","5","html-slider-response","1124","","","","5",""
"69","train","itik,sayari,dakika,mungu","sayari","v","5","html-keyboard-response","1125","f","itik","false","",""
"1218.5","","","","","5","html-slider-response","1126","","","","1",""
"288","shop","nopya,kerida,samaki,ndezu","samaki","j","5","html-keyboard-response","1127","f","nopya","false","",""
"1044.5","","","","","5","html-slider-response","1128","","","","2",""
"180","nose","gubat,sehemu,kopa,kidole","sehemu","v","5","html-keyboard-response","1129","f","gubat","false","",""
"1568.2999999998137","","","","","5","html-slider-response","1130","","","","4",""
"1142","boat","hamsi,agalon,pombe,kitanda","agalon","v","5","html-keyboard-response","1131","n","kitanda","false","",""
"1995.199999999255","","","","","5","html-slider-response","1132","","","","2",""
"310","body","nyundu,jibini,tindashan,kununa","tindashan","j","5","html-keyboard-response","1133","f","nyundu","false","",""
"1712.2999999998137","","","","","5","html-slider-response","1134","","","","4",""
"82","bed","mapintas,kalipay,haraka,starehe","mapintas","f","5","html-keyboard-response","1135","f","mapintas","true","",""
"1067.3999999994412","","","","","5","html-slider-response","1136","","","","2",""
"68","squirrel","mahugaw,hofu,ukweli,kichwa","hofu","v","5","html-keyboard-response","1137","n","kichwa","false","",""
"2319.2999999998137","","","","","5","html-slider-response","1138","","","","2",""
"38","window","nanga,kweli,kujenga,umaga","kweli","v","5","html-keyboard-response","1139","n","umaga","false","",""
"1298.2999999998137","","","","","5","html-slider-response","1140","","","","2",""
"65","bonfire","goti,mwezi,mfuko,kusanya","goti","f","5","html-keyboard-response","1141","n","kusanya","false","",""
"2214.2999999998137","","","","","5","html-slider-response","1142","","","","3",""
"173","fish","bala,buli,baho,imani","buli","v","5","html-keyboard-response","1143","j","baho","false","",""
"2007.2999999998137","","","","","5","html-slider-response","1144","","","","4",""
"204","cat","neyemba,paghukom,baki,akili","paghukom","v","5","html-keyboard-response","1145","j","baki","false","",""
"1273.199999999255","","","","","5","html-slider-response","1146","","","","1",""
"280","spider","bunyag,mkboa,kamwe,atop","kamwe","j","5","html-keyboard-response","1147","v","mkboa","false","",""
"1299.0999999996275","","","","","5","html-slider-response","1148","","","","2",""
"161","eel","msumari,ishara,kunywa,kabuang","msumari","f","5","html-keyboard-response","1149","v","ishara","false","",""
"1181.0999999996275","","","","","5","html-slider-response","1150","","","","5",""
"178","woman","bandari,bituin,kovuli,pagtabon","pagtabon","n","5","html-keyboard-response","1151","v","bituin","false","",""
"1110.7000000001863","","","","","5","html-slider-response","1152","","","","2",""
"1102","magazine","gundi,mchawi,bahandi,kiti","kiti","n","5","html-keyboard-response","1153","v","mchawi","false","",""
"3149.5","","","","","5","html-slider-response","1154","","","","3",""
"539","pudding","abug,mpishi,iring,aibu","aibu","n","5","html-keyboard-response","1155","v","mpishi","false","",""
"1711.7999999998137","","","","","5","html-slider-response","1156","","","","2",""
"996","lamp","daub,bilaska,afya,mbolea","afya","j","5","html-keyboard-response","1157","n","mbolea","false","",""
"1396.699999999255","","","","","5","html-slider-response","1158","","","","4",""
"756","cave","ganti,kesho,maisha,nyundo","kesho","v","5","html-keyboard-response","1159","v","kesho","true","",""
"2060.2999999998137","","","","","5","html-slider-response","1160","","","","2",""
"393","shoulder","mkuu,kelele,ndaniya,guruwe","mkuu","f","5","html-keyboard-response","1161","f","mkuu","true","",""
"2038","","","","","5","html-slider-response","1162","","","","2",""
"221","stone","ulimwengu,mkasi,asili,wingi","wingi","n","5","html-keyboard-response","1163","j","asili","false","",""
"1097.2999999998137","","","","","5","html-slider-response","1164","","","","2",""
"2175","column","pundok,dila,ufagio,pala","ufagio","j","5","html-keyboard-response","1165","v","dila","false","",""
"2365","","","","","5","html-slider-response","1166","","","","3",""
"278","page","wakala,ishiri,wimbo,skina","wimbo","j","5","html-keyboard-response","1167","v","ishiri","false","",""
"2108.2999999998137","","","","","5","html-slider-response","1168","","","","3",""
"237","shoe","nyeusi,uyoga,hatua,kama","uyoga","v","5","html-keyboard-response","1169","f","nyeusi","false","",""
"1099.2999999998137","","","","","5","html-slider-response","1170","","","","1",""
"566","clock","kartasi,mbwa,abang,osha","mbwa","v","5","html-keyboard-response","1171","j","abang","false","",""
"1241.199999999255","","","","","5","html-slider-response","1172","","","","3",""
"742","towel","pagpalit,tembo,funzi,pito","pagpalit","f","5","html-keyboard-response","1173","n","pito","false","",""
"1796.9000000003725","","","","","5","html-slider-response","1174","","","","4",""
"469","tomato","mvua,chupi,chupa,takatak","mvua","f","5","html-keyboard-response","1175","n","takatak","false","",""
"1373","","","","","5","html-slider-response","1176","","","","2",""
"270","bucket","baga,kiatu,ijayo,init","kiatu","v","5","html-keyboard-response","1177","v","kiatu","true","",""
"1967.199999999255","","","","","5","html-slider-response","1178","","","","3",""
"132","finger","simu,sufuria,moyo,lima","moyo","j","5","html-keyboard-response","1179","n","lima","false","",""
"1385.3999999994412","","","","","5","html-slider-response","1180","","","","5",""
"314","mother","babaye,kahawa,mbuzi,jokofu","babaye","f","5","html-keyboard-response","1181","n","jokofu","false","",""
"1159.3999999994412","","","","","5","html-slider-response","1182","","","","5",""
"418","human","bado,tinapay,kikapu,punguza","tinapay","v","5","html-keyboard-response","1183","j","kikapu","false","",""
"1223.0999999996275","","","","","5","html-slider-response","1184","","","","2",""
"324","sun","bendi,basi,luha,uongo","basi","v","5","html-keyboard-response","1185","j","luha","false","",""
"1498.4000000003725","","","","","5","html-slider-response","1186","","","","4",""
"220","fork","baboy,paghago,mgonjwa,gorisi","mgonjwa","j","5","html-keyboard-response","1187","n","gorisi","false","",""
"1227.3999999994412","","","","","5","html-slider-response","1188","","","","4",""
"932","donkey","bloke,lalake,elfu,rombus","elfu","j","5","html-keyboard-response","1189","f","bloke","false","",""
"1629.3999999994412","","","","","5","html-slider-response","1190","","","","2",""
"568","wolf","kaburi,lugha,ndizi,mchuzi","lugha","v","5","html-keyboard-response","1191","v","lugha","true","",""
"1108.199999999255","","","","","5","html-slider-response","1192","","","","4",""
"17409","cigar","adhabu,ndugu,kuta,mlango","adhabu","f","5","html-keyboard-response","1193","v","ndugu","false","",""
"2783.5","","","","","5","html-slider-response","1194","","","","2",""
"1132","olive","bata,jiwe,siagi,welder","jiwe","v","5","html-keyboard-response","1195","n","welder","false","",""
"1434","","","","","5","html-slider-response","1196","","","","4",""
"1753","key","miaka,goma,chombo,ahos","chombo","j","5","html-keyboard-response","1197","f","miaka","false","",""
"1347.8999999994412","","","","","5","html-slider-response","1198","","","","1",""
"149","door","tena,soko,nyota,surali","surali","n","5","html-keyboard-response","1199","n","surali","true","",""
"1247.2999999998137","","","","","5","html-slider-response","1200","","","","2",""
"200","wheel","punda,bafuni,tawo,baadaye","bafuni","v","5","html-keyboard-response","1201","n","baadaye","false","",""
"1313.199999999255","","","","","5","html-slider-response","1202","","","","5",""
"85","basket","kumba,kumbuka,utepe,hasira","kumba","f","5","html-keyboard-response","1203","v","kumbuka","false","",""
"2855.199999999255","","","","","5","html-slider-response","1204","","","","4",""
"235","elephant","petye,pagduol,kito,suka","kito","j","5","html-keyboard-response","1205","v","pagduol","false","",""
"1704.3999999994412","","","","","5","html-slider-response","1206","","","","2",""
"35","office","hazini,yatima,kuna,leso","leso","n","5","html-keyboard-response","1207","n","leso","true","",""
"2789","","","","","5","html-slider-response","1208","","","","4",""
"54","music","mraba,baiski,mageho,tumbo","baiski","v","5","html-keyboard-response","1209","j","mageho","false","",""
"1706.2000000001863","","","","","5","html-slider-response","1210","","","","3",""
"241","tissue","lamigas,kisiwa,katika,ugomvi","ugomvi","n","5","html-keyboard-response","1211","j","katika","false","",""
"2134.399999999441","","","","","5","html-slider-response","1212","","","","3",""
"191","curtain","lisud,bulwawan,mchanga,chubani","mchanga","j","5","html-keyboard-response","1213","j","mchanga","true","",""
"3476.399999999441","","","","","5","html-slider-response","1214","","","","1",""
"57","flag","ndege,mkate,kawa,trekta","trekta","n","5","html-keyboard-response","1215","v","mkate","false","",""
"2014.2999999998137","","","","","5","html-slider-response","1216","","","","2",""
"137","dog","lubi,bahari,washia,kalamu","bahari","v","5","html-keyboard-response","1217","n","kalamu","false","",""
"1615.6000000005588","","","","","5","html-slider-response","1218","","","","4",""
"2004","cup","dagat,shimoni,matumai,jeraha","matumai","j","5","html-keyboard-response","1219","v","shimoni","false","",""
"2989.7000000001863","","","","","5","html-slider-response","1220","","","","3",""
"23130","sheet","juuya,watu,bililhon,kamantis","bililhon","j","5","html-keyboard-response","1221","v","watu","false","",""
"1474.2000000001863","","","","","5","html-slider-response","1222","","","","2",""
"878","spoon","betri,pagsulod,nzuri,ngazi","pagsulod","v","5","html-keyboard-response","1223","v","pagsulod","true","",""
"3247.2000000001863","","","","","5","html-slider-response","1224","","","","4",""
"313","flower","tamasha,lobo,usiku,bega","bega","n","5","html-keyboard-response","1225","n","bega","true","",""
"1188.9000000003725","","","","","5","html-slider-response","1226","","","","4",""
"169","picture","kubwa,silya,chaki,asin","kubwa","f","5","html-keyboard-response","1227","v","silya","false","",""
"983.3999999994412","","","","","5","html-slider-response","1228","","","","2",""
"124","puppet","napulo,lamok,godoro,mazishi","mazishi","n","5","html-keyboard-response","1229","n","mazishi","true","",""
"1607.0999999996275","","","","","5","html-slider-response","1230","","","","4",""
"1305798","banana","kasamok,kazi,hagdan,twai","kazi","v","5","html-keyboard-response","1231","v","kazi","true","",""
"1935.5","","","","","5","html-slider-response","1232","","","","4",""
"2629450","book","kuhesa,picha,mali,mara","mali","j","5","html-keyboard-response","1233","v","picha","false","",""
"6472.10000000149","","","","","5","html-slider-response","1234","","","","2",""
"1536","triangle","kihozi,bentaha,kasadpan,liog","kasadpan","j","5","html-keyboard-response","1235","f","kihozi","false","",""
"1669","","","","","5","html-slider-response","1236","","","","4",""
"1110","poster","madungog,nchi,fedha,kasuko","madungog","f","5","html-keyboard-response","1237","n","kasuko","false","",""
"2067.2000000011176","","","","","5","html-slider-response","1238","","","","2",""
"102","box","adui,kuacha,rafiki,kitande","adui","f","5","html-keyboard-response","1239","n","kitande","false","",""
"1261.199999999255","","","","","5","html-slider-response","1240","","","","2",""
"804","mosquito","isda,taras,gutom,martilyo","martilyo","n","5","html-keyboard-response","1241","v","taras","false","",""
"1288.199999999255","","","","","5","html-slider-response","1242","","","","4",""
"397","shelf","bungtod,kadaot,pamahaw,awit","pamahaw","j","5","html-keyboard-response","1243","v","kadaot","false","",""
"1303.4000000003725","","","","","5","html-slider-response","1244","","","","4",""
"1185","scissors","duga,mtawa,suga,tanuri","tanuri","n","5","html-keyboard-response","1245","v","mtawa","false","",""
"2202","","","","","5","html-slider-response","1246","","","","1",""
"245","hammer","napakyas,mekno,kitovu,layag","napakyas","f","5","html-keyboard-response","1247","f","napakyas","true","",""
"3416.2999999988824","","","","","5","html-slider-response","1248","","","","2",""
