"rt","en_word","options","swa_word","correct_answer","phase","trial_type","trial_index","input_answer","input_word","accuracy","certainty","amt_choices"
"10703","bonfire","mwezi,goti,mfuko,kusanya","goti","v","2","html-keyboard-response","106","n","kusanya","false","",""
"2686.2999999821186","","","","","2","html-slider-response","107","","","","2",""
"5674","flower","bega,tamasha,lobo,usiku","bega","f","2","html-keyboard-response","108","f","bega","true","",""
"3010.5","","","","","2","html-slider-response","109","","","","2",""
"4705","column","pundok,dila,pala,ufagio","ufagio","n","2","html-keyboard-response","110","n","ufagio","true","",""
"3061.5999999940395","","","","","2","html-slider-response","111","","","","2",""
"4379","music","baiski,mraba,mageho,tumbo","baiski","f","2","html-keyboard-response","112","j","mageho","false","",""
"3622.899999976158","","","","","2","html-slider-response","113","","","","2",""
"4413","spider","bunyag,kamwe,mkboa,atop","kamwe","v","2","html-keyboard-response","114","f","bunyag","false","",""
"2757","","","","","2","html-slider-response","115","","","","2",""
"5325","fork","baboy,paghago,gorisi,mgonjwa","mgonjwa","n","2","html-keyboard-response","116","n","mgonjwa","true","",""
"3069.9000000059605","","","","","2","html-slider-response","117","","","","2",""
"2578","mosquito","isda,taras,gutom,martilyo","martilyo","n","2","html-keyboard-response","118","n","martilyo","true","",""
"3135","","","","","2","html-slider-response","119","","","","5",""
"5896","banana","kasamok,kazi,hagdan,twai","kazi","v","2","html-keyboard-response","120","v","kazi","true","",""
"3390.9000000059605","","","","","2","html-slider-response","121","","","","2",""
"8631","cup","dagat,shimoni,jeraha,matumai","matumai","n","2","html-keyboard-response","122","v","shimoni","false","",""
"2882.199999988079","","","","","2","html-slider-response","123","","","","2",""
"7409","shop","samaki,nopya,kerida,ndezu","samaki","f","2","html-keyboard-response","124","v","nopya","false","",""
"2708.199999988079","","","","","2","html-slider-response","125","","","","2",""
"6655","elephant","petye,pagduol,suka,kito","kito","n","2","html-keyboard-response","126","v","pagduol","false","",""
"2857","","","","","2","html-slider-response","127","","","","2",""
"3895","bucket","baga,kiatu,ijayo,init","kiatu","v","2","html-keyboard-response","128","f","baga","false","",""
"2771.100000023842","","","","","2","html-slider-response","129","","","","2",""
"4351","book","kuhesa,mali,picha,mara","mali","v","2","html-keyboard-response","130","n","mara","false","",""
"2870.0999999940395","","","","","2","html-slider-response","131","","","","2",""
"8055","mirror","sulagma,rangi,kanding,furaha","sulagma","f","2","html-keyboard-response","132","f","sulagma","true","",""
"3272.2999999821186","","","","","2","html-slider-response","133","","","","2",""
"5101","office","hazini,yatima,kuna,leso","leso","n","2","html-keyboard-response","134","f","hazini","false","",""
"2713.5","","","","","2","html-slider-response","135","","","","2",""
"6898","body","tindashan,nyundu,jibini,kununa","tindashan","f","2","html-keyboard-response","136","f","tindashan","true","",""
"2793.5","","","","","2","html-slider-response","137","","","","2",""
"3600","perfume","bino,sungura,ndogo,katuyoan","katuyoan","n","2","html-keyboard-response","138","v","sungura","false","",""
"3393.699999988079","","","","","2","html-slider-response","139","","","","2",""
"2515","olive","bata,siagi,welder,jiwe","jiwe","n","2","html-keyboard-response","140","n","jiwe","true","",""
"2703.5","","","","","2","html-slider-response","141","","","","5",""
"3817","magazine","gundi,mchawi,kiti,bahandi","kiti","j","2","html-keyboard-response","142","j","kiti","true","",""
"3557.0999999940395","","","","","2","html-slider-response","143","","","","5",""
"4651","bread","kaili,dari,dizeli,bugas","dari","v","2","html-keyboard-response","144","n","bugas","false","",""
"3082.2000000178814","","","","","2","html-slider-response","145","","","","2",""
"12365","cave","kesho,ganti,maisha,nyundo","kesho","f","2","html-keyboard-response","146","f","kesho","true","",""
"2526.899999976158","","","","","2","html-slider-response","147","","","","2",""
"27342","ladder","mashua,pangalan,mwanga,kamba","pangalan","v","2","html-keyboard-response","148","v","pangalan","true","",""
"2318","","","","","2","html-slider-response","149","","","","2",""
"4142","human","tinapay,bado,kikapu,punguza","tinapay","f","2","html-keyboard-response","150","f","tinapay","true","",""
"2309.600000023842","","","","","2","html-slider-response","151","","","","5",""
"3136","clock","kartasi,abang,osha,mbwa","mbwa","n","2","html-keyboard-response","152","n","mbwa","true","",""
"2444.199999988079","","","","","2","html-slider-response","153","","","","4",""
"5619","shelf","bungtod,kadaot,pamahaw,awit","pamahaw","j","2","html-keyboard-response","154","f","bungtod","false","",""
"2724.9000000059605","","","","","2","html-slider-response","155","","","","2",""
"2454","salmon","mzungu,seri,baharia,sensilyo","sensilyo","n","2","html-keyboard-response","156","n","sensilyo","true","",""
"2571.399999976158","","","","","2","html-slider-response","157","","","","5",""
"2889","coffin","barua,tubag,kioo,hulma","kioo","j","2","html-keyboard-response","158","j","kioo","true","",""
"2854.2000000178814","","","","","2","html-slider-response","159","","","","5",""
"3053","notebook","msitu,kemia,kila,mdudu","kemia","v","2","html-keyboard-response","160","n","mdudu","false","",""
"2916.399999976158","","","","","2","html-slider-response","161","","","","2",""
"5706","shoulder","kelele,ndaniya,guruwe,mkuu","mkuu","n","2","html-keyboard-response","162","v","ndaniya","false","",""
"2892.4000000059605","","","","","2","html-slider-response","163","","","","2",""
"5539","park","tambok,pwani,bunifu,ihalas","bunifu","j","2","html-keyboard-response","164","j","bunifu","true","",""
"5039.4000000059605","","","","","2","html-slider-response","165","","","","4",""
"23959","number","shule,kengele,mundamo,choori","mundamo","j","2","html-keyboard-response","166","j","mundamo","true","",""
"2659.5","","","","","2","html-slider-response","167","","","","5",""
"35377","apple","ukame,kisu,estante,edad","kisu","v","2","html-keyboard-response","168","f","ukame","false","",""
"2417","","","","","2","html-slider-response","169","","","","2",""
"45533","letter","filimbi,chuma,kifua,uhuru","kifua","j","2","html-keyboard-response","170","v","chuma","false","",""
"2998.199999988079","","","","","2","html-slider-response","171","","","","2",""
"4232","eel","ishara,msumari,kunywa,kabuang","msumari","v","2","html-keyboard-response","172","f","ishara","false","",""
"2427","","","","","2","html-slider-response","173","","","","2",""
"7126","cop","bustani,jikoni,bakus,mechezo","mechezo","n","2","html-keyboard-response","174","f","bustani","false","",""
"1907.1000000238419","","","","","2","html-slider-response","175","","","","2",""
"4396","wolf","kaburi,lugha,ndizi,mchuzi","lugha","v","2","html-keyboard-response","176","f","kaburi","false","",""
"2362.7000000178814","","","","","2","html-slider-response","177","","","","2",""
"7275","squirrel","mahugaw,ukweli,hofu,kichwa","hofu","j","2","html-keyboard-response","178","n","kichwa","false","",""
"2516","","","","","2","html-slider-response","179","","","","2",""
"3035","nose","gubat,kopa,sehemu,kidole","sehemu","j","2","html-keyboard-response","180","v","kopa","false","",""
"2831.7999999821186","","","","","2","html-slider-response","181","","","","2",""
"3408","sock","mamba,ndoora,kimysa,mtirka","mamba","f","2","html-keyboard-response","182","f","mamba","true","",""
"1916.0999999940395","","","","","2","html-slider-response","183","","","","2",""
"6592","bank","kudhibi,tualya,silingan,ofisi","silingan","j","2","html-keyboard-response","184","j","silingan","true","",""
"8502.59999999404","","","","","2","html-slider-response","185","","","","2",""
"6270","donkey","bloke,elfu,lalake,rombus","elfu","v","2","html-keyboard-response","186","v","elfu","true","",""
"2041.5","","","","","2","html-slider-response","187","","","","2",""
"5230","poster","madungog,nchi,fedha,kasuko","madungog","f","2","html-keyboard-response","188","n","kasuko","false","",""
"2287.300000011921","","","","","2","html-slider-response","189","","","","2",""
"4347","puppet","napulo,lamok,godoro,mazishi","mazishi","n","2","html-keyboard-response","190","j","godoro","false","",""
"2813","","","","","2","html-slider-response","191","","","","2",""
"6825","hill","kushoto,kukimba,matumbo,sweta","matumbo","j","2","html-keyboard-response","192","j","matumbo","true","",""
"2399.5","","","","","2","html-slider-response","193","","","","2",""
"13327","tooth","kabalaka,kijiko,uadui,pahiyum","kabalaka","f","2","html-keyboard-response","194","f","kabalaka","true","",""
"2736.699999988079","","","","","2","html-slider-response","195","","","","5",""
"5236","woman","pagtabon,bandari,bituin,kovuli","pagtabon","f","2","html-keyboard-response","196","f","pagtabon","true","",""
"2625.0999999940395","","","","","2","html-slider-response","197","","","","2",""
"4078","wheel","punda,bafuni,tawo,baadaye","bafuni","v","2","html-keyboard-response","198","j","tawo","false","",""
"2513.5999999940395","","","","","2","html-slider-response","199","","","","2",""
"5001","mother","babaye,kahawa,mbuzi,jokofu","babaye","f","2","html-keyboard-response","200","v","kahawa","false","",""
"2608.699999988079","","","","","2","html-slider-response","201","","","","2",""
"8258","bed","kalipay,haraka,mapintas,starehe","mapintas","j","2","html-keyboard-response","202","v","haraka","false","",""
"2525.699999988079","","","","","2","html-slider-response","203","","","","2",""
"8469","key","miaka,goma,chombo,ahos","chombo","j","2","html-keyboard-response","204","f","miaka","false","",""
"3084.4000000059605","","","","","2","html-slider-response","205","","","","2",""
"15238","page","wakala,wimbo,ishiri,skina","wimbo","v","2","html-keyboard-response","206","f","wakala","false","",""
"2291.899999976158","","","","","2","html-slider-response","207","","","","2",""
"4535","pants","haki,pintal,chuki,hari","haki","f","2","html-keyboard-response","208","f","haki","true","",""
"2090.9000000059605","","","","","2","html-slider-response","209","","","","2",""
"5658","sun","bendi,luha,uongo,basi","basi","n","2","html-keyboard-response","210","v","luha","false","",""
"4845.700000017881","","","","","2","html-slider-response","211","","","","4",""
"13009","finger","simu,sufuria,moyo,lima","moyo","j","2","html-keyboard-response","212","v","sufuria","false","",""
"2409.300000011921","","","","","2","html-slider-response","213","","","","2",""
"3334","shoe","nyeusi,hatua,kama,uyoga","uyoga","n","2","html-keyboard-response","214","n","uyoga","true","",""
"3271.4000000059605","","","","","2","html-slider-response","215","","","","5",""
"3936","giraffe","daraja,jumatu,mahitabo,hangyo","mahitabo","j","2","html-keyboard-response","216","v","jumatu","false","",""
"2452.600000023842","","","","","2","html-slider-response","217","","","","2",""
"10629","dog","bahari,lubi,washia,kalamu","bahari","f","2","html-keyboard-response","218","f","bahari","true","",""
"2252.7999999821186","","","","","2","html-slider-response","219","","","","2",""
"20452","box","adui,kuacha,rafiki,kitande","adui","f","2","html-keyboard-response","220","n","kitande","false","",""
"2385.100000023842","","","","","2","html-slider-response","221","","","","2",""
"3659","scissors","duga,mtawa,tanuri,suga","tanuri","j","2","html-keyboard-response","222","v","mtawa","false","",""
"2576.399999976158","","","","","2","html-slider-response","223","","","","2",""
"6611","cat","neyemba,baki,akili,paghukom","paghukom","n","2","html-keyboard-response","224","n","paghukom","true","",""
"2100","","","","","2","html-slider-response","225","","","","2",""
"22642","basket","kumbuka,kumba,utepe,hasira","kumba","v","2","html-keyboard-response","226","v","kumba","true","",""
"1968.2999999821186","","","","","2","html-slider-response","227","","","","2",""
"9659","snake","jansa,karon,pagtukod,mvringo","pagtukod","j","2","html-keyboard-response","228","j","pagtukod","true","",""
"1732.2999999821186","","","","","2","html-slider-response","229","","","","2",""
"5104","gift","baba,pagtawag,nyange,baso","pagtawag","v","2","html-keyboard-response","230","v","pagtawag","true","",""
"2423.199999988079","","","","","2","html-slider-response","231","","","","2",""
"4352","train","sayari,itik,dakika,mungu","sayari","f","2","html-keyboard-response","232","j","dakika","false","",""
"1595.2000000178814","","","","","2","html-slider-response","233","","","","2",""
"3638","pudding","abug,mpishi,aibu,iring","aibu","j","2","html-keyboard-response","234","f","abug","false","",""
"1878.0999999940395","","","","","2","html-slider-response","235","","","","2",""
"2653","tomato","chupi,chupa,mvua,takatak","mvua","j","2","html-keyboard-response","236","v","chupa","false","",""
"1981.4000000059605","","","","","2","html-slider-response","237","","","","2",""
"8160","stone","ulimwengu,mkasi,wingi,asili","wingi","j","2","html-keyboard-response","238","v","mkasi","false","",""
"2859.4000000059605","","","","","2","html-slider-response","239","","","","2",""
"20115","hammer","mekno,napakyas,kitovu,layag","napakyas","v","2","html-keyboard-response","240","f","mekno","false","",""
"2396.0999999940395","","","","","2","html-slider-response","241","","","","2",""
"7524","knee","mvuke,kubale,duka,bili","duka","j","2","html-keyboard-response","242","j","duka","true","",""
"2049.2000000178814","","","","","2","html-slider-response","243","","","","2",""
"3646","ceiling","kugita,kawaida,rayna,maua","maua","n","2","html-keyboard-response","244","j","rayna","false","",""
"1706.5999999940395","","","","","2","html-slider-response","245","","","","2",""
"7003","spoon","betri,nzuri,ngazi,pagsulod","pagsulod","n","2","html-keyboard-response","246","n","pagsulod","true","",""
"2636.0999999940395","","","","","2","html-slider-response","247","","","","2",""
"4009","marker","mapafu,salita,atay,maji","maji","n","2","html-keyboard-response","248","n","maji","true","",""
"1949.4000000059605","","","","","2","html-slider-response","249","","","","2",""
"95176","candle","gabi,farasi,geza,kupanda","geza","j","2","html-keyboard-response","250","f","gabi","false","",""
"3658.800000011921","","","","","2","html-slider-response","251","","","","2",""
"12559","tissue","lamigas,ugomvi,kisiwa,katika","ugomvi","v","2","html-keyboard-response","252","j","kisiwa","false","",""
"3924.100000023842","","","","","2","html-slider-response","253","","","","2",""
"2666","bridge","daima,ngono,sahani,panya","sahani","j","2","html-keyboard-response","254","j","sahani","true","",""
"2042.699999988079","","","","","2","html-slider-response","255","","","","2",""
"2866","berry","abogado,kofia,nogozi,kinywa","kofia","v","2","html-keyboard-response","256","v","kofia","true","",""
"2258.4000000059605","","","","","2","html-slider-response","257","","","","5",""
"5613","triangle","kihozi,kasadpan,bentaha,liog","kasadpan","v","2","html-keyboard-response","258","j","bentaha","false","",""
"2575","","","","","2","html-slider-response","259","","","","2",""
"6744","door","tena,soko,nyota,surali","surali","n","2","html-keyboard-response","260","f","tena","false","",""
"1659","","","","","2","html-slider-response","261","","","","2",""
"4995","fish","bala,buli,baho,imani","buli","v","2","html-keyboard-response","262","j","baho","false","",""
"2417.699999988079","","","","","2","html-slider-response","263","","","","2",""
"7618","curtain","lisud,bulwawan,chubani,mchanga","mchanga","n","2","html-keyboard-response","264","f","lisud","false","",""
"2144.699999988079","","","","","2","html-slider-response","265","","","","2",""
"3927","flag","ndege,trekta,mkate,kawa","trekta","v","2","html-keyboard-response","266","v","trekta","true","",""
"2345.899999976158","","","","","2","html-slider-response","267","","","","2",""
"23583","boat","hamsi,pombe,agalon,kitanda","agalon","j","2","html-keyboard-response","268","j","agalon","true","",""
"1820","","","","","2","html-slider-response","269","","","","2",""
"6135","rose","paghalad,singizi,mwanake,amani","paghalad","f","2","html-keyboard-response","270","j","mwanake","false","",""
"2416.7999999821186","","","","","2","html-slider-response","271","","","","2",""
"6389","lamp","afya,daub,bilaska,mbolea","afya","f","2","html-keyboard-response","272","n","mbolea","false","",""
"2287.7999999821186","","","","","2","html-slider-response","273","","","","2",""
"4286","cigar","ndugu,kuta,mlango,adhabu","adhabu","n","2","html-keyboard-response","274","n","adhabu","true","",""
"1873.9000000059605","","","","","2","html-slider-response","275","","","","2",""
"2842","list","alizeti,kuzama,kaso,wingu","wingu","n","2","html-keyboard-response","276","f","alizeti","false","",""
"1738.5999999940395","","","","","2","html-slider-response","277","","","","2",""
"3608","sheet","juuya,watu,kamantis,bililhon","bililhon","n","2","html-keyboard-response","278","j","kamantis","false","",""
"1783.7999999821186","","","","","2","html-slider-response","279","","","","2",""
"3122","picture","silya,chaki,kubwa,asin","kubwa","j","2","html-keyboard-response","280","v","chaki","false","",""
"2330.399999976158","","","","","2","html-slider-response","281","","","","2",""
"8491","towel","tembo,pagpalit,funzi,pito","pagpalit","v","2","html-keyboard-response","282","f","tembo","false","",""
"2206.5","","","","","2","html-slider-response","283","","","","2",""
"5115","window","kweli,nanga,kujenga,umaga","kweli","f","2","html-keyboard-response","284","f","kweli","true","",""
"3272.2000000178814","","","","","2","html-slider-response","285","","","","4",""
"13072","box","kuacha,adui,rafiki,kitande","adui","v","3","html-keyboard-response","293","v","adui","true","","4"
"2846.699999988079","","","","","3","html-slider-response","294","","","","1",""
"7127","","","","","3","html-keyboard-response","295","","","","",""
"5361","pants","pintal,chuki,hari,haki","haki","n","3","html-keyboard-response","296","f","pintal","false","","4"
"2233.4000000059605","","","","","3","html-slider-response","297","","","","2",""
"3386","","","","","3","html-keyboard-response","298","","","","",""
"23489","cup","dagat,shimoni,jeraha,matumai","matumai","n","3","html-keyboard-response","299","v","shimoni","false","","4"
"2539.5","","","","","3","html-slider-response","300","","","","2",""
"2912","","","","","3","html-keyboard-response","301","","","","",""
"3784","triangle","kihozi,bentaha,liog,kasadpan","kasadpan","n","3","html-keyboard-response","302","v","bentaha","false","","4"
"1831.4000000059605","","","","","3","html-slider-response","303","","","","2",""
"2388","","","","","3","html-keyboard-response","304","","","","",""
"3709","curtain","lisud,bulwawan,chubani,mchanga","mchanga","n","3","html-keyboard-response","305","n","mchanga","true","","4"
"2371.399999976158","","","","","3","html-slider-response","306","","","","2",""
"2673","","","","","3","html-keyboard-response","307","","","","",""
"3039","clock","kartasi,abang,osha,mbwa","mbwa","n","3","html-keyboard-response","308","n","mbwa","true","","4"
"2673.0999999940395","","","","","3","html-slider-response","309","","","","2",""
"2181","","","","","3","html-keyboard-response","310","","","","",""
"10057","mirror","rangi,sulagma,kanding,furaha","sulagma","v","3","html-keyboard-response","311","n","furaha","false","","4"
"2627.7999999821186","","","","","3","html-slider-response","312","","","","2",""
"2283","","","","","3","html-keyboard-response","313","","","","",""
"3801","coffin","barua,kioo,tubag,hulma","kioo","v","3","html-keyboard-response","314","v","kioo","true","","1"
"3993.5999999940395","","","","","3","html-slider-response","315","","","","5",""
"2735","","","","","3","html-keyboard-response","316","","","","",""
"9515","magazine","gundi,mchawi,kiti,bahandi","kiti","j","3","html-keyboard-response","317","j","kiti","true","","4"
"2356.7999999821186","","","","","3","html-slider-response","318","","","","5",""
"1974","","","","","3","html-keyboard-response","319","","","","",""
"2461","column","pundok,dila,pala,ufagio","ufagio","n","3","html-keyboard-response","320","n","ufagio","true","","1"
"2468.5999999940395","","","","","3","html-slider-response","321","","","","5",""
"2066","","","","","3","html-keyboard-response","322","","","","",""
"4360","number","mundamo,shule,kengele,choori","mundamo","f","3","html-keyboard-response","323","f","mundamo","true","","4"
"3607.399999976158","","","","","3","html-slider-response","324","","","","4",""
"2368","","","","","3","html-keyboard-response","325","","","","",""
"62374","rose","singizi,paghalad,mwanake,amani","paghalad","v","3","html-keyboard-response","326","j","mwanake","false","","4"
"2154.5","","","","","3","html-slider-response","327","","","","2",""
"2097","","","","","3","html-keyboard-response","328","","","","",""
"3540","eel","ishara,kunywa,msumari,kabuang","msumari","j","3","html-keyboard-response","329","f","ishara","false","","4"
"2572.2999999821186","","","","","3","html-slider-response","330","","","","2",""
"2731","","","","","3","html-keyboard-response","331","","","","",""
"3775","gift","pagtawag,baba,nyange,baso","pagtawag","f","3","html-keyboard-response","332","f","pagtawag","true","","4"
"2006","","","","","3","html-slider-response","333","","","","2",""
"2112","","","","","3","html-keyboard-response","334","","","","",""
"2953","apple","ukame,kisu,estante,edad","kisu","v","3","html-keyboard-response","335","v","kisu","true","","1"
"2577","","","","","3","html-slider-response","336","","","","5",""
"1725","","","","","3","html-keyboard-response","337","","","","",""
"1380","wheel","punda,tawo,bafuni,baadaye","bafuni","j","3","html-keyboard-response","338","j","bafuni","true","","1"
"2310","","","","","3","html-slider-response","339","","","","5",""
"1812","","","","","3","html-keyboard-response","340","","","","",""
"2884","knee","mvuke,kubale,duka,bili","duka","j","3","html-keyboard-response","341","v","kubale","false","","4"
"3120.199999988079","","","","","3","html-slider-response","342","","","","2",""
"2266","","","","","3","html-keyboard-response","343","","","","",""
"1689","basket","kumbuka,kumba,utepe,hasira","kumba","v","3","html-keyboard-response","344","v","kumba","true","","1"
"3611.4000000059605","","","","","3","html-slider-response","345","","","","5",""
"2176","","","","","3","html-keyboard-response","346","","","","",""
"5644","park","bunifu,tambok,pwani,ihalas","bunifu","f","3","html-keyboard-response","347","f","bunifu","true","","4"
"2747.699999988079","","","","","3","html-slider-response","348","","","","4",""
"2600","","","","","3","html-keyboard-response","349","","","","",""
"11925","finger","simu,sufuria,moyo,lima","moyo","j","3","html-keyboard-response","350","f","simu","false","","4"
"3401.5999999940395","","","","","3","html-slider-response","351","","","","2",""
"2953","","","","","3","html-keyboard-response","352","","","","",""
"40865","boat","hamsi,agalon,pombe,kitanda","agalon","v","3","html-keyboard-response","353","f","hamsi","false","","4"
"2650.300000011921","","","","","3","html-slider-response","354","","","","2",""
"2011","","","","","3","html-keyboard-response","355","","","","",""
"2974","hill","matumbo,kushoto,kukimba,sweta","matumbo","f","3","html-keyboard-response","356","v","kushoto","false","","4"
"2932.7000000178814","","","","","3","html-slider-response","357","","","","2",""
"2227","","","","","3","html-keyboard-response","358","","","","",""
"3285","train","itik,dakika,sayari,mungu","sayari","j","3","html-keyboard-response","359","f","itik","false","","4"
"3113.0999999940395","","","","","3","html-slider-response","360","","","","2",""
"2113","","","","","3","html-keyboard-response","361","","","","",""
"3248","wolf","kaburi,ndizi,mchuzi,lugha","lugha","n","3","html-keyboard-response","362","f","kaburi","false","","4"
"2371.9000000059605","","","","","3","html-slider-response","363","","","","2",""
"1546","","","","","3","html-keyboard-response","364","","","","",""
"8444","snake","jansa,pagtukod,karon,mvringo","pagtukod","v","3","html-keyboard-response","365","v","pagtukod","true","","4"
"2321.5999999940395","","","","","3","html-slider-response","366","","","","2",""
"2548","","","","","3","html-keyboard-response","367","","","","",""
"3032","tooth","kijiko,uadui,pahiyum,kabalaka","kabalaka","n","3","html-keyboard-response","368","n","kabalaka","true","","4"
"3093.199999988079","","","","","3","html-slider-response","369","","","","5",""
"1562","","","","","3","html-keyboard-response","370","","","","",""
"9523","notebook","msitu,kemia,kila,mdudu","kemia","v","3","html-keyboard-response","371","v","kemia","true","","4"
"2164.5","","","","","3","html-slider-response","372","","","","2",""
"2132","","","","","3","html-keyboard-response","373","","","","",""
"3549","flag","ndege,mkate,kawa,trekta","trekta","n","3","html-keyboard-response","374","n","trekta","true","","4"
"4808.699999988079","","","","","3","html-slider-response","375","","","","4",""
"1700","","","","","3","html-keyboard-response","376","","","","",""
"4884","squirrel","mahugaw,hofu,ukweli,kichwa","hofu","v","3","html-keyboard-response","377","n","kichwa","false","","4"
"2679","","","","","3","html-slider-response","378","","","","2",""
"2743","","","","","3","html-keyboard-response","379","","","","",""
"3163","door","tena,surali,soko,nyota","surali","v","3","html-keyboard-response","380","f","tena","false","","4"
"2541.300000011921","","","","","3","html-slider-response","381","","","","2",""
"1836","","","","","3","html-keyboard-response","382","","","","",""
"2116","salmon","mzungu,seri,baharia,sensilyo","sensilyo","n","3","html-keyboard-response","383","n","sensilyo","true","","4"
"2741.5","","","","","3","html-slider-response","384","","","","5",""
"1561","","","","","3","html-keyboard-response","385","","","","",""
"3529","shoulder","kelele,ndaniya,mkuu,guruwe","mkuu","j","3","html-keyboard-response","386","v","ndaniya","false","","4"
"2433.199999988079","","","","","3","html-slider-response","387","","","","2",""
"1589","","","","","3","html-keyboard-response","388","","","","",""
"3163","lamp","afya,daub,bilaska,mbolea","afya","f","3","html-keyboard-response","389","j","bilaska","false","","4"
"2608.4000000059605","","","","","3","html-slider-response","390","","","","2",""
"1996","","","","","3","html-keyboard-response","391","","","","",""
"1557","shelf","pamahaw,bungtod,kadaot,awit","pamahaw","f","3","html-keyboard-response","392","f","pamahaw","true","","1"
"3581.2999999821186","","","","","3","html-slider-response","393","","","","5",""
"1429","","","","","3","html-keyboard-response","394","","","","",""
"4332","human","bado,kikapu,punguza,tinapay","tinapay","n","3","html-keyboard-response","395","n","tinapay","true","","4"
"2891.5","","","","","3","html-slider-response","396","","","","5",""
"1522","","","","","3","html-keyboard-response","397","","","","",""
"2884","towel","tembo,funzi,pagpalit,pito","pagpalit","j","3","html-keyboard-response","398","f","tembo","false","","4"
"1887.9000000059605","","","","","3","html-slider-response","399","","","","2",""
"2001","","","","","3","html-keyboard-response","400","","","","",""
"4080","cat","paghukom,neyemba,baki,akili","paghukom","f","3","html-keyboard-response","401","f","paghukom","true","","4"
"4024.899999976158","","","","","3","html-slider-response","402","","","","2",""
"1837","","","","","3","html-keyboard-response","403","","","","",""
"3612","spider","bunyag,mkboa,kamwe,atop","kamwe","j","3","html-keyboard-response","404","f","bunyag","false","","4"
"1801.6000000238419","","","","","3","html-slider-response","405","","","","2",""
"2437","","","","","3","html-keyboard-response","406","","","","",""
"2751","window","nanga,kweli,kujenga,umaga","kweli","v","3","html-keyboard-response","407","v","kweli","true","","4"
"2147.800000011921","","","","","3","html-slider-response","408","","","","4",""
"1740","","","","","3","html-keyboard-response","409","","","","",""
"1492","woman","pagtabon,bandari,bituin,kovuli","pagtabon","f","3","html-keyboard-response","410","f","pagtabon","true","","1"
"2692.5","","","","","3","html-slider-response","411","","","","5",""
"1405","","","","","3","html-keyboard-response","412","","","","",""
"4120","giraffe","mahitabo,daraja,jumatu,hangyo","mahitabo","f","3","html-keyboard-response","413","j","jumatu","false","","4"
"2725.7999999821186","","","","","3","html-slider-response","414","","","","2",""
"1596","","","","","3","html-keyboard-response","415","","","","",""
"4851","elephant","petye,pagduol,kito,suka","kito","j","3","html-keyboard-response","416","j","kito","true","","4"
"2432.399999976158","","","","","3","html-slider-response","417","","","","2",""
"1979","","","","","3","html-keyboard-response","418","","","","",""
"4444","cave","ganti,maisha,nyundo,kesho","kesho","n","3","html-keyboard-response","419","n","kesho","true","","4"
"1807","","","","","3","html-slider-response","420","","","","2",""
"1714","","","","","3","html-keyboard-response","421","","","","",""
"5053","bread","kaili,dari,dizeli,bugas","dari","v","3","html-keyboard-response","422","v","dari","true","","4"
"2456.2000000178814","","","","","3","html-slider-response","423","","","","2",""
"6046","","","","","3","html-keyboard-response","424","","","","",""
"3330","stone","ulimwengu,mkasi,asili,wingi","wingi","n","3","html-keyboard-response","425","n","wingi","true","","4"
"2274.600000023842","","","","","3","html-slider-response","426","","","","5",""
"2600","","","","","3","html-keyboard-response","427","","","","",""
"2688","donkey","bloke,lalake,elfu,rombus","elfu","j","3","html-keyboard-response","428","f","bloke","false","","4"
"4839.699999988079","","","","","3","html-slider-response","429","","","","2",""
"2294","","","","","3","html-keyboard-response","430","","","","",""
"3911","bridge","daima,ngono,panya,sahani","sahani","n","3","html-keyboard-response","431","v","ngono","false","","4"
"2698.5","","","","","3","html-slider-response","432","","","","2",""
"3408","","","","","3","html-keyboard-response","433","","","","",""
"5660","bonfire","mwezi,mfuko,goti,kusanya","goti","j","3","html-keyboard-response","434","v","mfuko","false","","4"
"2058.600000023842","","","","","3","html-slider-response","435","","","","2",""
"2805","","","","","3","html-keyboard-response","436","","","","",""
"3183","book","kuhesa,picha,mali,mara","mali","j","3","html-keyboard-response","437","v","picha","false","","4"
"2119.5","","","","","3","html-slider-response","438","","","","2",""
"2761","","","","","3","html-keyboard-response","439","","","","",""
"3501","fish","bala,buli,baho,imani","buli","v","3","html-keyboard-response","440","v","buli","true","","4"
"2695.300000011921","","","","","3","html-slider-response","441","","","","4",""
"1689","","","","","3","html-keyboard-response","442","","","","",""
"2467","spoon","betri,pagsulod,nzuri,ngazi","pagsulod","v","3","html-keyboard-response","443","v","pagsulod","true","","4"
"1951.7999999821186","","","","","3","html-slider-response","444","","","","2",""
"1973","","","","","3","html-keyboard-response","445","","","","",""
"2635","scissors","duga,mtawa,tanuri,suga","tanuri","j","3","html-keyboard-response","446","n","suga","false","","4"
"1942.199999988079","","","","","3","html-slider-response","447","","","","2",""
"1967","","","","","3","html-keyboard-response","448","","","","",""
"2586","page","wakala,ishiri,wimbo,skina","wimbo","j","3","html-keyboard-response","449","v","ishiri","false","","4"
"2201.800000011921","","","","","3","html-slider-response","450","","","","2",""
"1502","","","","","3","html-keyboard-response","451","","","","",""
"1464","nose","sehemu,gubat,kopa,kidole","sehemu","f","3","html-keyboard-response","452","f","sehemu","true","","1"
"2404","","","","","3","html-slider-response","453","","","","5",""
"1835","","","","","3","html-keyboard-response","454","","","","",""
"3088","ceiling","kugita,maua,kawaida,rayna","maua","v","3","html-keyboard-response","455","j","kawaida","false","","4"
"2650.699999988079","","","","","3","html-slider-response","456","","","","2",""
"2320","","","","","3","html-keyboard-response","457","","","","",""
"2449","bucket","kiatu,baga,ijayo,init","kiatu","f","3","html-keyboard-response","458","v","baga","false","","4"
"1934.6000000238419","","","","","3","html-slider-response","459","","","","2",""
"2073","","","","","3","html-keyboard-response","460","","","","",""
"1185","berry","abogado,nogozi,kinywa,kofia","kofia","n","3","html-keyboard-response","461","n","kofia","true","","1"
"2193.699999988079","","","","","3","html-slider-response","462","","","","5",""
"2244","","","","","3","html-keyboard-response","463","","","","",""
"1266","mother","kahawa,mbuzi,babaye,jokofu","babaye","j","3","html-keyboard-response","464","j","babaye","true","","1"
"4256.5999999940395","","","","","3","html-slider-response","465","","","","5",""
"2008","","","","","3","html-keyboard-response","466","","","","",""
"2324","mosquito","isda,taras,gutom,martilyo","martilyo","n","3","html-keyboard-response","467","n","martilyo","true","","4"
"2208.199999988079","","","","","3","html-slider-response","468","","","","5",""
"1890","","","","","3","html-keyboard-response","469","","","","",""
"4705","perfume","katuyoan,bino,sungura,ndogo","katuyoan","f","3","html-keyboard-response","470","j","sungura","false","","4"
"2357.100000023842","","","","","3","html-slider-response","471","","","","2",""
"1974","","","","","3","html-keyboard-response","472","","","","",""
"28632","sheet","juuya,watu,bililhon,kamantis","bililhon","j","3","html-keyboard-response","473","n","kamantis","false","","4"
"2586.5","","","","","3","html-slider-response","474","","","","2",""
"2163","","","","","3","html-keyboard-response","475","","","","",""
"1380","puppet","mazishi,napulo,lamok,godoro","mazishi","f","3","html-keyboard-response","476","f","mazishi","true","","1"
"3888.699999988079","","","","","3","html-slider-response","477","","","","5",""
"1777","","","","","3","html-keyboard-response","478","","","","",""
"5358","poster","madungog,nchi,fedha,kasuko","madungog","f","3","html-keyboard-response","479","f","madungog","true","","4"
"2519.7999999821186","","","","","3","html-slider-response","480","","","","2",""
"1916","","","","","3","html-keyboard-response","481","","","","",""
"3772","music","mraba,mageho,tumbo,baiski","baiski","n","3","html-keyboard-response","482","v","mageho","false","","4"
"2897","","","","","3","html-slider-response","483","","","","2",""
"2019","","","","","3","html-keyboard-response","484","","","","",""
"16006","key","miaka,goma,chombo,ahos","chombo","j","3","html-keyboard-response","485","f","miaka","false","","4"
"2664.7999999821186","","","","","3","html-slider-response","486","","","","2",""
"1864","","","","","3","html-keyboard-response","487","","","","",""
"4375","sock","mamba,ndoora,kimysa,mtirka","mamba","f","3","html-keyboard-response","488","f","mamba","true","","4"
"2202.9000000059605","","","","","3","html-slider-response","489","","","","2",""
"1965","","","","","3","html-keyboard-response","490","","","","",""
"4169","marker","mapafu,maji,salita,atay","maji","v","3","html-keyboard-response","491","v","maji","true","","4"
"3240.4000000059605","","","","","3","html-slider-response","492","","","","2",""
"1888","","","","","3","html-keyboard-response","493","","","","",""
"4214","office","hazini,yatima,leso,kuna","leso","j","3","html-keyboard-response","494","v","yatima","false","","4"
"2268.0999999940395","","","","","3","html-slider-response","495","","","","2",""
"2936","","","","","3","html-keyboard-response","496","","","","",""
"3218","shoe","nyeusi,hatua,uyoga,kama","uyoga","j","3","html-keyboard-response","497","j","uyoga","true","","4"
"2711.300000011921","","","","","3","html-slider-response","498","","","","5",""
"1861","","","","","3","html-keyboard-response","499","","","","",""
"2144","cop","bustani,jikoni,bakus,mechezo","mechezo","n","3","html-keyboard-response","500","f","bustani","false","","4"
"1971.7000000178814","","","","","3","html-slider-response","501","","","","4",""
"1625","","","","","3","html-keyboard-response","502","","","","",""
"4649","bank","silingan,kudhibi,tualya,ofisi","silingan","f","3","html-keyboard-response","503","f","silingan","true","","4"
"3004.5999999940395","","","","","3","html-slider-response","504","","","","4",""
"2665","","","","","3","html-keyboard-response","505","","","","",""
"1408","letter","filimbi,chuma,kifua,uhuru","kifua","j","3","html-keyboard-response","506","j","kifua","true","","1"
"2950.300000011921","","","","","3","html-slider-response","507","","","","5",""
"1530","","","","","3","html-keyboard-response","508","","","","",""
"1231","dog","lubi,washia,bahari,kalamu","bahari","j","3","html-keyboard-response","509","j","bahari","true","","1"
"2896.9000000059605","","","","","3","html-slider-response","510","","","","5",""
"3247","","","","","3","html-keyboard-response","511","","","","",""
"6112","shop","nopya,kerida,samaki,ndezu","samaki","j","3","html-keyboard-response","512","j","samaki","true","","4"
"2294.2000000178814","","","","","3","html-slider-response","513","","","","2",""
"2005","","","","","3","html-keyboard-response","514","","","","",""
"3893","flower","tamasha,lobo,bega,usiku","bega","j","3","html-keyboard-response","515","f","tamasha","false","","4"
"2215.9000000059605","","","","","3","html-slider-response","516","","","","2",""
"1924","","","","","3","html-keyboard-response","517","","","","",""
"1175","cigar","adhabu,ndugu,kuta,mlango","adhabu","f","3","html-keyboard-response","518","f","adhabu","true","","1"
"2518.0999999940395","","","","","3","html-slider-response","519","","","","5",""
"2843","","","","","3","html-keyboard-response","520","","","","",""
"3043","hammer","mekno,kitovu,layag,napakyas","napakyas","n","3","html-keyboard-response","521","f","mekno","false","","4"
"3135","","","","","3","html-slider-response","522","","","","2",""
"2041","","","","","3","html-keyboard-response","523","","","","",""
"4220","fork","baboy,paghago,gorisi,mgonjwa","mgonjwa","n","3","html-keyboard-response","524","v","paghago","false","","4"
"2181.9000000059605","","","","","3","html-slider-response","525","","","","2",""
"2046","","","","","3","html-keyboard-response","526","","","","",""
"1195","sun","bendi,luha,basi,uongo","basi","j","3","html-keyboard-response","527","j","basi","true","","1"
"2672.300000011921","","","","","3","html-slider-response","528","","","","5",""
"1723","","","","","3","html-keyboard-response","529","","","","",""
"5878","ladder","pangalan,mashua,mwanga,kamba","pangalan","f","3","html-keyboard-response","530","f","pangalan","true","","4"
"2789.800000011921","","","","","3","html-slider-response","531","","","","2",""
"1892","","","","","3","html-keyboard-response","532","","","","",""
"1140","banana","kasamok,hagdan,twai,kazi","kazi","n","3","html-keyboard-response","533","n","kazi","true","","1"
"2882.300000011921","","","","","3","html-slider-response","534","","","","5",""
"1481","","","","","3","html-keyboard-response","535","","","","",""
"4276","pudding","aibu,abug,mpishi,iring","aibu","f","3","html-keyboard-response","536","v","abug","false","","4"
"2152.5","","","","","3","html-slider-response","537","","","","2",""
"2441","","","","","3","html-keyboard-response","538","","","","",""
"4515","body","tindashan,nyundu,jibini,kununa","tindashan","f","3","html-keyboard-response","539","f","tindashan","true","","4"
"3208.600000023842","","","","","3","html-slider-response","540","","","","4",""
"2071","","","","","3","html-keyboard-response","541","","","","",""
"4586","bed","kalipay,mapintas,haraka,starehe","mapintas","v","3","html-keyboard-response","542","f","kalipay","false","","4"
"2982.699999988079","","","","","3","html-slider-response","543","","","","2",""
"2306","","","","","3","html-keyboard-response","544","","","","",""
"4424","tissue","lamigas,ugomvi,kisiwa,katika","ugomvi","v","3","html-keyboard-response","545","j","kisiwa","false","","4"
"2264.600000023842","","","","","3","html-slider-response","546","","","","4",""
"1747","","","","","3","html-keyboard-response","547","","","","",""
"3380","candle","gabi,farasi,geza,kupanda","geza","j","3","html-keyboard-response","548","j","geza","true","","4"
"1934","","","","","3","html-slider-response","549","","","","2",""
"1782","","","","","3","html-keyboard-response","550","","","","",""
"1283","tomato","chupi,mvua,chupa,takatak","mvua","v","3","html-keyboard-response","551","v","mvua","true","","1"
"2941.199999988079","","","","","3","html-slider-response","552","","","","5",""
"1574","","","","","3","html-keyboard-response","553","","","","",""
"14167","list","alizeti,wingu,kuzama,kaso","wingu","v","3","html-keyboard-response","554","v","wingu","true","","4"
"2078.5999999940395","","","","","3","html-slider-response","555","","","","2",""
"3000","","","","","3","html-keyboard-response","556","","","","",""
"2186","olive","bata,jiwe,siagi,welder","jiwe","v","3","html-keyboard-response","557","v","jiwe","true","","4"
"3492.699999988079","","","","","3","html-slider-response","558","","","","5",""
"2895","","","","","3","html-keyboard-response","559","","","","",""
"2942","picture","silya,chaki,kubwa,asin","kubwa","j","3","html-keyboard-response","560","j","kubwa","true","","1"
"3311.9000000059605","","","","","3","html-slider-response","561","","","","5",""
"5186","","","","","3","html-keyboard-response","562","","","","",""
"23960","page","wakala,wimbo,ishiri,skina","wimbo","v","4","html-keyboard-response","888","v","wimbo","true","",""
"8199.59999999404","","","","","4","html-slider-response","889","","","","4",""
"9473","sheet","juuya,watu,bililhon,kamantis","bililhon","j","4","html-keyboard-response","890","j","bililhon","true","",""
"2732.800000011921","","","","","4","html-slider-response","891","","","","4",""
"8189","ladder","mashua,mwanga,pangalan,kamba","pangalan","j","4","html-keyboard-response","892","f","mashua","false","",""
"2699.7999999821186","","","","","4","html-slider-response","893","","","","2",""
"74035","door","tena,soko,nyota,surali","surali","n","4","html-keyboard-response","894","n","surali","true","",""
"5886.9000000059605","","","","","4","html-slider-response","895","","","","5",""
"29473","spider","bunyag,mkboa,kamwe,atop","kamwe","j","4","html-keyboard-response","896","f","bunyag","false","",""
"1886.5","","","","","4","html-slider-response","897","","","","2",""
"51460","picture","silya,kubwa,chaki,asin","kubwa","v","4","html-keyboard-response","898","f","silya","false","",""
"1885.699999988079","","","","","4","html-slider-response","899","","","","2",""
"9396","boat","hamsi,pombe,agalon,kitanda","agalon","j","4","html-keyboard-response","900","j","agalon","true","",""
"2364","","","","","4","html-slider-response","901","","","","5",""
"4987","donkey","elfu,bloke,lalake,rombus","elfu","f","4","html-keyboard-response","902","f","elfu","true","",""
"2367.0999999940395","","","","","4","html-slider-response","903","","","","5",""
"64871","book","kuhesa,picha,mali,mara","mali","j","4","html-keyboard-response","904","j","mali","true","",""
"2996.399999976158","","","","","4","html-slider-response","905","","","","2",""
"4810","cup","dagat,shimoni,matumai,jeraha","matumai","j","4","html-keyboard-response","906","j","matumai","true","",""
"1948.9000000059605","","","","","4","html-slider-response","907","","","","2",""
"15687","sun","bendi,luha,basi,uongo","basi","j","4","html-keyboard-response","908","j","basi","true","",""
"3394.699999988079","","","","","4","html-slider-response","909","","","","5",""
"14566","pudding","abug,mpishi,iring,aibu","aibu","n","4","html-keyboard-response","910","n","aibu","true","",""
"2589","","","","","4","html-slider-response","911","","","","5",""
"2152","human","tinapay,bado,kikapu,punguza","tinapay","f","4","html-keyboard-response","912","f","tinapay","true","",""
"2584.7999999821186","","","","","4","html-slider-response","913","","","","5",""
"9457","squirrel","mahugaw,ukweli,kichwa,hofu","hofu","n","4","html-keyboard-response","914","j","kichwa","false","",""
"2038.699999988079","","","","","4","html-slider-response","915","","","","2",""
"2659","park","bunifu,tambok,pwani,ihalas","bunifu","f","4","html-keyboard-response","916","f","bunifu","true","",""
"2110.399999976158","","","","","4","html-slider-response","917","","","","5",""
"24979","poster","nchi,madungog,fedha,kasuko","madungog","v","4","html-keyboard-response","918","v","madungog","true","",""
"2634.7000000178814","","","","","4","html-slider-response","919","","","","4",""
"25616","wolf","lugha,kaburi,ndizi,mchuzi","lugha","f","4","html-keyboard-response","920","f","lugha","true","",""
"2329.399999976158","","","","","4","html-slider-response","921","","","","2",""
"5027","cat","paghukom,neyemba,baki,akili","paghukom","f","4","html-keyboard-response","922","f","paghukom","true","",""
"2717.199999988079","","","","","4","html-slider-response","923","","","","5",""
"3160","fish","bala,baho,imani,buli","buli","n","4","html-keyboard-response","924","n","buli","true","",""
"2776.7000000178814","","","","","4","html-slider-response","925","","","","5",""
"1940","tooth","kijiko,uadui,pahiyum,kabalaka","kabalaka","n","4","html-keyboard-response","926","n","kabalaka","true","",""
"2150.300000011921","","","","","4","html-slider-response","927","","","","5",""
"31963","cave","ganti,kesho,maisha,nyundo","kesho","v","4","html-keyboard-response","928","v","kesho","true","",""
"2454.7999999821186","","","","","4","html-slider-response","929","","","","4",""
"20810","lamp","afya,daub,bilaska,mbolea","afya","f","4","html-keyboard-response","930","v","daub","false","",""
"1652.4000000059605","","","","","4","html-slider-response","931","","","","2",""
"56383","banana","kazi,kasamok,hagdan,twai","kazi","f","4","html-keyboard-response","932","f","kazi","true","",""
"2335.7999999821186","","","","","4","html-slider-response","933","","","","2",""
"3514","bonfire","goti,mwezi,mfuko,kusanya","goti","f","4","html-keyboard-response","934","f","goti","true","",""
"1819.5999999940395","","","","","4","html-slider-response","935","","","","4",""
"54468","cop","bustani,mechezo,jikoni,bakus","mechezo","v","4","html-keyboard-response","936","v","mechezo","true","",""
"2433.0999999940395","","","","","4","html-slider-response","937","","","","4",""
"3210","marker","mapafu,salita,atay,maji","maji","n","4","html-keyboard-response","938","n","maji","true","",""
"2514.2999999821186","","","","","4","html-slider-response","939","","","","5",""
"2625","window","nanga,kweli,kujenga,umaga","kweli","v","4","html-keyboard-response","940","v","kweli","true","",""
"2104.199999988079","","","","","4","html-slider-response","941","","","","5",""
"1996","body","tindashan,nyundu,jibini,kununa","tindashan","f","4","html-keyboard-response","942","f","tindashan","true","",""
"2414.7000000178814","","","","","4","html-slider-response","943","","","","5",""
"18740","apple","ukame,estante,kisu,edad","kisu","j","4","html-keyboard-response","944","j","kisu","true","",""
"2779.399999976158","","","","","4","html-slider-response","945","","","","5",""
"1979","salmon","mzungu,seri,sensilyo,baharia","sensilyo","j","4","html-keyboard-response","946","j","sensilyo","true","",""
"3026.600000023842","","","","","4","html-slider-response","947","","","","5",""
"24613","bed","mapintas,kalipay,haraka,starehe","mapintas","f","4","html-keyboard-response","948","f","mapintas","true","",""
"4636","","","","","4","html-slider-response","949","","","","2",""
"1886","berry","abogado,nogozi,kinywa,kofia","kofia","n","4","html-keyboard-response","950","n","kofia","true","",""
"2276.9000000059605","","","","","4","html-slider-response","951","","","","5",""
"3879","mirror","sulagma,rangi,kanding,furaha","sulagma","f","4","html-keyboard-response","952","n","furaha","false","",""
"4635.299999982119","","","","","4","html-slider-response","953","","","","2",""
"20157","flag","ndege,mkate,trekta,kawa","trekta","j","4","html-keyboard-response","954","j","trekta","true","",""
"2327.9000000059605","","","","","4","html-slider-response","955","","","","5",""
"18575","shoulder","kelele,ndaniya,mkuu,guruwe","mkuu","j","4","html-keyboard-response","956","j","mkuu","true","",""
"2452.5","","","","","4","html-slider-response","957","","","","4",""
"19248","tissue","lamigas,kisiwa,katika,ugomvi","ugomvi","n","4","html-keyboard-response","958","n","ugomvi","true","",""
"2942.2000000178814","","","","","4","html-slider-response","959","","","","4",""
"2817","notebook","msitu,kila,mdudu,kemia","kemia","n","4","html-keyboard-response","960","f","msitu","false","",""
"2208.100000023842","","","","","4","html-slider-response","961","","","","2",""
"21480","snake","jansa,pagtukod,karon,mvringo","pagtukod","v","4","html-keyboard-response","962","v","pagtukod","true","",""
"2717.800000011921","","","","","4","html-slider-response","963","","","","5",""
"9401","finger","simu,sufuria,lima,moyo","moyo","n","4","html-keyboard-response","964","n","moyo","true","",""
"2449.5","","","","","4","html-slider-response","965","","","","4",""
"21758","basket","kumbuka,kumba,utepe,hasira","kumba","v","4","html-keyboard-response","966","f","kumbuka","false","",""
"2242.199999988079","","","","","4","html-slider-response","967","","","","2",""
"3986","curtain","mchanga,lisud,bulwawan,chubani","mchanga","f","4","html-keyboard-response","968","n","chubani","false","",""
"2424.800000011921","","","","","4","html-slider-response","969","","","","2",""
"51914","perfume","bino,sungura,ndogo,katuyoan","katuyoan","n","4","html-keyboard-response","970","n","katuyoan","true","",""
"1980.5","","","","","4","html-slider-response","971","","","","2",""
"39739","key","miaka,goma,ahos,chombo","chombo","n","4","html-keyboard-response","972","f","miaka","false","",""
"2623.300000011921","","","","","4","html-slider-response","973","","","","2",""
"1941","olive","bata,siagi,jiwe,welder","jiwe","j","4","html-keyboard-response","974","j","jiwe","true","",""
"3761.0999999940395","","","","","4","html-slider-response","975","","","","5",""
"10467","rose","singizi,mwanake,amani,paghalad","paghalad","n","4","html-keyboard-response","976","n","paghalad","true","",""
"2382.5","","","","","4","html-slider-response","977","","","","5",""
"24539","bridge","daima,ngono,sahani,panya","sahani","j","4","html-keyboard-response","978","j","sahani","true","",""
"2486.0999999940395","","","","","4","html-slider-response","979","","","","4",""
"12947","hill","matumbo,kushoto,kukimba,sweta","matumbo","f","4","html-keyboard-response","980","n","sweta","false","",""
"3622.0999999940395","","","","","4","html-slider-response","981","","","","2",""
"14307","letter","kifua,filimbi,chuma,uhuru","kifua","f","4","html-keyboard-response","982","f","kifua","true","",""
"3482.5","","","","","4","html-slider-response","983","","","","4",""
"18439","sock","ndoora,mamba,kimysa,mtirka","mamba","v","4","html-keyboard-response","984","v","mamba","true","",""
"2621.5","","","","","4","html-slider-response","985","","","","5",""
"14296","fork","baboy,mgonjwa,paghago,gorisi","mgonjwa","v","4","html-keyboard-response","986","v","mgonjwa","true","",""
"4068.800000011921","","","","","4","html-slider-response","987","","","","2",""
"13774","box","kuacha,rafiki,adui,kitande","adui","j","4","html-keyboard-response","988","j","adui","true","",""
"2309.5","","","","","4","html-slider-response","989","","","","5",""
"2696","gift","baba,nyange,baso,pagtawag","pagtawag","n","4","html-keyboard-response","990","n","pagtawag","true","",""
"2331.4000000059605","","","","","4","html-slider-response","991","","","","5",""
"27983","bucket","baga,ijayo,init,kiatu","kiatu","n","4","html-keyboard-response","992","f","baga","false","",""
"2357.5999999940395","","","","","4","html-slider-response","993","","","","2",""
"6448","shop","nopya,kerida,samaki,ndezu","samaki","j","4","html-keyboard-response","994","j","samaki","true","",""
"2390","","","","","4","html-slider-response","995","","","","4",""
"13007","puppet","napulo,mazishi,lamok,godoro","mazishi","v","4","html-keyboard-response","996","v","mazishi","true","",""
"2259.399999976158","","","","","4","html-slider-response","997","","","","4",""
"4159","nose","sehemu,gubat,kopa,kidole","sehemu","f","4","html-keyboard-response","998","j","kopa","false","",""
"2406.5","","","","","4","html-slider-response","999","","","","2",""
"28356","music","mraba,baiski,mageho,tumbo","baiski","v","4","html-keyboard-response","1000","j","mageho","false","",""
"2776.4000000059605","","","","","4","html-slider-response","1001","","","","2",""
"5931","dog","lubi,washia,kalamu,bahari","bahari","n","4","html-keyboard-response","1002","n","bahari","true","",""
"2312.4000000059605","","","","","4","html-slider-response","1003","","","","5",""
"30629","eel","ishara,msumari,kunywa,kabuang","msumari","v","4","html-keyboard-response","1004","v","msumari","true","",""
"2111.5999999940395","","","","","4","html-slider-response","1005","","","","2",""
"39391","number","shule,mundamo,kengele,choori","mundamo","v","4","html-keyboard-response","1006","v","mundamo","true","",""
"2432.5","","","","","4","html-slider-response","1007","","","","4",""
"10443","tomato","chupi,chupa,mvua,takatak","mvua","j","4","html-keyboard-response","1008","j","mvua","true","",""
"11932.90000000596","","","","","4","html-slider-response","1009","","","","4",""
"4461","coffin","barua,tubag,kioo,hulma","kioo","j","4","html-keyboard-response","1010","v","tubag","false","",""
"2982.4000000059605","","","","","4","html-slider-response","1011","","","","2",""
"23065","knee","mvuke,duka,kubale,bili","duka","v","4","html-keyboard-response","1012","v","duka","true","",""
"1961.6000000238419","","","","","4","html-slider-response","1013","","","","4",""
"2825","woman","bandari,bituin,kovuli,pagtabon","pagtabon","n","4","html-keyboard-response","1014","n","pagtabon","true","",""
"2649.5999999940395","","","","","4","html-slider-response","1015","","","","5",""
"24886","stone","ulimwengu,wingi,mkasi,asili","wingi","v","4","html-keyboard-response","1016","v","wingi","true","",""
"2123.5","","","","","4","html-slider-response","1017","","","","4",""
"8452","bread","kaili,dizeli,bugas,dari","dari","n","4","html-keyboard-response","1018","n","dari","true","",""
"2897.5","","","","","4","html-slider-response","1019","","","","4",""
"18463","triangle","kasadpan,kihozi,bentaha,liog","kasadpan","f","4","html-keyboard-response","1020","j","bentaha","false","",""
"1938.5","","","","","4","html-slider-response","1021","","","","2",""
"12617","scissors","duga,mtawa,tanuri,suga","tanuri","j","4","html-keyboard-response","1022","j","tanuri","true","",""
"3479","","","","","4","html-slider-response","1023","","","","4",""
"22500","giraffe","daraja,jumatu,hangyo,mahitabo","mahitabo","n","4","html-keyboard-response","1024","n","mahitabo","true","",""
"2350.9000000059605","","","","","4","html-slider-response","1025","","","","2",""
"41462","flower","tamasha,bega,lobo,usiku","bega","v","4","html-keyboard-response","1026","v","bega","true","",""
"3516.2999999821186","","","","","4","html-slider-response","1027","","","","4",""
"5290","candle","gabi,farasi,kupanda,geza","geza","n","4","html-keyboard-response","1028","n","geza","true","",""
"2451.2999999821186","","","","","4","html-slider-response","1029","","","","5",""
"2033","mother","kahawa,babaye,mbuzi,jokofu","babaye","v","4","html-keyboard-response","1030","v","babaye","true","",""
"2282.5","","","","","4","html-slider-response","1031","","","","5",""
"22986","towel","pagpalit,tembo,funzi,pito","pagpalit","f","4","html-keyboard-response","1032","v","tembo","false","",""
"2182.0999999940395","","","","","4","html-slider-response","1033","","","","2",""
"20614","elephant","petye,kito,pagduol,suka","kito","v","4","html-keyboard-response","1034","v","kito","true","",""
"2383.199999988079","","","","","4","html-slider-response","1035","","","","4",""
"15546","shelf","bungtod,kadaot,pamahaw,awit","pamahaw","j","4","html-keyboard-response","1036","j","pamahaw","true","",""
"2294.5999999940395","","","","","4","html-slider-response","1037","","","","4",""
"3646","mosquito","isda,martilyo,taras,gutom","martilyo","v","4","html-keyboard-response","1038","v","martilyo","true","",""
"2076.0999999940395","","","","","4","html-slider-response","1039","","","","5",""
"22993","column","pundok,dila,ufagio,pala","ufagio","j","4","html-keyboard-response","1040","f","pundok","false","",""
"1962.300000011921","","","","","4","html-slider-response","1041","","","","2",""
"7760","pants","pintal,chuki,hari,haki","haki","n","4","html-keyboard-response","1042","n","haki","true","",""
"2334.5999999940395","","","","","4","html-slider-response","1043","","","","5",""
"8010","list","wingu,alizeti,kuzama,kaso","wingu","f","4","html-keyboard-response","1044","f","wingu","true","",""
"2055.199999988079","","","","","4","html-slider-response","1045","","","","5",""
"8828","bank","silingan,kudhibi,tualya,ofisi","silingan","f","4","html-keyboard-response","1046","f","silingan","true","",""
"2381.899999976158","","","","","4","html-slider-response","1047","","","","4",""
"20550","clock","kartasi,abang,mbwa,osha","mbwa","j","4","html-keyboard-response","1048","j","mbwa","true","",""
"1805.2000000178814","","","","","4","html-slider-response","1049","","","","2",""
"21784","ceiling","maua,kugita,kawaida,rayna","maua","f","4","html-keyboard-response","1050","n","rayna","false","",""
"1922.5","","","","","4","html-slider-response","1051","","","","4",""
"29799","train","itik,sayari,dakika,mungu","sayari","v","4","html-keyboard-response","1052","v","sayari","true","",""
"2178.699999988079","","","","","4","html-slider-response","1053","","","","2",""
"2338","magazine","gundi,mchawi,bahandi,kiti","kiti","n","4","html-keyboard-response","1054","n","kiti","true","",""
"2142.5999999940395","","","","","4","html-slider-response","1055","","","","5",""
"19700","office","hazini,leso,yatima,kuna","leso","v","4","html-keyboard-response","1056","v","leso","true","",""
"1758","","","","","4","html-slider-response","1057","","","","4",""
"11384","wheel","punda,tawo,baadaye,bafuni","bafuni","n","4","html-keyboard-response","1058","n","bafuni","true","",""
"1970.7000000178814","","","","","4","html-slider-response","1059","","","","5",""
"10574","spoon","betri,nzuri,pagsulod,ngazi","pagsulod","j","4","html-keyboard-response","1060","j","pagsulod","true","",""
"3157.199999988079","","","","","4","html-slider-response","1061","","","","4",""
"4647","hammer","mekno,napakyas,kitovu,layag","napakyas","v","4","html-keyboard-response","1062","v","napakyas","true","",""
"2756.9000000059605","","","","","4","html-slider-response","1063","","","","4",""
"5660","cigar","ndugu,kuta,adhabu,mlango","adhabu","j","4","html-keyboard-response","1064","j","adhabu","true","",""
"2435.800000011921","","","","","4","html-slider-response","1065","","","","4",""
"13171","shoe","uyoga,nyeusi,hatua,kama","uyoga","f","4","html-keyboard-response","1066","f","uyoga","true","",""
"1895.3999999761581","","","","","4","html-slider-response","1067","","","","2",""
"3678","list","alizeti,kuzama,wingu,kaso","wingu","j","5","html-keyboard-response","1069","j","wingu","true","",""
"1893.199999988079","","","","","5","html-slider-response","1070","","","","5",""
"1861","number","shule,kengele,choori,mundamo","mundamo","n","5","html-keyboard-response","1071","n","mundamo","true","",""
"2255","","","","","5","html-slider-response","1072","","","","5",""
"1503","apple","ukame,kisu,estante,edad","kisu","v","5","html-keyboard-response","1073","v","kisu","true","",""
"2075","","","","","5","html-slider-response","1074","","","","5",""
"50967","knee","mvuke,kubale,bili,duka","duka","n","5","html-keyboard-response","1075","n","duka","true","",""
"6171.299999982119","","","","","5","html-slider-response","1076","","","","2",""
"1946","tooth","kabalaka,kijiko,uadui,pahiyum","kabalaka","f","5","html-keyboard-response","1077","f","kabalaka","true","",""
"2844.699999988079","","","","","5","html-slider-response","1078","","","","5",""
"1879","berry","abogado,nogozi,kinywa,kofia","kofia","n","5","html-keyboard-response","1079","n","kofia","true","",""
"45469.69999998808","","","","","5","html-slider-response","1080","","","","4",""
"7574","bridge","sahani,daima,ngono,panya","sahani","f","5","html-keyboard-response","1081","n","panya","false","",""
"2141.699999988079","","","","","5","html-slider-response","1082","","","","2",""
"21210","perfume","bino,katuyoan,sungura,ndogo","katuyoan","v","5","html-keyboard-response","1083","v","katuyoan","true","",""
"12009.90000000596","","","","","5","html-slider-response","1084","","","","5",""
"11524","ladder","pangalan,mashua,mwanga,kamba","pangalan","f","5","html-keyboard-response","1085","f","pangalan","true","",""
"2122.9000000059605","","","","","5","html-slider-response","1086","","","","4",""
"11192","pants","pintal,chuki,hari,haki","haki","n","5","html-keyboard-response","1087","n","haki","true","",""
"5127.100000023842","","","","","5","html-slider-response","1088","","","","5",""
"1903","salmon","mzungu,sensilyo,seri,baharia","sensilyo","v","5","html-keyboard-response","1089","v","sensilyo","true","",""
"4735","","","","","5","html-slider-response","1090","","","","5",""
"1951","coffin","kioo,barua,tubag,hulma","kioo","f","5","html-keyboard-response","1091","f","kioo","true","",""
"2170.800000011921","","","","","5","html-slider-response","1092","","","","5",""
"2566","park","tambok,pwani,ihalas,bunifu","bunifu","n","5","html-keyboard-response","1093","n","bunifu","true","",""
"2921.699999988079","","","","","5","html-slider-response","1094","","","","5",""
"20118","giraffe","mahitabo,daraja,jumatu,hangyo","mahitabo","f","5","html-keyboard-response","1095","f","mahitabo","true","",""
"2213.9000000059605","","","","","5","html-slider-response","1096","","","","4",""
"39651","mirror","rangi,sulagma,kanding,furaha","sulagma","v","5","html-keyboard-response","1097","n","furaha","false","",""
"2076.699999988079","","","","","5","html-slider-response","1098","","","","2",""
"4980","ceiling","kugita,kawaida,rayna,maua","maua","n","5","html-keyboard-response","1099","j","rayna","false","",""
"2337.7000000178814","","","","","5","html-slider-response","1100","","","","4",""
"2155","marker","maji,mapafu,salita,atay","maji","f","5","html-keyboard-response","1101","f","maji","true","",""
"2337.5","","","","","5","html-slider-response","1102","","","","5",""
"1795","sock","mamba,ndoora,kimysa,mtirka","mamba","f","5","html-keyboard-response","1103","f","mamba","true","",""
"2288","","","","","5","html-slider-response","1104","","","","5",""
"5106","cop","bustani,mechezo,jikoni,bakus","mechezo","v","5","html-keyboard-response","1105","v","mechezo","true","",""
"2036.199999988079","","","","","5","html-slider-response","1106","","","","4",""
"1535","gift","baba,pagtawag,nyange,baso","pagtawag","v","5","html-keyboard-response","1107","v","pagtawag","true","",""
"2093.9000000059605","","","","","5","html-slider-response","1108","","","","5",""
"33007","notebook","msitu,kila,mdudu,kemia","kemia","n","5","html-keyboard-response","1109","n","kemia","true","",""
"2132.2999999821186","","","","","5","html-slider-response","1110","","","","4",""
"1740","bank","silingan,kudhibi,tualya,ofisi","silingan","f","5","html-keyboard-response","1111","f","silingan","true","",""
"5311.199999988079","","","","","5","html-slider-response","1112","","","","5",""
"18847","letter","filimbi,chuma,kifua,uhuru","kifua","j","5","html-keyboard-response","1113","j","kifua","true","",""
"2435.7999999821186","","","","","5","html-slider-response","1114","","","","2",""
"2088","candle","gabi,farasi,kupanda,geza","geza","n","5","html-keyboard-response","1115","n","geza","true","",""
"2651.2999999821186","","","","","5","html-slider-response","1116","","","","5",""
"2245","bread","kaili,dizeli,bugas,dari","dari","n","5","html-keyboard-response","1117","n","dari","true","",""
"2066.4000000059605","","","","","5","html-slider-response","1118","","","","5",""
"60305","snake","pagtukod,jansa,karon,mvringo","pagtukod","f","5","html-keyboard-response","1119","f","pagtukod","true","",""
"13264.199999988079","","","","","5","html-slider-response","1120","","","","4",""
"9013","rose","singizi,paghalad,mwanake,amani","paghalad","v","5","html-keyboard-response","1121","v","paghalad","true","",""
"9426.59999999404","","","","","5","html-slider-response","1122","","","","4",""
"10661","hill","kushoto,kukimba,sweta,matumbo","matumbo","n","5","html-keyboard-response","1123","n","matumbo","true","",""
"2056.5999999940395","","","","","5","html-slider-response","1124","","","","2",""
"4260","train","itik,sayari,dakika,mungu","sayari","v","5","html-keyboard-response","1125","v","sayari","true","",""
"11554.40000000596","","","","","5","html-slider-response","1126","","","","5",""
"2680","shop","nopya,kerida,ndezu,samaki","samaki","n","5","html-keyboard-response","1127","n","samaki","true","",""
"1875.5","","","","","5","html-slider-response","1128","","","","4",""
"3669","nose","gubat,kopa,sehemu,kidole","sehemu","j","5","html-keyboard-response","1129","j","sehemu","true","",""
"3497.699999988079","","","","","5","html-slider-response","1130","","","","5",""
"9977","boat","agalon,hamsi,pombe,kitanda","agalon","f","5","html-keyboard-response","1131","f","agalon","true","",""
"10139.90000000596","","","","","5","html-slider-response","1132","","","","4",""
"2076","body","nyundu,jibini,kununa,tindashan","tindashan","n","5","html-keyboard-response","1133","n","tindashan","true","",""
"2538.5","","","","","5","html-slider-response","1134","","","","5",""
"20316","bed","kalipay,haraka,starehe,mapintas","mapintas","n","5","html-keyboard-response","1135","n","mapintas","true","",""
"2144","","","","","5","html-slider-response","1136","","","","2",""
"42731","squirrel","hofu,mahugaw,ukweli,kichwa","hofu","f","5","html-keyboard-response","1137","f","hofu","true","",""
"5958","","","","","5","html-slider-response","1138","","","","2",""
"1889","window","nanga,kweli,kujenga,umaga","kweli","v","5","html-keyboard-response","1139","v","kweli","true","",""
"2684.9000000059605","","","","","5","html-slider-response","1140","","","","5",""
"2524","bonfire","goti,mwezi,mfuko,kusanya","goti","f","5","html-keyboard-response","1141","f","goti","true","",""
"2677.199999988079","","","","","5","html-slider-response","1142","","","","5",""
"1495","fish","bala,buli,baho,imani","buli","v","5","html-keyboard-response","1143","v","buli","true","",""
"2380","","","","","5","html-slider-response","1144","","","","5",""
"1707","cat","neyemba,baki,paghukom,akili","paghukom","j","5","html-keyboard-response","1145","j","paghukom","true","",""
"2640.899999976158","","","","","5","html-slider-response","1146","","","","5",""
"46974","spider","kamwe,bunyag,mkboa,atop","kamwe","f","5","html-keyboard-response","1147","v","bunyag","false","",""
"2400.5999999940395","","","","","5","html-slider-response","1148","","","","2",""
"3960","eel","ishara,kunywa,msumari,kabuang","msumari","j","5","html-keyboard-response","1149","j","msumari","true","",""
"2235.4000000059605","","","","","5","html-slider-response","1150","","","","2",""
"1509","woman","bandari,pagtabon,bituin,kovuli","pagtabon","v","5","html-keyboard-response","1151","v","pagtabon","true","",""
"2438.7000000178814","","","","","5","html-slider-response","1152","","","","5",""
"1470","magazine","gundi,mchawi,kiti,bahandi","kiti","j","5","html-keyboard-response","1153","j","kiti","true","",""
"2846.4000000059605","","","","","5","html-slider-response","1154","","","","5",""
"6505","pudding","abug,mpishi,aibu,iring","aibu","j","5","html-keyboard-response","1155","j","aibu","true","",""
"6268.0999999940395","","","","","5","html-slider-response","1156","","","","5",""
"15625","lamp","daub,afya,bilaska,mbolea","afya","v","5","html-keyboard-response","1157","v","afya","true","",""
"4564.4000000059605","","","","","5","html-slider-response","1158","","","","4",""
"17581","cave","kesho,ganti,maisha,nyundo","kesho","f","5","html-keyboard-response","1159","f","kesho","true","",""
"4705.4000000059605","","","","","5","html-slider-response","1160","","","","4",""
"13890","shoulder","kelele,ndaniya,mkuu,guruwe","mkuu","j","5","html-keyboard-response","1161","j","mkuu","true","",""
"13233.40000000596","","","","","5","html-slider-response","1162","","","","2",""
"2377","stone","ulimwengu,mkasi,asili,wingi","wingi","n","5","html-keyboard-response","1163","n","wingi","true","",""
"2288","","","","","5","html-slider-response","1164","","","","5",""
"7261","column","pundok,dila,pala,ufagio","ufagio","n","5","html-keyboard-response","1165","n","ufagio","true","",""
"2865","","","","","5","html-slider-response","1166","","","","5",""
"10289","page","wakala,ishiri,wimbo,skina","wimbo","j","5","html-keyboard-response","1167","f","wakala","false","",""
"2369.100000023842","","","","","5","html-slider-response","1168","","","","2",""
"53145","shoe","nyeusi,uyoga,hatua,kama","uyoga","v","5","html-keyboard-response","1169","n","kama","false","",""
"3372","","","","","5","html-slider-response","1170","","","","2",""
"82748","clock","mbwa,kartasi,abang,osha","mbwa","f","5","html-keyboard-response","1171","j","abang","false","",""
"2346.0999999940395","","","","","5","html-slider-response","1172","","","","2",""
"3501","towel","pagpalit,tembo,funzi,pito","pagpalit","f","5","html-keyboard-response","1173","v","tembo","false","",""
"1679.5999999940395","","","","","5","html-slider-response","1174","","","","4",""
"6295","tomato","chupi,chupa,mvua,takatak","mvua","j","5","html-keyboard-response","1175","j","mvua","true","",""
"2723.5","","","","","5","html-slider-response","1176","","","","5",""
"6316","bucket","kiatu,baga,ijayo,init","kiatu","f","5","html-keyboard-response","1177","v","baga","false","",""
"2703.5","","","","","5","html-slider-response","1178","","","","4",""
"14991","finger","simu,moyo,sufuria,lima","moyo","v","5","html-keyboard-response","1179","v","moyo","true","",""
"2321.2000000178814","","","","","5","html-slider-response","1180","","","","5",""
"1536","mother","kahawa,babaye,mbuzi,jokofu","babaye","v","5","html-keyboard-response","1181","v","babaye","true","",""
"2657.2999999821186","","","","","5","html-slider-response","1182","","","","5",""
"1637","human","bado,tinapay,kikapu,punguza","tinapay","v","5","html-keyboard-response","1183","v","tinapay","true","",""
"2371.4000000059605","","","","","5","html-slider-response","1184","","","","5",""
"3203","sun","bendi,luha,basi,uongo","basi","j","5","html-keyboard-response","1185","j","basi","true","",""
"2620.9000000059605","","","","","5","html-slider-response","1186","","","","5",""
"29659","fork","baboy,paghago,mgonjwa,gorisi","mgonjwa","j","5","html-keyboard-response","1187","j","mgonjwa","true","",""
"2403.5","","","","","5","html-slider-response","1188","","","","4",""
"3247","donkey","bloke,elfu,lalake,rombus","elfu","v","5","html-keyboard-response","1189","v","elfu","true","",""
"2056.4000000059605","","","","","5","html-slider-response","1190","","","","5",""
"15159","wolf","kaburi,ndizi,mchuzi,lugha","lugha","n","5","html-keyboard-response","1191","n","lugha","true","",""
"2234.100000023842","","","","","5","html-slider-response","1192","","","","4",""
"28298","cigar","ndugu,kuta,mlango,adhabu","adhabu","n","5","html-keyboard-response","1193","n","adhabu","true","",""
"1995.7000000178814","","","","","5","html-slider-response","1194","","","","4",""
"2056","olive","bata,jiwe,siagi,welder","jiwe","v","5","html-keyboard-response","1195","v","jiwe","true","",""
"2220.199999988079","","","","","5","html-slider-response","1196","","","","5",""
"12531","key","miaka,chombo,goma,ahos","chombo","v","5","html-keyboard-response","1197","v","chombo","true","",""
"8199.300000011921","","","","","5","html-slider-response","1198","","","","5",""
"14895","door","tena,soko,surali,nyota","surali","j","5","html-keyboard-response","1199","j","surali","true","",""
"2320.800000011921","","","","","5","html-slider-response","1200","","","","4",""
"11023","wheel","punda,bafuni,tawo,baadaye","bafuni","v","5","html-keyboard-response","1201","v","bafuni","true","",""
"2173","","","","","5","html-slider-response","1202","","","","4",""
"29580","basket","kumbuka,kumba,utepe,hasira","kumba","v","5","html-keyboard-response","1203","v","kumba","true","",""
"6805","","","","","5","html-slider-response","1204","","","","2",""
"2204","elephant","petye,pagduol,kito,suka","kito","j","5","html-keyboard-response","1205","j","kito","true","",""
"2978","","","","","5","html-slider-response","1206","","","","5",""
"1675","office","leso,hazini,yatima,kuna","leso","f","5","html-keyboard-response","1207","f","leso","true","",""
"2252.2000000178814","","","","","5","html-slider-response","1208","","","","5",""
"2963","music","baiski,mraba,mageho,tumbo","baiski","f","5","html-keyboard-response","1209","j","mageho","false","",""
"2825.9000000059605","","","","","5","html-slider-response","1210","","","","4",""
"8376","tissue","lamigas,kisiwa,katika,ugomvi","ugomvi","n","5","html-keyboard-response","1211","n","ugomvi","true","",""
"2374.9000000059605","","","","","5","html-slider-response","1212","","","","5",""
"21339","curtain","lisud,mchanga,bulwawan,chubani","mchanga","v","5","html-keyboard-response","1213","v","mchanga","true","",""
"3465.600000023842","","","","","5","html-slider-response","1214","","","","5",""
"3059","flag","ndege,trekta,mkate,kawa","trekta","v","5","html-keyboard-response","1215","v","trekta","true","",""
"1876.800000011921","","","","","5","html-slider-response","1216","","","","4",""
"9298","dog","lubi,washia,bahari,kalamu","bahari","j","5","html-keyboard-response","1217","j","bahari","true","",""
"2432.4000000059605","","","","","5","html-slider-response","1218","","","","5",""
"16916","cup","dagat,shimoni,jeraha,matumai","matumai","n","5","html-keyboard-response","1219","n","matumai","true","",""
"14533.100000023842","","","","","5","html-slider-response","1220","","","","4",""
"5232","sheet","bililhon,juuya,watu,kamantis","bililhon","f","5","html-keyboard-response","1221","f","bililhon","true","",""
"2748.300000011921","","","","","5","html-slider-response","1222","","","","2",""
"2685","spoon","pagsulod,betri,nzuri,ngazi","pagsulod","f","5","html-keyboard-response","1223","f","pagsulod","true","",""
"2166.5999999940395","","","","","5","html-slider-response","1224","","","","2",""
"3128","flower","bega,tamasha,lobo,usiku","bega","f","5","html-keyboard-response","1225","f","bega","true","",""
"2109.9000000059605","","","","","5","html-slider-response","1226","","","","5",""
"4857","picture","kubwa,silya,chaki,asin","kubwa","f","5","html-keyboard-response","1227","f","kubwa","true","",""
"2968.199999988079","","","","","5","html-slider-response","1228","","","","5",""
"18886","puppet","mazishi,napulo,lamok,godoro","mazishi","f","5","html-keyboard-response","1229","f","mazishi","true","",""
"2387.9000000059605","","","","","5","html-slider-response","1230","","","","2",""
"4700","banana","kasamok,hagdan,kazi,twai","kazi","j","5","html-keyboard-response","1231","j","kazi","true","",""
"2078","","","","","5","html-slider-response","1232","","","","5",""
"15327","book","mali,kuhesa,picha,mara","mali","f","5","html-keyboard-response","1233","f","mali","true","",""
"10853.59999999404","","","","","5","html-slider-response","1234","","","","5",""
"18047","triangle","kihozi,kasadpan,bentaha,liog","kasadpan","v","5","html-keyboard-response","1235","j","bentaha","false","",""
"1905.4000000059605","","","","","5","html-slider-response","1236","","","","2",""
"7170","poster","madungog,nchi,fedha,kasuko","madungog","f","5","html-keyboard-response","1237","f","madungog","true","",""
"4861","","","","","5","html-slider-response","1238","","","","4",""
"10009","box","kuacha,rafiki,adui,kitande","adui","j","5","html-keyboard-response","1239","j","adui","true","",""
"2706.2999999821186","","","","","5","html-slider-response","1240","","","","5",""
"2667","mosquito","martilyo,isda,taras,gutom","martilyo","f","5","html-keyboard-response","1241","f","martilyo","true","",""
"1988.699999988079","","","","","5","html-slider-response","1242","","","","5",""
"6696","shelf","bungtod,pamahaw,kadaot,awit","pamahaw","v","5","html-keyboard-response","1243","v","pamahaw","true","",""
"2015.800000011921","","","","","5","html-slider-response","1244","","","","5",""
"12069","scissors","duga,tanuri,mtawa,suga","tanuri","v","5","html-keyboard-response","1245","v","tanuri","true","",""
"1968.300000011921","","","","","5","html-slider-response","1246","","","","5",""
"4837","hammer","napakyas,mekno,kitovu,layag","napakyas","f","5","html-keyboard-response","1247","f","napakyas","true","",""
"2289.0999999940395","","","","","5","html-slider-response","1248","","","","4",""
