"rt","en_word","options","swa_word","correct_answer","phase","trial_type","trial_index","input_answer","input_word","accuracy","certainty","amt_choices"
"6623","bonfire","mwezi,mfuko,kusanya,goti","goti","n","2","html-keyboard-response","114","n","goti","true","",""
"4645.89999961853","","","","","2","html-slider-response","115","","","","3",""
"4003","flower","tamasha,lobo,usiku,bega","bega","n","2","html-keyboard-response","116","n","bega","true","",""
"3249.3999996185303","","","","","2","html-slider-response","117","","","","4",""
"4220","column","pundok,dila,ufagio,pala","ufagio","j","2","html-keyboard-response","118","j","ufagio","true","",""
"4370","","","","","2","html-slider-response","119","","","","4",""
"3128","music","mraba,mageho,tumbo,baiski","baiski","n","2","html-keyboard-response","120","n","baiski","true","",""
"3133.5999994277954","","","","","2","html-slider-response","121","","","","4",""
"6997","spider","kamwe,bunyag,mkboa,atop","kamwe","f","2","html-keyboard-response","122","f","kamwe","true","",""
"4655.599999427795","","","","","2","html-slider-response","123","","","","3",""
"4116","fork","mgonjwa,baboy,paghago,gorisi","mgonjwa","f","2","html-keyboard-response","124","f","mgonjwa","true","",""
"80545.89999961853","","","","","2","html-slider-response","125","","","","4",""
"3391","mosquito","isda,taras,martilyo,gutom","martilyo","j","2","html-keyboard-response","126","j","martilyo","true","",""
"4343.10000038147","","","","","2","html-slider-response","127","","","","3",""
"3884","banana","kasamok,hagdan,twai,kazi","kazi","n","2","html-keyboard-response","128","n","kazi","true","",""
"4262.300000190735","","","","","2","html-slider-response","129","","","","3",""
"4692","cup","dagat,shimoni,jeraha,matumai","matumai","n","2","html-keyboard-response","130","n","matumai","true","",""
"3904.300000190735","","","","","2","html-slider-response","131","","","","4",""
"3023","shop","nopya,kerida,samaki,ndezu","samaki","j","2","html-keyboard-response","132","j","samaki","true","",""
"3046.199999809265","","","","","2","html-slider-response","133","","","","4",""
"2208","elephant","petye,pagduol,suka,kito","kito","n","2","html-keyboard-response","134","n","kito","true","",""
"4077.5","","","","","2","html-slider-response","135","","","","5",""
"2995","bucket","kiatu,baga,ijayo,init","kiatu","f","2","html-keyboard-response","136","v","baga","false","",""
"5878.800000190735","","","","","2","html-slider-response","137","","","","3",""
"8719","book","kuhesa,picha,mali,mara","mali","j","2","html-keyboard-response","138","j","mali","true","",""
"3649.6000003814697","","","","","2","html-slider-response","139","","","","2",""
"7557","mirror","rangi,sulagma,kanding,furaha","sulagma","v","2","html-keyboard-response","140","j","kanding","false","",""
"3006.699999809265","","","","","2","html-slider-response","141","","","","2",""
"3803","office","leso,hazini,yatima,kuna","leso","f","2","html-keyboard-response","142","f","leso","true","",""
"3091.7999992370605","","","","","2","html-slider-response","143","","","","5",""
"4149","body","nyundu,jibini,tindashan,kununa","tindashan","j","2","html-keyboard-response","144","j","tindashan","true","",""
"5150.300000190735","","","","","2","html-slider-response","145","","","","3",""
"5458","perfume","bino,sungura,katuyoan,ndogo","katuyoan","j","2","html-keyboard-response","146","j","katuyoan","true","",""
"3026.7999992370605","","","","","2","html-slider-response","147","","","","2",""
"4038","olive","bata,siagi,jiwe,welder","jiwe","j","2","html-keyboard-response","148","j","jiwe","true","",""
"3136.2999992370605","","","","","2","html-slider-response","149","","","","4",""
"4308","magazine","gundi,mchawi,bahandi,kiti","kiti","n","2","html-keyboard-response","150","n","kiti","true","",""
"2963.300000190735","","","","","2","html-slider-response","151","","","","4",""
"4085","bread","kaili,dari,dizeli,bugas","dari","v","2","html-keyboard-response","152","v","dari","true","",""
"5175.5","","","","","2","html-slider-response","153","","","","3",""
"9320","cave","kesho,ganti,maisha,nyundo","kesho","f","2","html-keyboard-response","154","n","nyundo","false","",""
"2982.5","","","","","2","html-slider-response","155","","","","2",""
"2642","ladder","mashua,mwanga,pangalan,kamba","pangalan","j","2","html-keyboard-response","156","j","pangalan","true","",""
"3220.699999809265","","","","","2","html-slider-response","157","","","","5",""
"3398","human","bado,tinapay,kikapu,punguza","tinapay","v","2","html-keyboard-response","158","v","tinapay","true","",""
"4285.800000190735","","","","","2","html-slider-response","159","","","","4",""
"6078","clock","mbwa,kartasi,abang,osha","mbwa","f","2","html-keyboard-response","160","f","mbwa","true","",""
"3296.300000190735","","","","","2","html-slider-response","161","","","","4",""
"7167","shelf","bungtod,kadaot,pamahaw,awit","pamahaw","j","2","html-keyboard-response","162","j","pamahaw","true","",""
"4093","","","","","2","html-slider-response","163","","","","3",""
"4998","salmon","mzungu,seri,baharia,sensilyo","sensilyo","n","2","html-keyboard-response","164","j","baharia","false","",""
"2773.3999996185303","","","","","2","html-slider-response","165","","","","2",""
"5668","coffin","barua,kioo,tubag,hulma","kioo","v","2","html-keyboard-response","166","j","tubag","false","",""
"4666.800000190735","","","","","2","html-slider-response","167","","","","3",""
"8881","notebook","kemia,msitu,kila,mdudu","kemia","f","2","html-keyboard-response","168","v","msitu","false","",""
"3125.6000003814697","","","","","2","html-slider-response","169","","","","1",""
"2445","shoulder","kelele,ndaniya,guruwe,mkuu","mkuu","n","2","html-keyboard-response","170","n","mkuu","true","",""
"2942","","","","","2","html-slider-response","171","","","","4",""
"9213","park","tambok,bunifu,pwani,ihalas","bunifu","v","2","html-keyboard-response","172","v","bunifu","true","",""
"4206.5","","","","","2","html-slider-response","173","","","","3",""
"4586","number","shule,kengele,mundamo,choori","mundamo","j","2","html-keyboard-response","174","j","mundamo","true","",""
"3585.4000005722046","","","","","2","html-slider-response","175","","","","3",""
"3812","apple","ukame,kisu,estante,edad","kisu","v","2","html-keyboard-response","176","v","kisu","true","",""
"4031.199999809265","","","","","2","html-slider-response","177","","","","3",""
"5973","letter","kifua,filimbi,chuma,uhuru","kifua","f","2","html-keyboard-response","178","n","uhuru","false","",""
"2901.0999994277954","","","","","2","html-slider-response","179","","","","2",""
"5768","eel","ishara,kunywa,kabuang,msumari","msumari","n","2","html-keyboard-response","180","f","ishara","false","",""
"3705.3999996185303","","","","","2","html-slider-response","181","","","","1",""
"2395","cop","bustani,jikoni,bakus,mechezo","mechezo","n","2","html-keyboard-response","182","n","mechezo","true","",""
"3203.199999809265","","","","","2","html-slider-response","183","","","","4",""
"2316","wolf","lugha,kaburi,ndizi,mchuzi","lugha","f","2","html-keyboard-response","184","f","lugha","true","",""
"3354.199999809265","","","","","2","html-slider-response","185","","","","4",""
"9394","squirrel","mahugaw,ukweli,kichwa,hofu","hofu","n","2","html-keyboard-response","186","v","ukweli","false","",""
"2570.3999996185303","","","","","2","html-slider-response","187","","","","2",""
"6176","nose","sehemu,gubat,kopa,kidole","sehemu","f","2","html-keyboard-response","188","f","sehemu","true","",""
"4306.300000190735","","","","","2","html-slider-response","189","","","","3",""
"8367","sock","mamba,ndoora,kimysa,mtirka","mamba","f","2","html-keyboard-response","190","f","mamba","true","",""
"3766.1000003814697","","","","","2","html-slider-response","191","","","","4",""
"6550","bank","kudhibi,tualya,silingan,ofisi","silingan","j","2","html-keyboard-response","192","j","silingan","true","",""
"2609.6000003814697","","","","","2","html-slider-response","193","","","","2",""
"3147","donkey","bloke,lalake,rombus,elfu","elfu","n","2","html-keyboard-response","194","n","elfu","true","",""
"2706.5","","","","","2","html-slider-response","195","","","","2",""
"6962","poster","nchi,fedha,madungog,kasuko","madungog","j","2","html-keyboard-response","196","j","madungog","true","",""
"3692.5","","","","","2","html-slider-response","197","","","","3",""
"4981","puppet","napulo,lamok,mazishi,godoro","mazishi","j","2","html-keyboard-response","198","j","mazishi","true","",""
"3058.699999809265","","","","","2","html-slider-response","199","","","","2",""
"5755","hill","kushoto,matumbo,kukimba,sweta","matumbo","v","2","html-keyboard-response","200","j","kukimba","false","",""
"2851.6000003814697","","","","","2","html-slider-response","201","","","","2",""
"3663","tooth","kijiko,kabalaka,uadui,pahiyum","kabalaka","v","2","html-keyboard-response","202","v","kabalaka","true","",""
"2882.9000005722046","","","","","2","html-slider-response","203","","","","4",""
"3632","woman","pagtabon,bandari,bituin,kovuli","pagtabon","f","2","html-keyboard-response","204","f","pagtabon","true","",""
"2865.2000007629395","","","","","2","html-slider-response","205","","","","5",""
"6376","wheel","punda,bafuni,tawo,baadaye","bafuni","v","2","html-keyboard-response","206","v","bafuni","true","",""
"3194.699999809265","","","","","2","html-slider-response","207","","","","2",""
"2650","mother","kahawa,mbuzi,babaye,jokofu","babaye","j","2","html-keyboard-response","208","j","babaye","true","",""
"3066.7999992370605","","","","","2","html-slider-response","209","","","","5",""
"5556","bed","kalipay,haraka,mapintas,starehe","mapintas","j","2","html-keyboard-response","210","f","kalipay","false","",""
"3419.3999996185303","","","","","2","html-slider-response","211","","","","2",""
"3210","key","chombo,miaka,goma,ahos","chombo","f","2","html-keyboard-response","212","f","chombo","true","",""
"3215.7000007629395","","","","","2","html-slider-response","213","","","","4",""
"20807","page","wakala,ishiri,wimbo,skina","wimbo","j","2","html-keyboard-response","214","v","ishiri","false","",""
"3009.199999809265","","","","","2","html-slider-response","215","","","","2",""
"5919","pants","pintal,haki,chuki,hari","haki","v","2","html-keyboard-response","216","n","hari","false","",""
"6045.699999809265","","","","","2","html-slider-response","217","","","","3",""
"3457","sun","bendi,basi,luha,uongo","basi","v","2","html-keyboard-response","218","v","basi","true","",""
"3282.5","","","","","2","html-slider-response","219","","","","4",""
"5387","finger","moyo,simu,sufuria,lima","moyo","f","2","html-keyboard-response","220","f","moyo","true","",""
"3309.199999809265","","","","","2","html-slider-response","221","","","","3",""
"7491","shoe","nyeusi,hatua,uyoga,kama","uyoga","j","2","html-keyboard-response","222","n","kama","false","",""
"2799.0999994277954","","","","","2","html-slider-response","223","","","","2",""
"11389","giraffe","daraja,mahitabo,jumatu,hangyo","mahitabo","v","2","html-keyboard-response","224","j","jumatu","false","",""
"3470","","","","","2","html-slider-response","225","","","","2",""
"4645","dog","lubi,bahari,washia,kalamu","bahari","v","2","html-keyboard-response","226","v","bahari","true","",""
"3116","","","","","2","html-slider-response","227","","","","4",""
"7812","box","kuacha,adui,rafiki,kitande","adui","v","2","html-keyboard-response","228","n","kitande","false","",""
"3924.699999809265","","","","","2","html-slider-response","229","","","","2",""
"5432","scissors","duga,mtawa,tanuri,suga","tanuri","j","2","html-keyboard-response","230","j","tanuri","true","",""
"2718","","","","","2","html-slider-response","231","","","","2",""
"6053","cat","neyemba,baki,paghukom,akili","paghukom","j","2","html-keyboard-response","232","j","paghukom","true","",""
"3691.699999809265","","","","","2","html-slider-response","233","","","","3",""
"4287","basket","kumbuka,utepe,kumba,hasira","kumba","j","2","html-keyboard-response","234","j","kumba","true","",""
"3062.8999996185303","","","","","2","html-slider-response","235","","","","4",""
"4779","snake","pagtukod,jansa,karon,mvringo","pagtukod","f","2","html-keyboard-response","236","f","pagtukod","true","",""
"2727.300000190735","","","","","2","html-slider-response","237","","","","4",""
"8092","gift","pagtawag,baba,nyange,baso","pagtawag","f","2","html-keyboard-response","238","f","pagtawag","true","",""
"2965.199999809265","","","","","2","html-slider-response","239","","","","2",""
"3744","train","itik,sayari,dakika,mungu","sayari","v","2","html-keyboard-response","240","n","mungu","false","",""
"4065.6000003814697","","","","","2","html-slider-response","241","","","","3",""
"4098","pudding","abug,mpishi,aibu,iring","aibu","j","2","html-keyboard-response","242","f","abug","false","",""
"3287.9000005722046","","","","","2","html-slider-response","243","","","","2",""
"9391","tomato","chupi,chupa,mvua,takatak","mvua","j","2","html-keyboard-response","244","j","mvua","true","",""
"3233.800000190735","","","","","2","html-slider-response","245","","","","2",""
"3228","stone","ulimwengu,wingi,mkasi,asili","wingi","v","2","html-keyboard-response","246","v","wingi","true","",""
"3757.199999809265","","","","","2","html-slider-response","247","","","","1",""
"11026","hammer","mekno,napakyas,kitovu,layag","napakyas","v","2","html-keyboard-response","248","v","napakyas","true","",""
"4458.5","","","","","2","html-slider-response","249","","","","2",""
"2746","knee","mvuke,duka,kubale,bili","duka","v","2","html-keyboard-response","250","v","duka","true","",""
"3072.699999809265","","","","","2","html-slider-response","251","","","","5",""
"4463","ceiling","kugita,kawaida,maua,rayna","maua","j","2","html-keyboard-response","252","v","kawaida","false","",""
"3398.5","","","","","2","html-slider-response","253","","","","4",""
"8388","spoon","betri,nzuri,ngazi,pagsulod","pagsulod","n","2","html-keyboard-response","254","n","pagsulod","true","",""
"4300","","","","","2","html-slider-response","255","","","","3",""
"3838","marker","mapafu,maji,salita,atay","maji","v","2","html-keyboard-response","256","v","maji","true","",""
"3073.9000005722046","","","","","2","html-slider-response","257","","","","4",""
"4014","candle","geza,gabi,farasi,kupanda","geza","f","2","html-keyboard-response","258","f","geza","true","",""
"3470.5","","","","","2","html-slider-response","259","","","","4",""
"24573","tissue","lamigas,kisiwa,ugomvi,katika","ugomvi","j","2","html-keyboard-response","260","n","katika","false","",""
"3122.800000190735","","","","","2","html-slider-response","261","","","","2",""
"3762","bridge","daima,ngono,panya,sahani","sahani","n","2","html-keyboard-response","262","n","sahani","true","",""
"5108.5","","","","","2","html-slider-response","263","","","","3",""
"3288","berry","abogado,kofia,nogozi,kinywa","kofia","v","2","html-keyboard-response","264","v","kofia","true","",""
"3040","","","","","2","html-slider-response","265","","","","4",""
"7571","triangle","kasadpan,kihozi,bentaha,liog","kasadpan","f","2","html-keyboard-response","266","f","kasadpan","true","",""
"3745.800000190735","","","","","2","html-slider-response","267","","","","3",""
"7159","door","surali,tena,soko,nyota","surali","f","2","html-keyboard-response","268","j","soko","false","",""
"3221.800000190735","","","","","2","html-slider-response","269","","","","2",""
"3543","fish","buli,bala,baho,imani","buli","f","2","html-keyboard-response","270","f","buli","true","",""
"4000","","","","","2","html-slider-response","271","","","","3",""
"8090","curtain","lisud,mchanga,bulwawan,chubani","mchanga","v","2","html-keyboard-response","272","v","mchanga","true","",""
"2678.300000190735","","","","","2","html-slider-response","273","","","","2",""
"4186","flag","ndege,trekta,mkate,kawa","trekta","v","2","html-keyboard-response","274","n","kawa","false","",""
"2920.699999809265","","","","","2","html-slider-response","275","","","","2",""
"5072","boat","hamsi,agalon,pombe,kitanda","agalon","v","2","html-keyboard-response","276","n","kitanda","false","",""
"5064.800000190735","","","","","2","html-slider-response","277","","","","3",""
"6222","rose","paghalad,singizi,mwanake,amani","paghalad","f","2","html-keyboard-response","278","n","amani","false","",""
"4000.4000005722046","","","","","2","html-slider-response","279","","","","3",""
"4812","lamp","afya,daub,bilaska,mbolea","afya","f","2","html-keyboard-response","280","j","bilaska","false","",""
"5093.900000572205","","","","","2","html-slider-response","281","","","","3",""
"7017","cigar","ndugu,kuta,adhabu,mlango","adhabu","j","2","html-keyboard-response","282","n","mlango","false","",""
"3267.199999809265","","","","","2","html-slider-response","283","","","","2",""
"3608","list","alizeti,kuzama,kaso,wingu","wingu","n","2","html-keyboard-response","284","n","wingu","true","",""
"3380.199999809265","","","","","2","html-slider-response","285","","","","2",""
"2876","sheet","juuya,bililhon,watu,kamantis","bililhon","v","2","html-keyboard-response","286","n","kamantis","false","",""
"2699.699999809265","","","","","2","html-slider-response","287","","","","2",""
"4550","picture","kubwa,silya,chaki,asin","kubwa","f","2","html-keyboard-response","288","f","kubwa","true","",""
"4237.199999809265","","","","","2","html-slider-response","289","","","","3",""
"6498","towel","pagpalit,tembo,funzi,pito","pagpalit","f","2","html-keyboard-response","290","j","funzi","false","",""
"2799.7000007629395","","","","","2","html-slider-response","291","","","","2",""
"7241","window","nanga,kujenga,kweli,umaga","kweli","j","2","html-keyboard-response","292","n","umaga","false","",""
"3345.6000003814697","","","","","2","html-slider-response","293","","","","3",""
"2277","box","kuacha,rafiki,kitande,adui","adui","n","3","html-keyboard-response","310","v","rafiki","false","","4"
"2464.5","","","","","3","html-slider-response","311","","","","2",""
"null","","","","","3","html-keyboard-response","312","","","","",""
"4921","pants","pintal,chuki,haki,hari","haki","j","3","html-keyboard-response","313","n","hari","false","","4"
"4352.199999809265","","","","","3","html-slider-response","314","","","","3",""
"null","","","","","3","html-keyboard-response","315","","","","",""
"5246","cup","dagat,shimoni,matumai,jeraha","matumai","j","3","html-keyboard-response","316","j","matumai","true","","4"
"3605.7999992370605","","","","","3","html-slider-response","317","","","","3",""
"null","","","","","3","html-keyboard-response","318","","","","",""
"4513","triangle","kihozi,bentaha,kasadpan,liog","kasadpan","j","3","html-keyboard-response","319","j","kasadpan","true","","4"
"2372.9000005722046","","","","","3","html-slider-response","320","","","","4",""
"null","","","","","3","html-keyboard-response","321","","","","",""
"7437","curtain","lisud,bulwawan,chubani,mchanga","mchanga","n","3","html-keyboard-response","322","v","bulwawan","false","","4"
"2976.2999992370605","","","","","3","html-slider-response","323","","","","2",""
"null","","","","","3","html-keyboard-response","324","","","","",""
"3309","clock","kartasi,abang,mbwa,osha","mbwa","j","3","html-keyboard-response","325","j","mbwa","true","","4"
"2405.5","","","","","3","html-slider-response","326","","","","4",""
"null","","","","","3","html-keyboard-response","327","","","","",""
"8255","mirror","rangi,kanding,furaha,sulagma","sulagma","n","3","html-keyboard-response","328","v","kanding","false","","4"
"3033.199999809265","","","","","3","html-slider-response","329","","","","3",""
"null","","","","","3","html-keyboard-response","330","","","","",""
"4119","coffin","kioo,barua,tubag,hulma","kioo","f","3","html-keyboard-response","331","f","kioo","true","","1"
"2770.6000003814697","","","","","3","html-slider-response","332","","","","5",""
"null","","","","","3","html-keyboard-response","333","","","","",""
"5105","magazine","gundi,mchawi,kiti,bahandi","kiti","j","3","html-keyboard-response","334","j","kiti","true","","4"
"2848.3999996185303","","","","","3","html-slider-response","335","","","","5",""
"null","","","","","3","html-keyboard-response","336","","","","",""
"4455","column","ufagio,pundok,dila,pala","ufagio","f","3","html-keyboard-response","337","f","ufagio","true","","1"
"3233.800000190735","","","","","3","html-slider-response","338","","","","5",""
"null","","","","","3","html-keyboard-response","339","","","","",""
"5368","number","mundamo,shule,kengele,choori","mundamo","f","3","html-keyboard-response","340","f","mundamo","true","","4"
"2073.9000005722046","","","","","3","html-slider-response","341","","","","4",""
"null","","","","","3","html-keyboard-response","342","","","","",""
"4445","rose","singizi,mwanake,paghalad,amani","paghalad","j","3","html-keyboard-response","343","n","amani","false","","4"
"3129.3999996185303","","","","","3","html-slider-response","344","","","","3",""
"null","","","","","3","html-keyboard-response","345","","","","",""
"6976","eel","ishara,kunywa,kabuang,msumari","msumari","n","3","html-keyboard-response","346","f","ishara","false","","4"
"2670.5","","","","","3","html-slider-response","347","","","","1",""
"null","","","","","3","html-keyboard-response","348","","","","",""
"11316","gift","pagtawag,baba,nyange,baso","pagtawag","f","3","html-keyboard-response","349","f","pagtawag","true","","4"
"2379.4000005722046","","","","","3","html-slider-response","350","","","","2",""
"null","","","","","3","html-keyboard-response","351","","","","",""
"2332","apple","ukame,estante,edad,kisu","kisu","n","3","html-keyboard-response","352","n","kisu","true","","1"
"2725.9000005722046","","","","","3","html-slider-response","353","","","","5",""
"null","","","","","3","html-keyboard-response","354","","","","",""
"3241","wheel","punda,tawo,bafuni,baadaye","bafuni","j","3","html-keyboard-response","355","j","bafuni","true","","1"
"2845.0999994277954","","","","","3","html-slider-response","356","","","","5",""
"null","","","","","3","html-keyboard-response","357","","","","",""
"2257","knee","mvuke,kubale,duka,bili","duka","j","3","html-keyboard-response","358","j","duka","true","","4"
"2698.199999809265","","","","","3","html-slider-response","359","","","","5",""
"null","","","","","3","html-keyboard-response","360","","","","",""
"2953","basket","kumbuka,kumba,utepe,hasira","kumba","v","3","html-keyboard-response","361","v","kumba","true","","1"
"2786.1000003814697","","","","","3","html-slider-response","362","","","","5",""
"null","","","","","3","html-keyboard-response","363","","","","",""
"10416","park","bunifu,tambok,pwani,ihalas","bunifu","f","3","html-keyboard-response","364","f","bunifu","true","","4"
"3013.300000190735","","","","","3","html-slider-response","365","","","","3",""
"null","","","","","3","html-keyboard-response","366","","","","",""
"8079","finger","simu,sufuria,lima,moyo","moyo","n","3","html-keyboard-response","367","n","moyo","true","","4"
"2723.1000003814697","","","","","3","html-slider-response","368","","","","3",""
"null","","","","","3","html-keyboard-response","369","","","","",""
"4837","boat","hamsi,pombe,agalon,kitanda","agalon","j","3","html-keyboard-response","370","j","agalon","true","","4"
"2405.3999996185303","","","","","3","html-slider-response","371","","","","2",""
"null","","","","","3","html-keyboard-response","372","","","","",""
"4490","hill","matumbo,kushoto,kukimba,sweta","matumbo","f","3","html-keyboard-response","373","f","matumbo","true","","4"
"2531.2000007629395","","","","","3","html-slider-response","374","","","","4",""
"null","","","","","3","html-keyboard-response","375","","","","",""
"6900","train","itik,dakika,mungu,sayari","sayari","n","3","html-keyboard-response","376","v","dakika","false","","4"
"2951.800000190735","","","","","3","html-slider-response","377","","","","2",""
"null","","","","","3","html-keyboard-response","378","","","","",""
"2535","wolf","kaburi,ndizi,lugha,mchuzi","lugha","j","3","html-keyboard-response","379","j","lugha","true","","4"
"2849.9000005722046","","","","","3","html-slider-response","380","","","","5",""
"null","","","","","3","html-keyboard-response","381","","","","",""
"5438","snake","pagtukod,jansa,karon,mvringo","pagtukod","f","3","html-keyboard-response","382","f","pagtukod","true","","4"
"3472","","","","","3","html-slider-response","383","","","","4",""
"null","","","","","3","html-keyboard-response","384","","","","",""
"3391","tooth","kijiko,uadui,kabalaka,pahiyum","kabalaka","j","3","html-keyboard-response","385","j","kabalaka","true","","4"
"2415.1000003814697","","","","","3","html-slider-response","386","","","","4",""
"null","","","","","3","html-keyboard-response","387","","","","",""
"8183","notebook","msitu,kila,mdudu,kemia","kemia","n","3","html-keyboard-response","388","j","mdudu","false","","4"
"2351.699999809265","","","","","3","html-slider-response","389","","","","2",""
"null","","","","","3","html-keyboard-response","390","","","","",""
"5551","flag","ndege,trekta,mkate,kawa","trekta","v","3","html-keyboard-response","391","n","kawa","false","","4"
"2333.1000003814697","","","","","3","html-slider-response","392","","","","2",""
"null","","","","","3","html-keyboard-response","393","","","","",""
"11111","squirrel","hofu,mahugaw,ukweli,kichwa","hofu","f","3","html-keyboard-response","394","v","mahugaw","false","","4"
"2959.5999994277954","","","","","3","html-slider-response","395","","","","3",""
"null","","","","","3","html-keyboard-response","396","","","","",""
"7444","door","tena,soko,surali,nyota","surali","j","3","html-keyboard-response","397","j","surali","true","","4"
"3315.5","","","","","3","html-slider-response","398","","","","2",""
"null","","","","","3","html-keyboard-response","399","","","","",""
"4845","salmon","sensilyo,mzungu,seri,baharia","sensilyo","f","3","html-keyboard-response","400","n","baharia","false","","4"
"2429.199999809265","","","","","3","html-slider-response","401","","","","2",""
"null","","","","","3","html-keyboard-response","402","","","","",""
"3569","shoulder","kelele,mkuu,ndaniya,guruwe","mkuu","v","3","html-keyboard-response","403","v","mkuu","true","","4"
"2650.300000190735","","","","","3","html-slider-response","404","","","","5",""
"null","","","","","3","html-keyboard-response","405","","","","",""
"3818","lamp","daub,afya,bilaska,mbolea","afya","v","3","html-keyboard-response","406","v","afya","true","","4"
"2663.199999809265","","","","","3","html-slider-response","407","","","","3",""
"null","","","","","3","html-keyboard-response","408","","","","",""
"4294","shelf","bungtod,kadaot,awit,pamahaw","pamahaw","n","3","html-keyboard-response","409","n","pamahaw","true","","1"
"3227.2000007629395","","","","","3","html-slider-response","410","","","","5",""
"null","","","","","3","html-keyboard-response","411","","","","",""
"4919","human","tinapay,bado,kikapu,punguza","tinapay","f","3","html-keyboard-response","412","f","tinapay","true","","4"
"2183.5","","","","","3","html-slider-response","413","","","","4",""
"null","","","","","3","html-keyboard-response","414","","","","",""
"6561","towel","tembo,funzi,pito,pagpalit","pagpalit","n","3","html-keyboard-response","415","n","pagpalit","true","","4"
"2796.7999992370605","","","","","3","html-slider-response","416","","","","3",""
"null","","","","","3","html-keyboard-response","417","","","","",""
"3664","cat","neyemba,baki,akili,paghukom","paghukom","n","3","html-keyboard-response","418","n","paghukom","true","","4"
"2743.699999809265","","","","","3","html-slider-response","419","","","","3",""
"null","","","","","3","html-keyboard-response","420","","","","",""
"5722","spider","kamwe,bunyag,mkboa,atop","kamwe","f","3","html-keyboard-response","421","f","kamwe","true","","4"
"3406.5","","","","","3","html-slider-response","422","","","","3",""
"null","","","","","3","html-keyboard-response","423","","","","",""
"9322","window","kweli,nanga,kujenga,umaga","kweli","f","3","html-keyboard-response","424","n","umaga","false","","4"
"2455","","","","","3","html-slider-response","425","","","","2",""
"null","","","","","3","html-keyboard-response","426","","","","",""
"1826","woman","bandari,bituin,kovuli,pagtabon","pagtabon","n","3","html-keyboard-response","427","n","pagtabon","true","","1"
"2500.6000003814697","","","","","3","html-slider-response","428","","","","5",""
"null","","","","","3","html-keyboard-response","429","","","","",""
"14414","giraffe","mahitabo,daraja,jumatu,hangyo","mahitabo","f","3","html-keyboard-response","430","j","jumatu","false","","4"
"2991.199999809265","","","","","3","html-slider-response","431","","","","3",""
"null","","","","","3","html-keyboard-response","432","","","","",""
"2562","elephant","kito,petye,pagduol,suka","kito","f","3","html-keyboard-response","433","f","kito","true","","4"
"2699.300000190735","","","","","3","html-slider-response","434","","","","5",""
"null","","","","","3","html-keyboard-response","435","","","","",""
"5644","cave","kesho,ganti,maisha,nyundo","kesho","f","3","html-keyboard-response","436","v","ganti","false","","4"
"3043.1000003814697","","","","","3","html-slider-response","437","","","","3",""
"null","","","","","3","html-keyboard-response","438","","","","",""
"4947","bread","kaili,dizeli,dari,bugas","dari","j","3","html-keyboard-response","439","j","dari","true","","4"
"3216.4000005722046","","","","","3","html-slider-response","440","","","","3",""
"null","","","","","3","html-keyboard-response","441","","","","",""
"6152","stone","wingi,ulimwengu,mkasi,asili","wingi","f","3","html-keyboard-response","442","j","mkasi","false","","4"
"2378.5","","","","","3","html-slider-response","443","","","","1",""
"null","","","","","3","html-keyboard-response","444","","","","",""
"9090","donkey","bloke,lalake,rombus,elfu","elfu","n","3","html-keyboard-response","445","n","elfu","true","","4"
"2305.800000190735","","","","","3","html-slider-response","446","","","","2",""
"null","","","","","3","html-keyboard-response","447","","","","",""
"4089","bridge","daima,ngono,panya,sahani","sahani","n","3","html-keyboard-response","448","n","sahani","true","","4"
"2755.199999809265","","","","","3","html-slider-response","449","","","","4",""
"null","","","","","3","html-keyboard-response","450","","","","",""
"5968","bonfire","goti,mwezi,mfuko,kusanya","goti","f","3","html-keyboard-response","451","v","mwezi","false","","4"
"4087.5999994277954","","","","","3","html-slider-response","452","","","","2",""
"null","","","","","3","html-keyboard-response","453","","","","",""
"5951","book","kuhesa,picha,mali,mara","mali","j","3","html-keyboard-response","454","j","mali","true","","4"
"3276.300000190735","","","","","3","html-slider-response","455","","","","3",""
"null","","","","","3","html-keyboard-response","456","","","","",""
"3560","fish","buli,bala,baho,imani","buli","f","3","html-keyboard-response","457","v","bala","false","","4"
"3008.0999994277954","","","","","3","html-slider-response","458","","","","3",""
"null","","","","","3","html-keyboard-response","459","","","","",""
"6560","spoon","betri,pagsulod,nzuri,ngazi","pagsulod","v","3","html-keyboard-response","460","v","pagsulod","true","","4"
"2572.6000003814697","","","","","3","html-slider-response","461","","","","2",""
"null","","","","","3","html-keyboard-response","462","","","","",""
"3887","scissors","duga,mtawa,suga,tanuri","tanuri","n","3","html-keyboard-response","463","v","mtawa","false","","4"
"3002.300000190735","","","","","3","html-slider-response","464","","","","3",""
"null","","","","","3","html-keyboard-response","465","","","","",""
"7382","page","wakala,ishiri,skina,wimbo","wimbo","n","3","html-keyboard-response","466","v","ishiri","false","","4"
"2103.3999996185303","","","","","3","html-slider-response","467","","","","2",""
"null","","","","","3","html-keyboard-response","468","","","","",""
"1687","nose","gubat,sehemu,kopa,kidole","sehemu","v","3","html-keyboard-response","469","v","sehemu","true","","1"
"2617.9000005722046","","","","","3","html-slider-response","470","","","","5",""
"null","","","","","3","html-keyboard-response","471","","","","",""
"3934","ceiling","kugita,kawaida,rayna,maua","maua","n","3","html-keyboard-response","472","v","kawaida","false","","4"
"3044.3999996185303","","","","","3","html-slider-response","473","","","","3",""
"null","","","","","3","html-keyboard-response","474","","","","",""
"5320","bucket","baga,ijayo,kiatu,init","kiatu","j","3","html-keyboard-response","475","f","baga","false","","4"
"2223.6000003814697","","","","","3","html-slider-response","476","","","","2",""
"null","","","","","3","html-keyboard-response","477","","","","",""
"1666","berry","abogado,nogozi,kofia,kinywa","kofia","j","3","html-keyboard-response","478","j","kofia","true","","1"
"2349.6000003814697","","","","","3","html-slider-response","479","","","","5",""
"null","","","","","3","html-keyboard-response","480","","","","",""
"2780","mother","kahawa,mbuzi,babaye,jokofu","babaye","j","3","html-keyboard-response","481","j","babaye","true","","1"
"2725","","","","","3","html-slider-response","482","","","","5",""
"null","","","","","3","html-keyboard-response","483","","","","",""
"2487","mosquito","martilyo,isda,taras,gutom","martilyo","f","3","html-keyboard-response","484","f","martilyo","true","","4"
"2174.199999809265","","","","","3","html-slider-response","485","","","","4",""
"null","","","","","3","html-keyboard-response","486","","","","",""
"5198","perfume","katuyoan,bino,sungura,ndogo","katuyoan","f","3","html-keyboard-response","487","f","katuyoan","true","","4"
"2912.5","","","","","3","html-slider-response","488","","","","4",""
"null","","","","","3","html-keyboard-response","489","","","","",""
"3602","sheet","juuya,watu,bililhon,kamantis","bililhon","j","3","html-keyboard-response","490","v","watu","false","","4"
"2221.5999994277954","","","","","3","html-slider-response","491","","","","2",""
"null","","","","","3","html-keyboard-response","492","","","","",""
"2351","puppet","napulo,lamok,mazishi,godoro","mazishi","j","3","html-keyboard-response","493","j","mazishi","true","","1"
"2899.199999809265","","","","","3","html-slider-response","494","","","","5",""
"null","","","","","3","html-keyboard-response","495","","","","",""
"4721","poster","nchi,madungog,fedha,kasuko","madungog","v","3","html-keyboard-response","496","v","madungog","true","","4"
"2557.5","","","","","3","html-slider-response","497","","","","4",""
"null","","","","","3","html-keyboard-response","498","","","","",""
"4688","music","mraba,mageho,tumbo,baiski","baiski","n","3","html-keyboard-response","499","n","baiski","true","","4"
"3853.4000005722046","","","","","3","html-slider-response","500","","","","3",""
"null","","","","","3","html-keyboard-response","501","","","","",""
"8315","key","miaka,chombo,goma,ahos","chombo","v","3","html-keyboard-response","502","v","chombo","true","","4"
"2470.4000005722046","","","","","3","html-slider-response","503","","","","4",""
"null","","","","","3","html-keyboard-response","504","","","","",""
"2092","sock","ndoora,mamba,kimysa,mtirka","mamba","v","3","html-keyboard-response","505","v","mamba","true","","4"
"3233.9000005722046","","","","","3","html-slider-response","506","","","","5",""
"null","","","","","3","html-keyboard-response","507","","","","",""
"14918","marker","mapafu,salita,maji,atay","maji","j","3","html-keyboard-response","508","v","salita","false","","4"
"2895.2000007629395","","","","","3","html-slider-response","509","","","","2",""
"null","","","","","3","html-keyboard-response","510","","","","",""
"6629","office","hazini,yatima,kuna,leso","leso","n","3","html-keyboard-response","511","n","leso","true","","4"
"3450.199999809265","","","","","3","html-slider-response","512","","","","4",""
"null","","","","","3","html-keyboard-response","513","","","","",""
"8379","shoe","nyeusi,hatua,uyoga,kama","uyoga","j","3","html-keyboard-response","514","v","hatua","false","","4"
"3558.1000003814697","","","","","3","html-slider-response","515","","","","3",""
"null","","","","","3","html-keyboard-response","516","","","","",""
"2545","cop","mechezo,bustani,jikoni,bakus","mechezo","f","3","html-keyboard-response","517","f","mechezo","true","","4"
"3372.699999809265","","","","","3","html-slider-response","518","","","","5",""
"null","","","","","3","html-keyboard-response","519","","","","",""
"5984","bank","kudhibi,silingan,tualya,ofisi","silingan","v","3","html-keyboard-response","520","v","silingan","true","","4"
"3649.300000190735","","","","","3","html-slider-response","521","","","","4",""
"null","","","","","3","html-keyboard-response","522","","","","",""
"42982","letter","filimbi,chuma,kifua,uhuru","kifua","j","3","html-keyboard-response","523","j","kifua","true","","1"
"3128.0999994277954","","","","","3","html-slider-response","524","","","","5",""
"null","","","","","3","html-keyboard-response","525","","","","",""
"3296","dog","lubi,washia,bahari,kalamu","bahari","j","3","html-keyboard-response","526","j","bahari","true","","1"
"3029.4000005722046","","","","","3","html-slider-response","527","","","","5",""
"null","","","","","3","html-keyboard-response","528","","","","",""
"3167","shop","nopya,samaki,kerida,ndezu","samaki","v","3","html-keyboard-response","529","v","samaki","true","","4"
"13764.199999809265","","","","","3","html-slider-response","530","","","","5",""
"null","","","","","3","html-keyboard-response","531","","","","",""
"9201","flower","tamasha,bega,lobo,usiku","bega","v","3","html-keyboard-response","532","v","bega","true","","4"
"3345.199999809265","","","","","3","html-slider-response","533","","","","3",""
"null","","","","","3","html-keyboard-response","534","","","","",""
"2275","cigar","ndugu,adhabu,kuta,mlango","adhabu","v","3","html-keyboard-response","535","v","adhabu","true","","1"
"3365.2999992370605","","","","","3","html-slider-response","536","","","","5",""
"null","","","","","3","html-keyboard-response","537","","","","",""
"4701","hammer","mekno,napakyas,kitovu,layag","napakyas","v","3","html-keyboard-response","538","f","mekno","false","","4"
"3867.199999809265","","","","","3","html-slider-response","539","","","","2",""
"null","","","","","3","html-keyboard-response","540","","","","",""
"15242","fork","baboy,paghago,gorisi,mgonjwa","mgonjwa","n","3","html-keyboard-response","541","v","paghago","false","","4"
"3914.199999809265","","","","","3","html-slider-response","542","","","","3",""
"null","","","","","3","html-keyboard-response","543","","","","",""
"11521","sun","basi,bendi,luha,uongo","basi","f","3","html-keyboard-response","544","f","basi","true","","1"
"4736.199999809265","","","","","3","html-slider-response","545","","","","5",""
"null","","","","","3","html-keyboard-response","546","","","","",""
"19521","ladder","mashua,pangalan,mwanga,kamba","pangalan","v","3","html-keyboard-response","547","j","mwanga","false","","4"
"2938.4000005722046","","","","","3","html-slider-response","548","","","","4",""
"null","","","","","3","html-keyboard-response","549","","","","",""
"11204","banana","kasamok,hagdan,kazi,twai","kazi","j","3","html-keyboard-response","550","j","kazi","true","","1"
"2790","","","","","3","html-slider-response","551","","","","5",""
"null","","","","","3","html-keyboard-response","552","","","","",""
"44920","pudding","abug,mpishi,aibu,iring","aibu","j","3","html-keyboard-response","553","j","aibu","true","","4"
"3036.300000190735","","","","","3","html-slider-response","554","","","","4",""
"null","","","","","3","html-keyboard-response","555","","","","",""
"5480","body","tindashan,nyundu,jibini,kununa","tindashan","f","3","html-keyboard-response","556","f","tindashan","true","","4"
"3962.1000003814697","","","","","3","html-slider-response","557","","","","3",""
"null","","","","","3","html-keyboard-response","558","","","","",""
"3500","bed","kalipay,haraka,starehe,mapintas","mapintas","n","3","html-keyboard-response","559","n","mapintas","true","","4"
"3175","","","","","3","html-slider-response","560","","","","2",""
"null","","","","","3","html-keyboard-response","561","","","","",""
"6074","tissue","lamigas,ugomvi,kisiwa,katika","ugomvi","v","3","html-keyboard-response","562","f","lamigas","false","","4"
"2989.2999992370605","","","","","3","html-slider-response","563","","","","2",""
"null","","","","","3","html-keyboard-response","564","","","","",""
"5271","candle","gabi,farasi,geza,kupanda","geza","j","3","html-keyboard-response","565","j","geza","true","","4"
"4094.0999994277954","","","","","3","html-slider-response","566","","","","3",""
"null","","","","","3","html-keyboard-response","567","","","","",""
"1864","tomato","mvua,chupi,chupa,takatak","mvua","f","3","html-keyboard-response","568","f","mvua","true","","1"
"2907.2999992370605","","","","","3","html-slider-response","569","","","","5",""
"null","","","","","3","html-keyboard-response","570","","","","",""
"5208","list","alizeti,wingu,kuzama,kaso","wingu","v","3","html-keyboard-response","571","v","wingu","true","","4"
"3092.5","","","","","3","html-slider-response","572","","","","4",""
"null","","","","","3","html-keyboard-response","573","","","","",""
"3669","olive","jiwe,bata,siagi,welder","jiwe","f","3","html-keyboard-response","574","f","jiwe","true","","4"
"2713.5","","","","","3","html-slider-response","575","","","","4",""
"null","","","","","3","html-keyboard-response","576","","","","",""
"1755","picture","kubwa,silya,chaki,asin","kubwa","f","3","html-keyboard-response","577","f","kubwa","true","","1"
"3820.800000190735","","","","","3","html-slider-response","578","","","","5",""
"null","","","","","3","html-keyboard-response","579","","","","",""
