"rt","en_word","options","swa_word","correct_answer","phase","trial_type","trial_index","input_answer","input_word","accuracy","certainty","amt_choices"
"2267","bonfire","mwezi,mfuko,goti,kusanya","goti","j","2","html-keyboard-response","114","j","goti","true","",""
"2915.89999999851","","","","","2","html-slider-response","115","","","","4",""
"2912","flower","tamasha,lobo,bega,usiku","bega","j","2","html-keyboard-response","116","j","bega","true","",""
"3138","","","","","2","html-slider-response","117","","","","4",""
"2934","column","pundok,ufagio,dila,pala","ufagio","v","2","html-keyboard-response","118","v","ufagio","true","",""
"3389","","","","","2","html-slider-response","119","","","","4",""
"6184","music","mraba,baiski,mageho,tumbo","baiski","v","2","html-keyboard-response","120","v","baiski","true","",""
"4093.300000000745","","","","","2","html-slider-response","121","","","","2",""
"4560","spider","kamwe,bunyag,mkboa,atop","kamwe","f","2","html-keyboard-response","122","f","kamwe","true","",""
"2990.300000000745","","","","","2","html-slider-response","123","","","","4",""
"4138","fork","baboy,paghago,gorisi,mgonjwa","mgonjwa","n","2","html-keyboard-response","124","n","mgonjwa","true","",""
"4966.10000000149","","","","","2","html-slider-response","125","","","","3",""
"2872","mosquito","isda,martilyo,taras,gutom","martilyo","v","2","html-keyboard-response","126","v","martilyo","true","",""
"3137.699999999255","","","","","2","html-slider-response","127","","","","5",""
"5167","banana","kasamok,kazi,hagdan,twai","kazi","v","2","html-keyboard-response","128","v","kazi","true","",""
"2466.199999999255","","","","","2","html-slider-response","129","","","","2",""
"4604","cup","dagat,shimoni,jeraha,matumai","matumai","n","2","html-keyboard-response","130","n","matumai","true","",""
"2908.199999999255","","","","","2","html-slider-response","131","","","","4",""
"3363","shop","nopya,kerida,samaki,ndezu","samaki","j","2","html-keyboard-response","132","j","samaki","true","",""
"6591.70000000298","","","","","2","html-slider-response","133","","","","3",""
"2618","elephant","petye,pagduol,suka,kito","kito","n","2","html-keyboard-response","134","n","kito","true","",""
"2700.39999999851","","","","","2","html-slider-response","135","","","","5",""
"4008","bucket","baga,ijayo,kiatu,init","kiatu","j","2","html-keyboard-response","136","j","kiatu","true","",""
"3283.800000000745","","","","","2","html-slider-response","137","","","","1",""
"3112","book","kuhesa,mali,picha,mara","mali","v","2","html-keyboard-response","138","v","mali","true","",""
"2378.099999997765","","","","","2","html-slider-response","139","","","","2",""
"6400","mirror","rangi,sulagma,kanding,furaha","sulagma","v","2","html-keyboard-response","140","v","sulagma","true","",""
"2657.599999997765","","","","","2","html-slider-response","141","","","","1",""
"6211","office","hazini,yatima,kuna,leso","leso","n","2","html-keyboard-response","142","f","hazini","false","",""
"3133.199999999255","","","","","2","html-slider-response","143","","","","1",""
"16961","body","tindashan,nyundu,jibini,kununa","tindashan","f","2","html-keyboard-response","144","f","tindashan","true","",""
"2794.60000000149","","","","","2","html-slider-response","145","","","","1",""
"4185","perfume","bino,katuyoan,sungura,ndogo","katuyoan","v","2","html-keyboard-response","146","v","katuyoan","true","",""
"3364","","","","","2","html-slider-response","147","","","","1",""
"5527","olive","bata,siagi,jiwe,welder","jiwe","j","2","html-keyboard-response","148","j","jiwe","true","",""
"4201.599999997765","","","","","2","html-slider-response","149","","","","2",""
"4900","magazine","kiti,gundi,mchawi,bahandi","kiti","f","2","html-keyboard-response","150","f","kiti","true","",""
"2282.800000000745","","","","","2","html-slider-response","151","","","","2",""
"2488","bread","kaili,dizeli,bugas,dari","dari","n","2","html-keyboard-response","152","n","dari","true","",""
"2707.199999999255","","","","","2","html-slider-response","153","","","","4",""
"3994","cave","kesho,ganti,maisha,nyundo","kesho","f","2","html-keyboard-response","154","f","kesho","true","",""
"2297.10000000149","","","","","2","html-slider-response","155","","","","4",""
"7912","ladder","mashua,mwanga,pangalan,kamba","pangalan","j","2","html-keyboard-response","156","j","pangalan","true","",""
"3233.10000000149","","","","","2","html-slider-response","157","","","","1",""
"2377","human","bado,kikapu,punguza,tinapay","tinapay","n","2","html-keyboard-response","158","n","tinapay","true","",""
"2796.89999999851","","","","","2","html-slider-response","159","","","","5",""
"4275","clock","mbwa,kartasi,abang,osha","mbwa","f","2","html-keyboard-response","160","f","mbwa","true","",""
"4327.699999999255","","","","","2","html-slider-response","161","","","","3",""
"9479","shelf","bungtod,pamahaw,kadaot,awit","pamahaw","v","2","html-keyboard-response","162","j","kadaot","false","",""
"2638","","","","","2","html-slider-response","163","","","","2",""
"2530","salmon","sensilyo,mzungu,seri,baharia","sensilyo","f","2","html-keyboard-response","164","f","sensilyo","true","",""
"10842","","","","","2","html-slider-response","165","","","","5",""
"2522","coffin","barua,tubag,kioo,hulma","kioo","j","2","html-keyboard-response","166","j","kioo","true","",""
"2782.800000000745","","","","","2","html-slider-response","167","","","","5",""
"56149","notebook","msitu,kila,kemia,mdudu","kemia","j","2","html-keyboard-response","168","j","kemia","true","",""
"2782.2999999970198","","","","","2","html-slider-response","169","","","","1",""
"3340","shoulder","kelele,ndaniya,guruwe,mkuu","mkuu","n","2","html-keyboard-response","170","v","ndaniya","false","",""
"2860.60000000149","","","","","2","html-slider-response","171","","","","1",""
"3070","park","bunifu,tambok,pwani,ihalas","bunifu","f","2","html-keyboard-response","172","v","tambok","false","",""
"2379.400000002235","","","","","2","html-slider-response","173","","","","2",""
"4176","number","mundamo,shule,kengele,choori","mundamo","f","2","html-keyboard-response","174","f","mundamo","true","",""
"2779.39999999851","","","","","2","html-slider-response","175","","","","3",""
"2620","apple","ukame,estante,kisu,edad","kisu","j","2","html-keyboard-response","176","j","kisu","true","",""
"2468.900000002235","","","","","2","html-slider-response","177","","","","4",""
"4216","letter","kifua,filimbi,chuma,uhuru","kifua","f","2","html-keyboard-response","178","v","filimbi","false","",""
"1965.7999999970198","","","","","2","html-slider-response","179","","","","1",""
"5832","eel","msumari,ishara,kunywa,kabuang","msumari","f","2","html-keyboard-response","180","n","kabuang","false","",""
"2317.300000000745","","","","","2","html-slider-response","181","","","","1",""
"3185","cop","bustani,jikoni,mechezo,bakus","mechezo","j","2","html-keyboard-response","182","j","mechezo","true","",""
"1971.0999999977648","","","","","2","html-slider-response","183","","","","1",""
"3671","wolf","kaburi,ndizi,lugha,mchuzi","lugha","j","2","html-keyboard-response","184","j","lugha","true","",""
"1987.699999999255","","","","","2","html-slider-response","185","","","","1",""
"6574","squirrel","mahugaw,ukweli,hofu,kichwa","hofu","j","2","html-keyboard-response","186","n","kichwa","false","",""
"1909","","","","","2","html-slider-response","187","","","","1",""
"3883","nose","gubat,kopa,sehemu,kidole","sehemu","j","2","html-keyboard-response","188","j","sehemu","true","",""
"1890.3999999985099","","","","","2","html-slider-response","189","","","","2",""
"3010","sock","ndoora,kimysa,mtirka,mamba","mamba","n","2","html-keyboard-response","190","n","mamba","true","",""
"2369.10000000149","","","","","2","html-slider-response","191","","","","5",""
"2491","bank","kudhibi,tualya,silingan,ofisi","silingan","j","2","html-keyboard-response","192","n","ofisi","false","",""
"2433.800000000745","","","","","2","html-slider-response","193","","","","2",""
"2748","donkey","bloke,elfu,lalake,rombus","elfu","v","2","html-keyboard-response","194","v","elfu","true","",""
"2100.099999997765","","","","","2","html-slider-response","195","","","","5",""
"2246","poster","nchi,fedha,madungog,kasuko","madungog","j","2","html-keyboard-response","196","n","kasuko","false","",""
"2548.300000000745","","","","","2","html-slider-response","197","","","","1",""
"2651","puppet","napulo,lamok,mazishi,godoro","mazishi","j","2","html-keyboard-response","198","n","godoro","false","",""
"2133.7999999970198","","","","","2","html-slider-response","199","","","","1",""
"4354","hill","matumbo,kushoto,kukimba,sweta","matumbo","f","2","html-keyboard-response","200","n","sweta","false","",""
"1796.699999999255","","","","","2","html-slider-response","201","","","","2",""
"3352","tooth","kijiko,kabalaka,uadui,pahiyum","kabalaka","v","2","html-keyboard-response","202","v","kabalaka","true","",""
"1920.3999999985099","","","","","2","html-slider-response","203","","","","1",""
"9954","woman","bandari,pagtabon,bituin,kovuli","pagtabon","v","2","html-keyboard-response","204","n","kovuli","false","",""
"2170.400000002235","","","","","2","html-slider-response","205","","","","1",""
"4249","wheel","punda,bafuni,tawo,baadaye","bafuni","v","2","html-keyboard-response","206","j","tawo","false","",""
"2247.89999999851","","","","","2","html-slider-response","207","","","","2",""
"2508","mother","kahawa,mbuzi,babaye,jokofu","babaye","j","2","html-keyboard-response","208","j","babaye","true","",""
"2400.5","","","","","2","html-slider-response","209","","","","5",""
"3058","bed","kalipay,haraka,starehe,mapintas","mapintas","n","2","html-keyboard-response","210","n","mapintas","true","",""
"1681.1000000014901","","","","","2","html-slider-response","211","","","","2",""
"3676","key","miaka,goma,chombo,ahos","chombo","j","2","html-keyboard-response","212","f","miaka","false","",""
"2505.60000000149","","","","","2","html-slider-response","213","","","","1",""
"3186","page","wimbo,wakala,ishiri,skina","wimbo","f","2","html-keyboard-response","214","f","wimbo","true","",""
"1769.199999999255","","","","","2","html-slider-response","215","","","","2",""
"2625","pants","pintal,haki,chuki,hari","haki","v","2","html-keyboard-response","216","n","hari","false","",""
"2037.1000000014901","","","","","2","html-slider-response","217","","","","1",""
"3451","sun","bendi,luha,basi,uongo","basi","j","2","html-keyboard-response","218","v","luha","false","",""
"1874.5","","","","","2","html-slider-response","219","","","","1",""
"5084","finger","simu,sufuria,lima,moyo","moyo","n","2","html-keyboard-response","220","v","sufuria","false","",""
"1898.8999999985099","","","","","2","html-slider-response","221","","","","2",""
"3770","shoe","uyoga,nyeusi,hatua,kama","uyoga","f","2","html-keyboard-response","222","n","kama","false","",""
"1912.8999999985099","","","","","2","html-slider-response","223","","","","1",""
"4034","giraffe","daraja,mahitabo,jumatu,hangyo","mahitabo","v","2","html-keyboard-response","224","n","hangyo","false","",""
"1784.699999999255","","","","","2","html-slider-response","225","","","","2",""
"5059","dog","lubi,washia,bahari,kalamu","bahari","j","2","html-keyboard-response","226","f","lubi","false","",""
"2514.800000000745","","","","","2","html-slider-response","227","","","","1",""
"4382","box","kuacha,rafiki,adui,kitande","adui","j","2","html-keyboard-response","228","n","kitande","false","",""
"2487.39999999851","","","","","2","html-slider-response","229","","","","1",""
"3925","scissors","duga,mtawa,tanuri,suga","tanuri","j","2","html-keyboard-response","230","n","suga","false","",""
"2261.199999999255","","","","","2","html-slider-response","231","","","","1",""
"5063","cat","neyemba,baki,akili,paghukom","paghukom","n","2","html-keyboard-response","232","n","paghukom","true","",""
"2329","","","","","2","html-slider-response","233","","","","2",""
"3858","basket","kumbuka,kumba,utepe,hasira","kumba","v","2","html-keyboard-response","234","n","hasira","false","",""
"2850.7000000029802","","","","","2","html-slider-response","235","","","","1",""
"20823","snake","jansa,karon,pagtukod,mvringo","pagtukod","j","2","html-keyboard-response","236","f","jansa","false","",""
"2741.699999999255","","","","","2","html-slider-response","237","","","","1",""
"8373","gift","baba,nyange,pagtawag,baso","pagtawag","j","2","html-keyboard-response","238","f","baba","false","",""
"2910.300000000745","","","","","2","html-slider-response","239","","","","1",""
"2839","train","itik,dakika,sayari,mungu","sayari","j","2","html-keyboard-response","240","v","dakika","false","",""
"2407.39999999851","","","","","2","html-slider-response","241","","","","1",""
"5651","pudding","abug,mpishi,iring,aibu","aibu","n","2","html-keyboard-response","242","f","abug","false","",""
"2549.5","","","","","2","html-slider-response","243","","","","2",""
"4619","tomato","chupi,chupa,mvua,takatak","mvua","j","2","html-keyboard-response","244","j","mvua","true","",""
"2351.300000000745","","","","","2","html-slider-response","245","","","","1",""
"6935","stone","ulimwengu,mkasi,asili,wingi","wingi","n","2","html-keyboard-response","246","n","wingi","true","",""
"2572.2000000029802","","","","","2","html-slider-response","247","","","","4",""
"12746","hammer","mekno,kitovu,napakyas,layag","napakyas","j","2","html-keyboard-response","248","f","mekno","false","",""
"16815.099999997765","","","","","2","html-slider-response","249","","","","2",""
"3810","knee","duka,mvuke,kubale,bili","duka","f","2","html-keyboard-response","250","j","kubale","false","",""
"4618.60000000149","","","","","2","html-slider-response","251","","","","1",""
"3333","ceiling","kugita,kawaida,maua,rayna","maua","j","2","html-keyboard-response","252","v","kawaida","false","",""
"3034.5","","","","","2","html-slider-response","253","","","","1",""
"2751","spoon","pagsulod,betri,nzuri,ngazi","pagsulod","f","2","html-keyboard-response","254","j","nzuri","false","",""
"2319.60000000149","","","","","2","html-slider-response","255","","","","1",""
"3093","marker","maji,mapafu,salita,atay","maji","f","2","html-keyboard-response","256","f","maji","true","",""
"2155.2000000029802","","","","","2","html-slider-response","257","","","","2",""
"2610","candle","gabi,farasi,kupanda,geza","geza","n","2","html-keyboard-response","258","f","gabi","false","",""
"2176.39999999851","","","","","2","html-slider-response","259","","","","2",""
"3624","tissue","lamigas,ugomvi,kisiwa,katika","ugomvi","v","2","html-keyboard-response","260","f","lamigas","false","",""
"2192.39999999851","","","","","2","html-slider-response","261","","","","1",""
"6284","bridge","daima,ngono,panya,sahani","sahani","n","2","html-keyboard-response","262","n","sahani","true","",""
"2930.800000000745","","","","","2","html-slider-response","263","","","","1",""
"2170","berry","abogado,kofia,nogozi,kinywa","kofia","v","2","html-keyboard-response","264","v","kofia","true","",""
"2205.199999999255","","","","","2","html-slider-response","265","","","","4",""
"5575","triangle","kihozi,bentaha,liog,kasadpan","kasadpan","n","2","html-keyboard-response","266","n","kasadpan","true","",""
"3091.5","","","","","2","html-slider-response","267","","","","1",""
"2408","door","surali,tena,soko,nyota","surali","f","2","html-keyboard-response","268","j","soko","false","",""
"2623","","","","","2","html-slider-response","269","","","","1",""
"3773","fish","bala,baho,buli,imani","buli","j","2","html-keyboard-response","270","n","imani","false","",""
"2189.5","","","","","2","html-slider-response","271","","","","1",""
"7125","curtain","mchanga,lisud,bulwawan,chubani","mchanga","f","2","html-keyboard-response","272","n","chubani","false","",""
"2460.300000000745","","","","","2","html-slider-response","273","","","","1",""
"12696","flag","trekta,ndege,mkate,kawa","trekta","f","2","html-keyboard-response","274","n","kawa","false","",""
"3648.699999999255","","","","","2","html-slider-response","275","","","","2",""
"4084","boat","hamsi,pombe,kitanda,agalon","agalon","n","2","html-keyboard-response","276","n","agalon","true","",""
"2139.5","","","","","2","html-slider-response","277","","","","1",""
"3431","rose","singizi,mwanake,amani,paghalad","paghalad","n","2","html-keyboard-response","278","j","amani","false","",""
"2740.300000000745","","","","","2","html-slider-response","279","","","","1",""
"2695","lamp","afya,daub,bilaska,mbolea","afya","f","2","html-keyboard-response","280","j","bilaska","false","",""
"2504.300000000745","","","","","2","html-slider-response","281","","","","2",""
"5332","cigar","ndugu,kuta,mlango,adhabu","adhabu","n","2","html-keyboard-response","282","v","kuta","false","",""
"2768.300000000745","","","","","2","html-slider-response","283","","","","1",""
"4573","list","wingu,alizeti,kuzama,kaso","wingu","f","2","html-keyboard-response","284","v","alizeti","false","",""
"2682.599999997765","","","","","2","html-slider-response","285","","","","2",""
"2621","sheet","juuya,watu,kamantis,bililhon","bililhon","n","2","html-keyboard-response","286","n","bililhon","true","",""
"3398.10000000149","","","","","2","html-slider-response","287","","","","1",""
"8436","picture","silya,kubwa,chaki,asin","kubwa","v","2","html-keyboard-response","288","j","chaki","false","",""
"2554.300000000745","","","","","2","html-slider-response","289","","","","1",""
"3102","towel","pagpalit,tembo,funzi,pito","pagpalit","f","2","html-keyboard-response","290","n","pito","false","",""
"4088.5","","","","","2","html-slider-response","291","","","","3",""
"2777","window","nanga,kujenga,kweli,umaga","kweli","j","2","html-keyboard-response","292","j","kweli","true","",""
"2370.39999999851","","","","","2","html-slider-response","293","","","","2",""
"3326","box","kuacha,adui,rafiki,kitande","adui","v","3","html-keyboard-response","310","v","adui","true","","4"
"3171.5","","","","","3","html-slider-response","311","","","","1",""
"null","","","","","3","html-keyboard-response","312","","","","",""
"3730","pants","haki,pintal,chuki,hari","haki","f","3","html-keyboard-response","313","j","chuki","false","","4"
"2773.699999999255","","","","","3","html-slider-response","314","","","","1",""
"null","","","","","3","html-keyboard-response","315","","","","",""
"3497","cup","dagat,matumai,shimoni,jeraha","matumai","v","3","html-keyboard-response","316","v","matumai","true","","4"
"2803.2000000029802","","","","","3","html-slider-response","317","","","","4",""
"null","","","","","3","html-keyboard-response","318","","","","",""
"3773","triangle","kihozi,kasadpan,bentaha,liog","kasadpan","v","3","html-keyboard-response","319","v","kasadpan","true","","4"
"2581.400000002235","","","","","3","html-slider-response","320","","","","1",""
"null","","","","","3","html-keyboard-response","321","","","","",""
"4280","curtain","mchanga,lisud,bulwawan,chubani","mchanga","f","3","html-keyboard-response","322","n","chubani","false","","4"
"3179.39999999851","","","","","3","html-slider-response","323","","","","1",""
"null","","","","","3","html-keyboard-response","324","","","","",""
"2812","clock","kartasi,abang,osha,mbwa","mbwa","n","3","html-keyboard-response","325","n","mbwa","true","","4"
"3110.2999999970198","","","","","3","html-slider-response","326","","","","4",""
"null","","","","","3","html-keyboard-response","327","","","","",""
"2771","mirror","rangi,sulagma,kanding,furaha","sulagma","v","3","html-keyboard-response","328","f","rangi","false","","4"
"17029.300000000745","","","","","3","html-slider-response","329","","","","2",""
"null","","","","","3","html-keyboard-response","330","","","","",""
"1966","coffin","kioo,barua,tubag,hulma","kioo","f","3","html-keyboard-response","331","f","kioo","true","","1"
"2449.300000000745","","","","","3","html-slider-response","332","","","","5",""
"null","","","","","3","html-keyboard-response","333","","","","",""
"2548","magazine","gundi,mchawi,bahandi,kiti","kiti","n","3","html-keyboard-response","334","v","mchawi","false","","4"
"2547","","","","","3","html-slider-response","335","","","","2",""
"null","","","","","3","html-keyboard-response","336","","","","",""
"3019","column","pundok,dila,ufagio,pala","ufagio","j","3","html-keyboard-response","337","j","ufagio","true","","1"
"2303.60000000149","","","","","3","html-slider-response","338","","","","5",""
"null","","","","","3","html-keyboard-response","339","","","","",""
"4220","number","shule,kengele,mundamo,choori","mundamo","j","3","html-keyboard-response","340","j","mundamo","true","","4"
"2102.5","","","","","3","html-slider-response","341","","","","1",""
"null","","","","","3","html-keyboard-response","342","","","","",""
"3243","rose","singizi,mwanake,amani,paghalad","paghalad","n","3","html-keyboard-response","343","j","amani","false","","4"
"2843.699999999255","","","","","3","html-slider-response","344","","","","1",""
"null","","","","","3","html-keyboard-response","345","","","","",""
"5919","eel","ishara,kunywa,msumari,kabuang","msumari","j","3","html-keyboard-response","346","f","ishara","false","","4"
"2123.10000000149","","","","","3","html-slider-response","347","","","","1",""
"null","","","","","3","html-keyboard-response","348","","","","",""
"3123","gift","baba,pagtawag,nyange,baso","pagtawag","v","3","html-keyboard-response","349","v","pagtawag","true","","4"
"2078.599999997765","","","","","3","html-slider-response","350","","","","2",""
"null","","","","","3","html-keyboard-response","351","","","","",""
"1709","apple","kisu,ukame,estante,edad","kisu","f","3","html-keyboard-response","352","f","kisu","true","","1"
"3444.800000000745","","","","","3","html-slider-response","353","","","","5",""
"null","","","","","3","html-keyboard-response","354","","","","",""
"1793","wheel","punda,tawo,baadaye,bafuni","bafuni","n","3","html-keyboard-response","355","n","bafuni","true","","1"
"2426.900000002235","","","","","3","html-slider-response","356","","","","5",""
"null","","","","","3","html-keyboard-response","357","","","","",""
"2395","knee","mvuke,duka,kubale,bili","duka","v","3","html-keyboard-response","358","n","bili","false","","4"
"1910.8999999985099","","","","","3","html-slider-response","359","","","","1",""
"null","","","","","3","html-keyboard-response","360","","","","",""
"1741","basket","kumbuka,utepe,kumba,hasira","kumba","j","3","html-keyboard-response","361","j","kumba","true","","1"
"2357.800000000745","","","","","3","html-slider-response","362","","","","5",""
"null","","","","","3","html-keyboard-response","363","","","","",""
"2286","park","tambok,bunifu,pwani,ihalas","bunifu","v","3","html-keyboard-response","364","f","tambok","false","","4"
"2112.60000000149","","","","","3","html-slider-response","365","","","","2",""
"null","","","","","3","html-keyboard-response","366","","","","",""
"3909","finger","simu,sufuria,moyo,lima","moyo","j","3","html-keyboard-response","367","f","simu","false","","4"
"2928.10000000149","","","","","3","html-slider-response","368","","","","3",""
"null","","","","","3","html-keyboard-response","369","","","","",""
"2692","boat","hamsi,pombe,agalon,kitanda","agalon","j","3","html-keyboard-response","370","v","pombe","false","","4"
"2086.699999999255","","","","","3","html-slider-response","371","","","","1",""
"null","","","","","3","html-keyboard-response","372","","","","",""
"2771","hill","matumbo,kushoto,kukimba,sweta","matumbo","f","3","html-keyboard-response","373","n","sweta","false","","4"
"1808.3999999985099","","","","","3","html-slider-response","374","","","","2",""
"null","","","","","3","html-keyboard-response","375","","","","",""
"3937","train","itik,dakika,sayari,mungu","sayari","j","3","html-keyboard-response","376","j","sayari","true","","4"
"2124.300000000745","","","","","3","html-slider-response","377","","","","4",""
"null","","","","","3","html-keyboard-response","378","","","","",""
"3097","wolf","kaburi,ndizi,mchuzi,lugha","lugha","n","3","html-keyboard-response","379","n","lugha","true","","4"
"2090.099999997765","","","","","3","html-slider-response","380","","","","2",""
"null","","","","","3","html-keyboard-response","381","","","","",""
"3403","snake","jansa,karon,mvringo,pagtukod","pagtukod","n","3","html-keyboard-response","382","f","jansa","false","","4"
"2050","","","","","3","html-slider-response","383","","","","1",""
"null","","","","","3","html-keyboard-response","384","","","","",""
"3304","tooth","kijiko,uadui,pahiyum,kabalaka","kabalaka","n","3","html-keyboard-response","385","f","kijiko","false","","4"
"2121.699999999255","","","","","3","html-slider-response","386","","","","1",""
"null","","","","","3","html-keyboard-response","387","","","","",""
"2062","notebook","msitu,kemia,kila,mdudu","kemia","v","3","html-keyboard-response","388","j","kila","false","","4"
"1996.0999999977648","","","","","3","html-slider-response","389","","","","2",""
"null","","","","","3","html-keyboard-response","390","","","","",""
"2752","flag","ndege,mkate,trekta,kawa","trekta","j","3","html-keyboard-response","391","j","trekta","true","","4"
"1512.800000000745","","","","","3","html-slider-response","392","","","","2",""
"null","","","","","3","html-keyboard-response","393","","","","",""
"3181","squirrel","mahugaw,hofu,ukweli,kichwa","hofu","v","3","html-keyboard-response","394","n","kichwa","false","","4"
"2382.599999997765","","","","","3","html-slider-response","395","","","","2",""
"null","","","","","3","html-keyboard-response","396","","","","",""
"2637","door","surali,tena,soko,nyota","surali","f","3","html-keyboard-response","397","j","soko","false","","4"
"1512.2999999970198","","","","","3","html-slider-response","398","","","","2",""
"null","","","","","3","html-keyboard-response","399","","","","",""
"2809","salmon","mzungu,sensilyo,seri,baharia","sensilyo","v","3","html-keyboard-response","400","v","sensilyo","true","","4"
"1960.699999999255","","","","","3","html-slider-response","401","","","","5",""
"null","","","","","3","html-keyboard-response","402","","","","",""
"3561","shoulder","kelele,ndaniya,mkuu,guruwe","mkuu","j","3","html-keyboard-response","403","f","kelele","false","","4"
"1613.1000000014901","","","","","3","html-slider-response","404","","","","2",""
"null","","","","","3","html-keyboard-response","405","","","","",""
"3313","lamp","daub,bilaska,mbolea,afya","afya","n","3","html-keyboard-response","406","v","bilaska","false","","4"
"1697.199999999255","","","","","3","html-slider-response","407","","","","4",""
"null","","","","","3","html-keyboard-response","408","","","","",""
"2010","shelf","pamahaw,bungtod,kadaot,awit","pamahaw","f","3","html-keyboard-response","409","f","pamahaw","true","","1"
"2218.199999999255","","","","","3","html-slider-response","410","","","","5",""
"null","","","","","3","html-keyboard-response","411","","","","",""
"1854","human","tinapay,bado,kikapu,punguza","tinapay","f","3","html-keyboard-response","412","f","tinapay","true","","4"
"1996.9000000022352","","","","","3","html-slider-response","413","","","","5",""
"null","","","","","3","html-keyboard-response","414","","","","",""
"3622","towel","tembo,pagpalit,funzi,pito","pagpalit","v","3","html-keyboard-response","415","v","pagpalit","true","","4"
"2141.2999999970198","","","","","3","html-slider-response","416","","","","2",""
"null","","","","","3","html-keyboard-response","417","","","","",""
"3601","cat","neyemba,baki,akili,paghukom","paghukom","n","3","html-keyboard-response","418","n","paghukom","true","","4"
"1733.300000000745","","","","","3","html-slider-response","419","","","","2",""
"null","","","","","3","html-keyboard-response","420","","","","",""
"3910","spider","kamwe,bunyag,mkboa,atop","kamwe","f","3","html-keyboard-response","421","f","kamwe","true","","4"
"1635.0999999977648","","","","","3","html-slider-response","422","","","","2",""
"null","","","","","3","html-keyboard-response","423","","","","",""
"3598","window","nanga,kujenga,kweli,umaga","kweli","j","3","html-keyboard-response","424","j","kweli","true","","4"
"1578.199999999255","","","","","3","html-slider-response","425","","","","2",""
"null","","","","","3","html-keyboard-response","426","","","","",""
"2240","woman","bandari,pagtabon,bituin,kovuli","pagtabon","v","3","html-keyboard-response","427","v","pagtabon","true","","1"
"2170.900000002235","","","","","3","html-slider-response","428","","","","5",""
"null","","","","","3","html-keyboard-response","429","","","","",""
"3117","giraffe","mahitabo,daraja,jumatu,hangyo","mahitabo","f","3","html-keyboard-response","430","n","hangyo","false","","4"
"5010.39999999851","","","","","3","html-slider-response","431","","","","3",""
"null","","","","","3","html-keyboard-response","432","","","","",""
"1805","elephant","petye,kito,pagduol,suka","kito","v","3","html-keyboard-response","433","v","kito","true","","4"
"2989.400000002235","","","","","3","html-slider-response","434","","","","5",""
"null","","","","","3","html-keyboard-response","435","","","","",""
"2416","cave","ganti,maisha,kesho,nyundo","kesho","j","3","html-keyboard-response","436","j","kesho","true","","4"
"2118.10000000149","","","","","3","html-slider-response","437","","","","4",""
"null","","","","","3","html-keyboard-response","438","","","","",""
"2035","bread","kaili,dizeli,dari,bugas","dari","j","3","html-keyboard-response","439","j","dari","true","","4"
"1843.800000000745","","","","","3","html-slider-response","440","","","","5",""
"null","","","","","3","html-keyboard-response","441","","","","",""
"3536","stone","ulimwengu,mkasi,wingi,asili","wingi","j","3","html-keyboard-response","442","v","mkasi","false","","4"
"2809.7000000029802","","","","","3","html-slider-response","443","","","","2",""
"null","","","","","3","html-keyboard-response","444","","","","",""
"1903","donkey","bloke,lalake,rombus,elfu","elfu","n","3","html-keyboard-response","445","n","elfu","true","","4"
"2186.300000000745","","","","","3","html-slider-response","446","","","","5",""
"null","","","","","3","html-keyboard-response","447","","","","",""
"2716","bridge","daima,ngono,panya,sahani","sahani","n","3","html-keyboard-response","448","n","sahani","true","","4"
"1881.9000000022352","","","","","3","html-slider-response","449","","","","2",""
"null","","","","","3","html-keyboard-response","450","","","","",""
"1674","bonfire","goti,mwezi,mfuko,kusanya","goti","f","3","html-keyboard-response","451","f","goti","true","","4"
"2445.099999997765","","","","","3","html-slider-response","452","","","","5",""
"null","","","","","3","html-keyboard-response","453","","","","",""
"2455","book","mali,kuhesa,picha,mara","mali","f","3","html-keyboard-response","454","n","mara","false","","4"
"2366.60000000149","","","","","3","html-slider-response","455","","","","3",""
"null","","","","","3","html-keyboard-response","456","","","","",""
"3463","fish","bala,baho,buli,imani","buli","j","3","html-keyboard-response","457","v","baho","false","","4"
"3719.800000000745","","","","","3","html-slider-response","458","","","","1",""
"null","","","","","3","html-keyboard-response","459","","","","",""
"2995","spoon","betri,pagsulod,nzuri,ngazi","pagsulod","v","3","html-keyboard-response","460","n","ngazi","false","","4"
"2875.39999999851","","","","","3","html-slider-response","461","","","","1",""
"null","","","","","3","html-keyboard-response","462","","","","",""
"3074","scissors","duga,mtawa,suga,tanuri","tanuri","n","3","html-keyboard-response","463","v","mtawa","false","","4"
"2639.39999999851","","","","","3","html-slider-response","464","","","","2",""
"null","","","","","3","html-keyboard-response","465","","","","",""
"3440","page","wakala,ishiri,skina,wimbo","wimbo","n","3","html-keyboard-response","466","n","wimbo","true","","4"
"3148","","","","","3","html-slider-response","467","","","","1",""
"null","","","","","3","html-keyboard-response","468","","","","",""
"1829","nose","gubat,sehemu,kopa,kidole","sehemu","v","3","html-keyboard-response","469","v","sehemu","true","","1"
"1919.5999999977648","","","","","3","html-slider-response","470","","","","5",""
"null","","","","","3","html-keyboard-response","471","","","","",""
"3110","ceiling","kugita,kawaida,rayna,maua","maua","n","3","html-keyboard-response","472","v","kawaida","false","","4"
"1692.3999999985099","","","","","3","html-slider-response","473","","","","2",""
"null","","","","","3","html-keyboard-response","474","","","","",""
"4345","bucket","baga,ijayo,kiatu,init","kiatu","j","3","html-keyboard-response","475","v","ijayo","false","","4"
"1634.199999999255","","","","","3","html-slider-response","476","","","","2",""
"null","","","","","3","html-keyboard-response","477","","","","",""
"1687","berry","abogado,nogozi,kinywa,kofia","kofia","n","3","html-keyboard-response","478","n","kofia","true","","1"
"2585.599999997765","","","","","3","html-slider-response","479","","","","5",""
"null","","","","","3","html-keyboard-response","480","","","","",""
"1875","mother","babaye,kahawa,mbuzi,jokofu","babaye","f","3","html-keyboard-response","481","f","babaye","true","","1"
"1957.5","","","","","3","html-slider-response","482","","","","5",""
"null","","","","","3","html-keyboard-response","483","","","","",""
"1973","mosquito","martilyo,isda,taras,gutom","martilyo","f","3","html-keyboard-response","484","f","martilyo","true","","4"
"1905.6000000014901","","","","","3","html-slider-response","485","","","","5",""
"null","","","","","3","html-keyboard-response","486","","","","",""
"3180","perfume","bino,sungura,katuyoan,ndogo","katuyoan","j","3","html-keyboard-response","487","j","katuyoan","true","","4"
"1718.5","","","","","3","html-slider-response","488","","","","2",""
"null","","","","","3","html-keyboard-response","489","","","","",""
"2464","sheet","bililhon,juuya,watu,kamantis","bililhon","f","3","html-keyboard-response","490","j","watu","false","","4"
"1578.300000000745","","","","","3","html-slider-response","491","","","","2",""
"null","","","","","3","html-keyboard-response","492","","","","",""
"1314","puppet","napulo,lamok,godoro,mazishi","mazishi","n","3","html-keyboard-response","493","n","mazishi","true","","1"
"2015.5","","","","","3","html-slider-response","494","","","","5",""
"null","","","","","3","html-keyboard-response","495","","","","",""
"4633","poster","nchi,fedha,kasuko,madungog","madungog","n","3","html-keyboard-response","496","v","fedha","false","","4"
"2034.699999999255","","","","","3","html-slider-response","497","","","","2",""
"null","","","","","3","html-keyboard-response","498","","","","",""
"4280","music","mraba,mageho,tumbo,baiski","baiski","n","3","html-keyboard-response","499","v","mageho","false","","4"
"1507.300000000745","","","","","3","html-slider-response","500","","","","2",""
"null","","","","","3","html-keyboard-response","501","","","","",""
"2008","key","miaka,goma,chombo,ahos","chombo","j","3","html-keyboard-response","502","f","miaka","false","","4"
"1648.5","","","","","3","html-slider-response","503","","","","2",""
"null","","","","","3","html-keyboard-response","504","","","","",""
"2476","sock","ndoora,mamba,kimysa,mtirka","mamba","v","3","html-keyboard-response","505","v","mamba","true","","4"
"2027.699999999255","","","","","3","html-slider-response","506","","","","5",""
"null","","","","","3","html-keyboard-response","507","","","","",""
"3830","marker","mapafu,maji,salita,atay","maji","v","3","html-keyboard-response","508","v","maji","true","","4"
"2070.5","","","","","3","html-slider-response","509","","","","1",""
"null","","","","","3","html-keyboard-response","510","","","","",""
"5406","office","hazini,yatima,leso,kuna","leso","j","3","html-keyboard-response","511","f","hazini","false","","4"
"2056.60000000149","","","","","3","html-slider-response","512","","","","1",""
"null","","","","","3","html-keyboard-response","513","","","","",""
"2318","shoe","nyeusi,hatua,kama,uyoga","uyoga","n","3","html-keyboard-response","514","j","kama","false","","4"
"2154.5","","","","","3","html-slider-response","515","","","","2",""
"null","","","","","3","html-keyboard-response","516","","","","",""
"3057","cop","mechezo,bustani,jikoni,bakus","mechezo","f","3","html-keyboard-response","517","v","bustani","false","","4"
"1656.3999999985099","","","","","3","html-slider-response","518","","","","2",""
"null","","","","","3","html-keyboard-response","519","","","","",""
"3511","bank","silingan,kudhibi,tualya,ofisi","silingan","f","3","html-keyboard-response","520","f","silingan","true","","4"
"3051.10000000149","","","","","3","html-slider-response","521","","","","1",""
"null","","","","","3","html-keyboard-response","522","","","","",""
"1660","letter","kifua,filimbi,chuma,uhuru","kifua","f","3","html-keyboard-response","523","f","kifua","true","","1"
"2441.10000000149","","","","","3","html-slider-response","524","","","","5",""
"null","","","","","3","html-keyboard-response","525","","","","",""
"1447","dog","lubi,bahari,washia,kalamu","bahari","v","3","html-keyboard-response","526","v","bahari","true","","1"
"2630.60000000149","","","","","3","html-slider-response","527","","","","5",""
"null","","","","","3","html-keyboard-response","528","","","","",""
"4413","shop","nopya,kerida,samaki,ndezu","samaki","j","3","html-keyboard-response","529","j","samaki","true","","4"
"1788.3999999985099","","","","","3","html-slider-response","530","","","","2",""
"null","","","","","3","html-keyboard-response","531","","","","",""
"2528","flower","tamasha,bega,lobo,usiku","bega","v","3","html-keyboard-response","532","v","bega","true","","4"
"1912.5","","","","","3","html-slider-response","533","","","","5",""
"null","","","","","3","html-keyboard-response","534","","","","",""
"1739","cigar","ndugu,kuta,mlango,adhabu","adhabu","n","3","html-keyboard-response","535","n","adhabu","true","","1"
"2006.300000000745","","","","","3","html-slider-response","536","","","","5",""
"null","","","","","3","html-keyboard-response","537","","","","",""
"3553","hammer","napakyas,mekno,kitovu,layag","napakyas","f","3","html-keyboard-response","538","v","mekno","false","","4"
"2011.7999999970198","","","","","3","html-slider-response","539","","","","2",""
"null","","","","","3","html-keyboard-response","540","","","","",""
"6219","fork","mgonjwa,baboy,paghago,gorisi","mgonjwa","f","3","html-keyboard-response","541","f","mgonjwa","true","","4"
"1848","","","","","3","html-slider-response","542","","","","4",""
"null","","","","","3","html-keyboard-response","543","","","","",""
"1532","sun","bendi,luha,basi,uongo","basi","j","3","html-keyboard-response","544","j","basi","true","","1"
"2568.10000000149","","","","","3","html-slider-response","545","","","","5",""
"null","","","","","3","html-keyboard-response","546","","","","",""
"2478","ladder","mashua,pangalan,mwanga,kamba","pangalan","v","3","html-keyboard-response","547","v","pangalan","true","","4"
"1722.5","","","","","3","html-slider-response","548","","","","2",""
"null","","","","","3","html-keyboard-response","549","","","","",""
"1453","banana","kasamok,hagdan,kazi,twai","kazi","j","3","html-keyboard-response","550","j","kazi","true","","1"
"2062.300000000745","","","","","3","html-slider-response","551","","","","5",""
"null","","","","","3","html-keyboard-response","552","","","","",""
"4443","pudding","abug,mpishi,aibu,iring","aibu","j","3","html-keyboard-response","553","j","aibu","true","","4"
"3130","","","","","3","html-slider-response","554","","","","3",""
"null","","","","","3","html-keyboard-response","555","","","","",""
"4030","body","nyundu,jibini,tindashan,kununa","tindashan","j","3","html-keyboard-response","556","j","tindashan","true","","4"
"1990.5","","","","","3","html-slider-response","557","","","","1",""
"null","","","","","3","html-keyboard-response","558","","","","",""
"5540","bed","mapintas,kalipay,haraka,starehe","mapintas","f","3","html-keyboard-response","559","f","mapintas","true","","4"
"2273.39999999851","","","","","3","html-slider-response","560","","","","1",""
"null","","","","","3","html-keyboard-response","561","","","","",""
"3518","tissue","lamigas,ugomvi,kisiwa,katika","ugomvi","v","3","html-keyboard-response","562","j","kisiwa","false","","4"
"1708.199999999255","","","","","3","html-slider-response","563","","","","2",""
"null","","","","","3","html-keyboard-response","564","","","","",""
"2781","candle","geza,gabi,farasi,kupanda","geza","f","3","html-keyboard-response","565","v","gabi","false","","4"
"2251.2000000029802","","","","","3","html-slider-response","566","","","","1",""
"null","","","","","3","html-keyboard-response","567","","","","",""
"2003","tomato","mvua,chupi,chupa,takatak","mvua","f","3","html-keyboard-response","568","f","mvua","true","","1"
"2160.5","","","","","3","html-slider-response","569","","","","5",""
"null","","","","","3","html-keyboard-response","570","","","","",""
"4966","list","alizeti,kuzama,kaso,wingu","wingu","n","3","html-keyboard-response","571","n","wingu","true","","4"
"1762.699999999255","","","","","3","html-slider-response","572","","","","2",""
"null","","","","","3","html-keyboard-response","573","","","","",""
"2150","olive","bata,siagi,welder,jiwe","jiwe","n","3","html-keyboard-response","574","n","jiwe","true","","4"
"2265.699999999255","","","","","3","html-slider-response","575","","","","5",""
"null","","","","","3","html-keyboard-response","576","","","","",""
"2078","picture","kubwa,silya,chaki,asin","kubwa","f","3","html-keyboard-response","577","f","kubwa","true","","1"
"2230.7999999970198","","","","","3","html-slider-response","578","","","","5",""
"null","","","","","3","html-keyboard-response","579","","","","",""
