"rt","en_word","options","swa_word","correct_answer","phase","trial_type","trial_index","input_answer","input_word","accuracy","certainty","amt_choices"
"3989","bonfire","mwezi,goti,mfuko,kusanya","goti","v","2","html-keyboard-response","114","v","goti","true","",""
"12494.600000023842","","","","","2","html-slider-response","115","","","","3",""
"3741","flower","tamasha,lobo,bega,usiku","bega","j","2","html-keyboard-response","116","j","bega","true","",""
"9766.5","","","","","2","html-slider-response","117","","","","4",""
"5213","column","pundok,ufagio,dila,pala","ufagio","v","2","html-keyboard-response","118","f","pundok","false","",""
"2538.9000000059605","","","","","2","html-slider-response","119","","","","2",""
"3421","music","mraba,mageho,baiski,tumbo","baiski","j","2","html-keyboard-response","120","j","baiski","true","",""
"2505.5","","","","","2","html-slider-response","121","","","","2",""
"2958","spider","bunyag,mkboa,atop,kamwe","kamwe","n","2","html-keyboard-response","122","j","atop","false","",""
"2445.5","","","","","2","html-slider-response","123","","","","1",""
"3149","fork","baboy,paghago,mgonjwa,gorisi","mgonjwa","j","2","html-keyboard-response","124","j","mgonjwa","true","",""
"2573.5","","","","","2","html-slider-response","125","","","","4",""
"3336","mosquito","isda,taras,gutom,martilyo","martilyo","n","2","html-keyboard-response","126","f","isda","false","",""
"3499.7999999821186","","","","","2","html-slider-response","127","","","","2",""
"3294","banana","kazi,kasamok,hagdan,twai","kazi","f","2","html-keyboard-response","128","v","kasamok","false","",""
"2551","","","","","2","html-slider-response","129","","","","2",""
"3036","cup","dagat,shimoni,matumai,jeraha","matumai","j","2","html-keyboard-response","130","f","dagat","false","",""
"2358.4000000059605","","","","","2","html-slider-response","131","","","","2",""
"2091","shop","samaki,nopya,kerida,ndezu","samaki","f","2","html-keyboard-response","132","n","ndezu","false","",""
"2438","","","","","2","html-slider-response","133","","","","2",""
"2702","elephant","kito,petye,pagduol,suka","kito","f","2","html-keyboard-response","134","f","kito","true","",""
"2460.2000000178814","","","","","2","html-slider-response","135","","","","2",""
"2477","bucket","baga,ijayo,kiatu,init","kiatu","j","2","html-keyboard-response","136","j","kiatu","true","",""
"5966.0999999940395","","","","","2","html-slider-response","137","","","","2",""
"2902","book","kuhesa,picha,mara,mali","mali","n","2","html-keyboard-response","138","n","mali","true","",""
"2158.9000000059605","","","","","2","html-slider-response","139","","","","2",""
"2966","mirror","sulagma,rangi,kanding,furaha","sulagma","f","2","html-keyboard-response","140","n","furaha","false","",""
"2711.5","","","","","2","html-slider-response","141","","","","2",""
"2539","office","hazini,leso,yatima,kuna","leso","v","2","html-keyboard-response","142","v","leso","true","",""
"2989.5","","","","","2","html-slider-response","143","","","","2",""
"2888","body","nyundu,jibini,kununa,tindashan","tindashan","n","2","html-keyboard-response","144","f","nyundu","false","",""
"2409.2999999821186","","","","","2","html-slider-response","145","","","","2",""
"2988","perfume","bino,sungura,katuyoan,ndogo","katuyoan","j","2","html-keyboard-response","146","n","ndogo","false","",""
"2186.5","","","","","2","html-slider-response","147","","","","1",""
"2447","olive","bata,siagi,jiwe,welder","jiwe","j","2","html-keyboard-response","148","j","jiwe","true","",""
"2947.100000023842","","","","","2","html-slider-response","149","","","","2",""
"1970","magazine","gundi,kiti,mchawi,bahandi","kiti","v","2","html-keyboard-response","150","n","bahandi","false","",""
"2289.5999999940395","","","","","2","html-slider-response","151","","","","2",""
"3566","bread","kaili,dizeli,bugas,dari","dari","n","2","html-keyboard-response","152","v","dizeli","false","",""
"2545.5","","","","","2","html-slider-response","153","","","","2",""
"3264","cave","ganti,maisha,kesho,nyundo","kesho","j","2","html-keyboard-response","154","f","ganti","false","",""
"2397.7000000178814","","","","","2","html-slider-response","155","","","","2",""
"2551","ladder","mashua,mwanga,kamba,pangalan","pangalan","n","2","html-keyboard-response","156","j","kamba","false","",""
"3344.7000000178814","","","","","2","html-slider-response","157","","","","2",""
"4693","human","bado,kikapu,tinapay,punguza","tinapay","j","2","html-keyboard-response","158","n","punguza","false","",""
"2365.100000023842","","","","","2","html-slider-response","159","","","","2",""
"5237","clock","kartasi,abang,osha,mbwa","mbwa","n","2","html-keyboard-response","160","n","mbwa","true","",""
"3657.0999999940395","","","","","2","html-slider-response","161","","","","2",""
"2308","shelf","bungtod,kadaot,pamahaw,awit","pamahaw","j","2","html-keyboard-response","162","j","pamahaw","true","",""
"3778.0999999940395","","","","","2","html-slider-response","163","","","","2",""
"3315","salmon","mzungu,seri,sensilyo,baharia","sensilyo","j","2","html-keyboard-response","164","n","baharia","false","",""
"5087.800000011921","","","","","2","html-slider-response","165","","","","3",""
"2793","coffin","kioo,barua,tubag,hulma","kioo","f","2","html-keyboard-response","166","f","kioo","true","",""
"3024.4000000059605","","","","","2","html-slider-response","167","","","","1",""
"2446","notebook","kemia,msitu,kila,mdudu","kemia","f","2","html-keyboard-response","168","n","mdudu","false","",""
"2508","","","","","2","html-slider-response","169","","","","2",""
"2240","shoulder","kelele,ndaniya,guruwe,mkuu","mkuu","n","2","html-keyboard-response","170","j","guruwe","false","",""
"2840","","","","","2","html-slider-response","171","","","","2",""
"2667","park","tambok,pwani,bunifu,ihalas","bunifu","j","2","html-keyboard-response","172","n","ihalas","false","",""
"2383.5999999940395","","","","","2","html-slider-response","173","","","","2",""
"3068","number","shule,kengele,mundamo,choori","mundamo","j","2","html-keyboard-response","174","v","kengele","false","",""
"3087.0999999940395","","","","","2","html-slider-response","175","","","","2",""
"2639","apple","ukame,kisu,estante,edad","kisu","v","2","html-keyboard-response","176","f","ukame","false","",""
"2188.0999999940395","","","","","2","html-slider-response","177","","","","2",""
"1981","letter","filimbi,kifua,chuma,uhuru","kifua","v","2","html-keyboard-response","178","n","uhuru","false","",""
"2164.800000011921","","","","","2","html-slider-response","179","","","","2",""
"1853","eel","msumari,ishara,kunywa,kabuang","msumari","f","2","html-keyboard-response","180","j","kunywa","false","",""
"4165.0999999940395","","","","","2","html-slider-response","181","","","","1",""
"1954","cop","mechezo,bustani,jikoni,bakus","mechezo","f","2","html-keyboard-response","182","n","bakus","false","",""
"2685.199999988079","","","","","2","html-slider-response","183","","","","2",""
"2358","wolf","kaburi,ndizi,lugha,mchuzi","lugha","j","2","html-keyboard-response","184","v","ndizi","false","",""
"2319.199999988079","","","","","2","html-slider-response","185","","","","2",""
"2843","squirrel","mahugaw,hofu,ukweli,kichwa","hofu","v","2","html-keyboard-response","186","n","kichwa","false","",""
"3043.7999999821186","","","","","2","html-slider-response","187","","","","1",""
"1510","nose","gubat,sehemu,kopa,kidole","sehemu","v","2","html-keyboard-response","188","v","sehemu","true","",""
"1976.4000000059605","","","","","2","html-slider-response","189","","","","2",""
"3779","sock","ndoora,kimysa,mamba,mtirka","mamba","j","2","html-keyboard-response","190","v","kimysa","false","",""
"2783.800000011921","","","","","2","html-slider-response","191","","","","2",""
"2014","bank","silingan,kudhibi,tualya,ofisi","silingan","f","2","html-keyboard-response","192","n","ofisi","false","",""
"3396.9000000059605","","","","","2","html-slider-response","193","","","","2",""
"4850","donkey","bloke,lalake,rombus,elfu","elfu","n","2","html-keyboard-response","194","v","lalake","false","",""
"2020.9000000059605","","","","","2","html-slider-response","195","","","","2",""
"1420","poster","madungog,nchi,fedha,kasuko","madungog","f","2","html-keyboard-response","196","n","kasuko","false","",""
"2547.399999976158","","","","","2","html-slider-response","197","","","","2",""
"3511","puppet","mazishi,napulo,lamok,godoro","mazishi","f","2","html-keyboard-response","198","n","godoro","false","",""
"1950.199999988079","","","","","2","html-slider-response","199","","","","2",""
"1399","hill","kushoto,matumbo,kukimba,sweta","matumbo","v","2","html-keyboard-response","200","v","matumbo","true","",""
"2736.2000000178814","","","","","2","html-slider-response","201","","","","2",""
"2141","tooth","kijiko,uadui,pahiyum,kabalaka","kabalaka","n","2","html-keyboard-response","202","j","pahiyum","false","",""
"2833.5999999940395","","","","","2","html-slider-response","203","","","","2",""
"6165","woman","pagtabon,bandari,bituin,kovuli","pagtabon","f","2","html-keyboard-response","204","f","pagtabon","true","",""
"2394.0999999940395","","","","","2","html-slider-response","205","","","","4",""
"2397","wheel","bafuni,punda,tawo,baadaye","bafuni","f","2","html-keyboard-response","206","v","punda","false","",""
"3998.399999976158","","","","","2","html-slider-response","207","","","","2",""
"2879","mother","kahawa,babaye,mbuzi,jokofu","babaye","v","2","html-keyboard-response","208","v","babaye","true","",""
"2556.0999999940395","","","","","2","html-slider-response","209","","","","2",""
"3399","bed","kalipay,haraka,mapintas,starehe","mapintas","j","2","html-keyboard-response","210","n","starehe","false","",""
"4086.7999999821186","","","","","2","html-slider-response","211","","","","2",""
"2299","key","miaka,chombo,goma,ahos","chombo","v","2","html-keyboard-response","212","v","chombo","true","",""
"4210.700000017881","","","","","2","html-slider-response","213","","","","2",""
"3229","page","wimbo,wakala,ishiri,skina","wimbo","f","2","html-keyboard-response","214","v","wakala","false","",""
"3470.199999988079","","","","","2","html-slider-response","215","","","","3",""
"2183","pants","haki,pintal,chuki,hari","haki","f","2","html-keyboard-response","216","j","chuki","false","",""
"3110.2000000178814","","","","","2","html-slider-response","217","","","","2",""
"2529","sun","basi,bendi,luha,uongo","basi","f","2","html-keyboard-response","218","j","luha","false","",""
"3155","","","","","2","html-slider-response","219","","","","2",""
"1741","finger","simu,moyo,sufuria,lima","moyo","v","2","html-keyboard-response","220","n","lima","false","",""
"3065","","","","","2","html-slider-response","221","","","","2",""
"3228","shoe","uyoga,nyeusi,hatua,kama","uyoga","f","2","html-keyboard-response","222","f","uyoga","true","",""
"2735.5","","","","","2","html-slider-response","223","","","","2",""
"3128","giraffe","daraja,jumatu,hangyo,mahitabo","mahitabo","n","2","html-keyboard-response","224","n","mahitabo","true","",""
"2556.0999999940395","","","","","2","html-slider-response","225","","","","2",""
"3313","dog","lubi,washia,bahari,kalamu","bahari","j","2","html-keyboard-response","226","n","kalamu","false","",""
"2122.600000023842","","","","","2","html-slider-response","227","","","","2",""
"1731","box","kuacha,adui,rafiki,kitande","adui","v","2","html-keyboard-response","228","v","adui","true","",""
"3905.4000000059605","","","","","2","html-slider-response","229","","","","2",""
"2340","scissors","duga,mtawa,suga,tanuri","tanuri","n","2","html-keyboard-response","230","n","tanuri","true","",""
"4222.0999999940395","","","","","2","html-slider-response","231","","","","2",""
"2088","cat","neyemba,baki,paghukom,akili","paghukom","j","2","html-keyboard-response","232","n","akili","false","",""
"3136.100000023842","","","","","2","html-slider-response","233","","","","2",""
"2450","basket","kumbuka,utepe,hasira,kumba","kumba","n","2","html-keyboard-response","234","n","kumba","true","",""
"2505","","","","","2","html-slider-response","235","","","","2",""
"1636","snake","jansa,pagtukod,karon,mvringo","pagtukod","v","2","html-keyboard-response","236","j","karon","false","",""
"3326.7000000178814","","","","","2","html-slider-response","237","","","","2",""
"3895","gift","baba,nyange,baso,pagtawag","pagtawag","n","2","html-keyboard-response","238","n","pagtawag","true","",""
"2533.5","","","","","2","html-slider-response","239","","","","2",""
"2395","train","itik,dakika,sayari,mungu","sayari","j","2","html-keyboard-response","240","v","dakika","false","",""
"3619.699999988079","","","","","2","html-slider-response","241","","","","2",""
"2093","pudding","abug,mpishi,iring,aibu","aibu","n","2","html-keyboard-response","242","f","abug","false","",""
"3946.4000000059605","","","","","2","html-slider-response","243","","","","2",""
"1947","tomato","chupi,chupa,takatak,mvua","mvua","n","2","html-keyboard-response","244","n","mvua","true","",""
"2755.699999988079","","","","","2","html-slider-response","245","","","","2",""
"1888","stone","ulimwengu,wingi,mkasi,asili","wingi","v","2","html-keyboard-response","246","v","wingi","true","",""
"2866.9000000059605","","","","","2","html-slider-response","247","","","","2",""
"1684","hammer","mekno,kitovu,layag,napakyas","napakyas","n","2","html-keyboard-response","248","j","layag","false","",""
"2051.7999999821186","","","","","2","html-slider-response","249","","","","2",""
"1754","knee","mvuke,duka,kubale,bili","duka","v","2","html-keyboard-response","250","v","duka","true","",""
"2536.7999999821186","","","","","2","html-slider-response","251","","","","2",""
"1617","ceiling","kugita,kawaida,maua,rayna","maua","j","2","html-keyboard-response","252","n","rayna","false","",""
"1844.1000000238419","","","","","2","html-slider-response","253","","","","2",""
"2181","spoon","pagsulod,betri,nzuri,ngazi","pagsulod","f","2","html-keyboard-response","254","f","pagsulod","true","",""
"2395.4000000059605","","","","","2","html-slider-response","255","","","","2",""
"1930","marker","mapafu,salita,atay,maji","maji","n","2","html-keyboard-response","256","n","maji","true","",""
"2951.0999999940395","","","","","2","html-slider-response","257","","","","2",""
"3026","candle","gabi,farasi,kupanda,geza","geza","n","2","html-keyboard-response","258","n","geza","true","",""
"2517.7000000178814","","","","","2","html-slider-response","259","","","","2",""
"990","tissue","lamigas,kisiwa,katika,ugomvi","ugomvi","n","2","html-keyboard-response","260","j","katika","false","",""
"2746.800000011921","","","","","2","html-slider-response","261","","","","2",""
"1162","bridge","daima,ngono,sahani,panya","sahani","j","2","html-keyboard-response","262","v","ngono","false","",""
"3108.4000000059605","","","","","2","html-slider-response","263","","","","2",""
"2459","berry","abogado,nogozi,kofia,kinywa","kofia","j","2","html-keyboard-response","264","n","kinywa","false","",""
"2629.5","","","","","2","html-slider-response","265","","","","1",""
"2126","triangle","kihozi,bentaha,kasadpan,liog","kasadpan","j","2","html-keyboard-response","266","v","bentaha","false","",""
"2105.4000000059605","","","","","2","html-slider-response","267","","","","2",""
"2236","door","tena,soko,surali,nyota","surali","j","2","html-keyboard-response","268","j","surali","true","",""
"2622","","","","","2","html-slider-response","269","","","","2",""
"3149","fish","bala,baho,imani,buli","buli","n","2","html-keyboard-response","270","f","bala","false","",""
"2290.300000011921","","","","","2","html-slider-response","271","","","","2",""
"2126","curtain","lisud,bulwawan,mchanga,chubani","mchanga","j","2","html-keyboard-response","272","f","lisud","false","",""
"5081.4000000059605","","","","","2","html-slider-response","273","","","","2",""
"3486","flag","ndege,mkate,kawa,trekta","trekta","n","2","html-keyboard-response","274","f","ndege","false","",""
"6574.4000000059605","","","","","2","html-slider-response","275","","","","2",""
"1816","boat","hamsi,agalon,pombe,kitanda","agalon","v","2","html-keyboard-response","276","v","agalon","true","",""
"2887.2999999821186","","","","","2","html-slider-response","277","","","","2",""
"3133","rose","paghalad,singizi,mwanake,amani","paghalad","f","2","html-keyboard-response","278","f","paghalad","true","",""
"2038.199999988079","","","","","2","html-slider-response","279","","","","2",""
"1942","lamp","daub,afya,bilaska,mbolea","afya","v","2","html-keyboard-response","280","j","bilaska","false","",""
"2796.100000023842","","","","","2","html-slider-response","281","","","","2",""
"1206","cigar","ndugu,kuta,mlango,adhabu","adhabu","n","2","html-keyboard-response","282","n","adhabu","true","",""
"2679.5999999940395","","","","","2","html-slider-response","283","","","","2",""
"1354","list","alizeti,wingu,kuzama,kaso","wingu","v","2","html-keyboard-response","284","v","wingu","true","",""
"4281.299999982119","","","","","2","html-slider-response","285","","","","2",""
"1587","sheet","bililhon,juuya,watu,kamantis","bililhon","f","2","html-keyboard-response","286","n","kamantis","false","",""
"2243.800000011921","","","","","2","html-slider-response","287","","","","2",""
"6787","picture","kubwa,silya,chaki,asin","kubwa","f","2","html-keyboard-response","288","j","chaki","false","",""
"2932.5","","","","","2","html-slider-response","289","","","","2",""
"1633","towel","pagpalit,tembo,funzi,pito","pagpalit","f","2","html-keyboard-response","290","v","tembo","false","",""
"2616.2000000178814","","","","","2","html-slider-response","291","","","","2",""
"1784","window","nanga,kujenga,umaga,kweli","kweli","n","2","html-keyboard-response","292","j","umaga","false","",""
"3241.4000000059605","","","","","2","html-slider-response","293","","","","2",""
"2486","box","adui,kuacha,rafiki,kitande","adui","f","3","html-keyboard-response","310","j","rafiki","false","","4"
"2530.5","","","","","3","html-slider-response","311","","","","2",""
"null","","","","","3","html-keyboard-response","312","","","","",""
"9081","pants","haki,pintal,chuki,hari","haki","f","3","html-keyboard-response","313","n","hari","false","","4"
"2624.5","","","","","3","html-slider-response","314","","","","2",""
"null","","","","","3","html-keyboard-response","315","","","","",""
"2798","cup","matumai,dagat,shimoni,jeraha","matumai","f","3","html-keyboard-response","316","f","matumai","true","","4"
"5698.4000000059605","","","","","3","html-slider-response","317","","","","2",""
"null","","","","","3","html-keyboard-response","318","","","","",""
"2103","triangle","kihozi,bentaha,kasadpan,liog","kasadpan","j","3","html-keyboard-response","319","n","liog","false","","4"
"2720.0999999940395","","","","","3","html-slider-response","320","","","","2",""
"null","","","","","3","html-keyboard-response","321","","","","",""
"2958","curtain","lisud,bulwawan,chubani,mchanga","mchanga","n","3","html-keyboard-response","322","j","chubani","false","","4"
"4872.200000017881","","","","","3","html-slider-response","323","","","","2",""
"null","","","","","3","html-keyboard-response","324","","","","",""
"2322","clock","kartasi,abang,osha,mbwa","mbwa","n","3","html-keyboard-response","325","v","abang","false","","4"
"2937.9000000059605","","","","","3","html-slider-response","326","","","","2",""
"null","","","","","3","html-keyboard-response","327","","","","",""
"2053","mirror","rangi,kanding,sulagma,furaha","sulagma","j","3","html-keyboard-response","328","f","rangi","false","","4"
"3343.9000000059605","","","","","3","html-slider-response","329","","","","2",""
"null","","","","","3","html-keyboard-response","330","","","","",""
"2136","coffin","barua,tubag,kioo,hulma","kioo","j","3","html-keyboard-response","331","j","kioo","true","","1"
"3012.199999988079","","","","","3","html-slider-response","332","","","","5",""
"null","","","","","3","html-keyboard-response","333","","","","",""
"2423","magazine","gundi,mchawi,kiti,bahandi","kiti","j","3","html-keyboard-response","334","f","gundi","false","","4"
"2499.800000011921","","","","","3","html-slider-response","335","","","","2",""
"null","","","","","3","html-keyboard-response","336","","","","",""
"1881","column","pundok,ufagio,dila,pala","ufagio","v","3","html-keyboard-response","337","v","ufagio","true","","1"
"3808.100000023842","","","","","3","html-slider-response","338","","","","5",""
"null","","","","","3","html-keyboard-response","339","","","","",""
"2104","number","shule,mundamo,kengele,choori","mundamo","v","3","html-keyboard-response","340","n","choori","false","","4"
"2891.7000000178814","","","","","3","html-slider-response","341","","","","2",""
"null","","","","","3","html-keyboard-response","342","","","","",""
"1457","rose","singizi,paghalad,mwanake,amani","paghalad","v","3","html-keyboard-response","343","v","paghalad","true","","4"
"2738.4000000059605","","","","","3","html-slider-response","344","","","","2",""
"null","","","","","3","html-keyboard-response","345","","","","",""
"6051","eel","ishara,kunywa,kabuang,msumari","msumari","n","3","html-keyboard-response","346","f","ishara","false","","4"
"2516.0999999940395","","","","","3","html-slider-response","347","","","","2",""
"null","","","","","3","html-keyboard-response","348","","","","",""
"2869","gift","baba,nyange,baso,pagtawag","pagtawag","n","3","html-keyboard-response","349","v","nyange","false","","4"
"4592.4000000059605","","","","","3","html-slider-response","350","","","","2",""
"null","","","","","3","html-keyboard-response","351","","","","",""
"1836","apple","ukame,estante,kisu,edad","kisu","j","3","html-keyboard-response","352","j","kisu","true","","1"
"2616","","","","","3","html-slider-response","353","","","","5",""
"null","","","","","3","html-keyboard-response","354","","","","",""
"11720","wheel","punda,tawo,baadaye,bafuni","bafuni","n","3","html-keyboard-response","355","n","bafuni","true","","1"
"2512.9000000059605","","","","","3","html-slider-response","356","","","","5",""
"null","","","","","3","html-keyboard-response","357","","","","",""
"2239","knee","mvuke,kubale,duka,bili","duka","j","3","html-keyboard-response","358","v","kubale","false","","4"
"2451.9000000059605","","","","","3","html-slider-response","359","","","","2",""
"null","","","","","3","html-keyboard-response","360","","","","",""
"1657","basket","kumbuka,kumba,utepe,hasira","kumba","v","3","html-keyboard-response","361","v","kumba","true","","1"
"3738.699999988079","","","","","3","html-slider-response","362","","","","5",""
"null","","","","","3","html-keyboard-response","363","","","","",""
"2229","park","tambok,pwani,bunifu,ihalas","bunifu","j","3","html-keyboard-response","364","n","ihalas","false","","4"
"2486.0999999940395","","","","","3","html-slider-response","365","","","","2",""
"null","","","","","3","html-keyboard-response","366","","","","",""
"1716","finger","simu,sufuria,lima,moyo","moyo","n","3","html-keyboard-response","367","v","sufuria","false","","4"
"3337.7000000178814","","","","","3","html-slider-response","368","","","","2",""
"null","","","","","3","html-keyboard-response","369","","","","",""
"2373","boat","hamsi,pombe,kitanda,agalon","agalon","n","3","html-keyboard-response","370","j","kitanda","false","","4"
"4452.199999988079","","","","","3","html-slider-response","371","","","","2",""
"null","","","","","3","html-keyboard-response","372","","","","",""
"1651","hill","matumbo,kushoto,kukimba,sweta","matumbo","f","3","html-keyboard-response","373","f","matumbo","true","","4"
"4632.5999999940395","","","","","3","html-slider-response","374","","","","2",""
"null","","","","","3","html-keyboard-response","375","","","","",""
"2687","train","itik,sayari,dakika,mungu","sayari","v","3","html-keyboard-response","376","n","mungu","false","","4"
"4928.9000000059605","","","","","3","html-slider-response","377","","","","3",""
"null","","","","","3","html-keyboard-response","378","","","","",""
"2666","wolf","kaburi,ndizi,lugha,mchuzi","lugha","j","3","html-keyboard-response","379","f","kaburi","false","","4"
"4589.899999976158","","","","","3","html-slider-response","380","","","","2",""
"null","","","","","3","html-keyboard-response","381","","","","",""
"7293","snake","jansa,pagtukod,karon,mvringo","pagtukod","v","3","html-keyboard-response","382","j","karon","false","","4"
"6350.0999999940395","","","","","3","html-slider-response","383","","","","2",""
"null","","","","","3","html-keyboard-response","384","","","","",""
"4047","tooth","kijiko,uadui,kabalaka,pahiyum","kabalaka","j","3","html-keyboard-response","385","j","kabalaka","true","","4"
"2664.5","","","","","3","html-slider-response","386","","","","2",""
"null","","","","","3","html-keyboard-response","387","","","","",""
"2014","notebook","msitu,kila,kemia,mdudu","kemia","j","3","html-keyboard-response","388","f","msitu","false","","4"
"3081.5","","","","","3","html-slider-response","389","","","","2",""
"null","","","","","3","html-keyboard-response","390","","","","",""
"1303","flag","ndege,trekta,mkate,kawa","trekta","v","3","html-keyboard-response","391","n","kawa","false","","4"
"2440.199999988079","","","","","3","html-slider-response","392","","","","2",""
"null","","","","","3","html-keyboard-response","393","","","","",""
"1284","squirrel","mahugaw,ukweli,hofu,kichwa","hofu","j","3","html-keyboard-response","394","j","hofu","true","","4"
"2555.199999988079","","","","","3","html-slider-response","395","","","","2",""
"null","","","","","3","html-keyboard-response","396","","","","",""
"1625","door","tena,soko,nyota,surali","surali","n","3","html-keyboard-response","397","v","soko","false","","4"
"2616.100000023842","","","","","3","html-slider-response","398","","","","2",""
"null","","","","","3","html-keyboard-response","399","","","","",""
"1546","salmon","mzungu,seri,baharia,sensilyo","sensilyo","n","3","html-keyboard-response","400","j","baharia","false","","4"
"2556.5","","","","","3","html-slider-response","401","","","","2",""
"null","","","","","3","html-keyboard-response","402","","","","",""
"1380","shoulder","kelele,ndaniya,mkuu,guruwe","mkuu","j","3","html-keyboard-response","403","n","guruwe","false","","4"
"2568.9000000059605","","","","","3","html-slider-response","404","","","","2",""
"null","","","","","3","html-keyboard-response","405","","","","",""
"1835","lamp","afya,daub,bilaska,mbolea","afya","f","3","html-keyboard-response","406","f","afya","true","","4"
"3683.5999999940395","","","","","3","html-slider-response","407","","","","2",""
"null","","","","","3","html-keyboard-response","408","","","","",""
"7765","shelf","bungtod,pamahaw,kadaot,awit","pamahaw","v","3","html-keyboard-response","409","v","pamahaw","true","","1"
"2659","","","","","3","html-slider-response","410","","","","5",""
"null","","","","","3","html-keyboard-response","411","","","","",""
"1730","human","tinapay,bado,kikapu,punguza","tinapay","f","3","html-keyboard-response","412","v","bado","false","","4"
"2479.300000011921","","","","","3","html-slider-response","413","","","","2",""
"null","","","","","3","html-keyboard-response","414","","","","",""
"1466","towel","tembo,funzi,pito,pagpalit","pagpalit","n","3","html-keyboard-response","415","f","tembo","false","","4"
"2476.800000011921","","","","","3","html-slider-response","416","","","","2",""
"null","","","","","3","html-keyboard-response","417","","","","",""
"1296","cat","neyemba,baki,paghukom,akili","paghukom","j","3","html-keyboard-response","418","n","akili","false","","4"
"2583.7000000178814","","","","","3","html-slider-response","419","","","","2",""
"null","","","","","3","html-keyboard-response","420","","","","",""
"1886","spider","bunyag,kamwe,mkboa,atop","kamwe","v","3","html-keyboard-response","421","n","atop","false","","4"
"2460.2000000178814","","","","","3","html-slider-response","422","","","","2",""
"null","","","","","3","html-keyboard-response","423","","","","",""
"1581","window","nanga,kujenga,umaga,kweli","kweli","n","3","html-keyboard-response","424","f","nanga","false","","4"
"2402.199999988079","","","","","3","html-slider-response","425","","","","2",""
"null","","","","","3","html-keyboard-response","426","","","","",""
"1454","woman","pagtabon,bandari,bituin,kovuli","pagtabon","f","3","html-keyboard-response","427","f","pagtabon","true","","1"
"2521.4000000059605","","","","","3","html-slider-response","428","","","","5",""
"null","","","","","3","html-keyboard-response","429","","","","",""
"1805","giraffe","daraja,jumatu,mahitabo,hangyo","mahitabo","j","3","html-keyboard-response","430","f","daraja","false","","4"
"2541.5","","","","","3","html-slider-response","431","","","","2",""
"null","","","","","3","html-keyboard-response","432","","","","",""
"1640","elephant","petye,pagduol,suka,kito","kito","n","3","html-keyboard-response","433","n","kito","true","","4"
"2574.399999976158","","","","","3","html-slider-response","434","","","","2",""
"null","","","","","3","html-keyboard-response","435","","","","",""
"1396","cave","ganti,maisha,nyundo,kesho","kesho","n","3","html-keyboard-response","436","f","ganti","false","","4"
"2792.699999988079","","","","","3","html-slider-response","437","","","","2",""
"null","","","","","3","html-keyboard-response","438","","","","",""
"1239","bread","kaili,dizeli,dari,bugas","dari","j","3","html-keyboard-response","439","j","dari","true","","4"
"2219.100000023842","","","","","3","html-slider-response","440","","","","2",""
"null","","","","","3","html-keyboard-response","441","","","","",""
"1172","stone","ulimwengu,mkasi,asili,wingi","wingi","n","3","html-keyboard-response","442","v","mkasi","false","","4"
"2361.9000000059605","","","","","3","html-slider-response","443","","","","2",""
"null","","","","","3","html-keyboard-response","444","","","","",""
"1419","donkey","elfu,bloke,lalake,rombus","elfu","f","3","html-keyboard-response","445","j","lalake","false","","4"
"2206.4000000059605","","","","","3","html-slider-response","446","","","","2",""
"null","","","","","3","html-keyboard-response","447","","","","",""
"4145","bridge","daima,ngono,panya,sahani","sahani","n","3","html-keyboard-response","448","n","sahani","true","","4"
"2248.600000023842","","","","","3","html-slider-response","449","","","","2",""
"null","","","","","3","html-keyboard-response","450","","","","",""
"1287","bonfire","goti,mwezi,mfuko,kusanya","goti","f","3","html-keyboard-response","451","v","mwezi","false","","4"
"2895.0999999940395","","","","","3","html-slider-response","452","","","","2",""
"null","","","","","3","html-keyboard-response","453","","","","",""
"4346","book","mali,kuhesa,picha,mara","mali","f","3","html-keyboard-response","454","n","mara","false","","4"
"6036.300000011921","","","","","3","html-slider-response","455","","","","2",""
"null","","","","","3","html-keyboard-response","456","","","","",""
"2651","fish","bala,buli,baho,imani","buli","v","3","html-keyboard-response","457","f","bala","false","","4"
"2526.4000000059605","","","","","3","html-slider-response","458","","","","2",""
"null","","","","","3","html-keyboard-response","459","","","","",""
"6335","spoon","betri,nzuri,pagsulod,ngazi","pagsulod","j","3","html-keyboard-response","460","j","pagsulod","true","","4"
"2470.699999988079","","","","","3","html-slider-response","461","","","","2",""
"null","","","","","3","html-keyboard-response","462","","","","",""
"1768","scissors","duga,tanuri,mtawa,suga","tanuri","v","3","html-keyboard-response","463","n","suga","false","","4"
"2715","","","","","3","html-slider-response","464","","","","2",""
"null","","","","","3","html-keyboard-response","465","","","","",""
"3383","page","wakala,ishiri,wimbo,skina","wimbo","j","3","html-keyboard-response","466","j","wimbo","true","","4"
"3636.199999988079","","","","","3","html-slider-response","467","","","","2",""
"null","","","","","3","html-keyboard-response","468","","","","",""
"1690","nose","gubat,sehemu,kopa,kidole","sehemu","v","3","html-keyboard-response","469","v","sehemu","true","","1"
"2676.0999999940395","","","","","3","html-slider-response","470","","","","5",""
"null","","","","","3","html-keyboard-response","471","","","","",""
"2226","ceiling","maua,kugita,kawaida,rayna","maua","f","3","html-keyboard-response","472","n","rayna","false","","4"
"2795.5","","","","","3","html-slider-response","473","","","","2",""
"null","","","","","3","html-keyboard-response","474","","","","",""
"1445","bucket","kiatu,baga,ijayo,init","kiatu","f","3","html-keyboard-response","475","n","init","false","","4"
"2365.7000000178814","","","","","3","html-slider-response","476","","","","2",""
"null","","","","","3","html-keyboard-response","477","","","","",""
"28324","berry","abogado,nogozi,kofia,kinywa","kofia","j","3","html-keyboard-response","478","j","kofia","true","","1"
"2688.0999999940395","","","","","3","html-slider-response","479","","","","5",""
"null","","","","","3","html-keyboard-response","480","","","","",""
"1464","mother","babaye,kahawa,mbuzi,jokofu","babaye","f","3","html-keyboard-response","481","f","babaye","true","","1"
"2398.9000000059605","","","","","3","html-slider-response","482","","","","5",""
"null","","","","","3","html-keyboard-response","483","","","","",""
"1750","mosquito","isda,martilyo,taras,gutom","martilyo","v","3","html-keyboard-response","484","n","gutom","false","","4"
"2383","","","","","3","html-slider-response","485","","","","2",""
"null","","","","","3","html-keyboard-response","486","","","","",""
"2375","perfume","katuyoan,bino,sungura,ndogo","katuyoan","f","3","html-keyboard-response","487","v","bino","false","","4"
"6109","","","","","3","html-slider-response","488","","","","2",""
"null","","","","","3","html-keyboard-response","489","","","","",""
"1551","sheet","juuya,watu,kamantis,bililhon","bililhon","n","3","html-keyboard-response","490","v","watu","false","","4"
"2623","","","","","3","html-slider-response","491","","","","2",""
"null","","","","","3","html-keyboard-response","492","","","","",""
"6981","puppet","mazishi,napulo,lamok,godoro","mazishi","f","3","html-keyboard-response","493","f","mazishi","true","","1"
"3742.5999999940395","","","","","3","html-slider-response","494","","","","2",""
"null","","","","","3","html-keyboard-response","495","","","","",""
"15283","poster","nchi,fedha,madungog,kasuko","madungog","j","3","html-keyboard-response","496","j","madungog","true","","4"
"3111.5999999940395","","","","","3","html-slider-response","497","","","","2",""
"null","","","","","3","html-keyboard-response","498","","","","",""
"1437","music","mraba,baiski,mageho,tumbo","baiski","v","3","html-keyboard-response","499","n","tumbo","false","","4"
"2492","","","","","3","html-slider-response","500","","","","2",""
"null","","","","","3","html-keyboard-response","501","","","","",""
"1520","key","miaka,goma,chombo,ahos","chombo","j","3","html-keyboard-response","502","n","ahos","false","","4"
"2429.699999988079","","","","","3","html-slider-response","503","","","","2",""
"null","","","","","3","html-keyboard-response","504","","","","",""
"1394","sock","ndoora,mamba,kimysa,mtirka","mamba","v","3","html-keyboard-response","505","n","mtirka","false","","4"
"2570.5","","","","","3","html-slider-response","506","","","","2",""
"null","","","","","3","html-keyboard-response","507","","","","",""
"1353","marker","mapafu,salita,atay,maji","maji","n","3","html-keyboard-response","508","f","mapafu","false","","4"
"3224.7000000178814","","","","","3","html-slider-response","509","","","","2",""
"null","","","","","3","html-keyboard-response","510","","","","",""
"1309","office","hazini,yatima,leso,kuna","leso","j","3","html-keyboard-response","511","v","yatima","false","","4"
"2950.2000000178814","","","","","3","html-slider-response","512","","","","2",""
"null","","","","","3","html-keyboard-response","513","","","","",""
"1359","shoe","nyeusi,uyoga,hatua,kama","uyoga","v","3","html-keyboard-response","514","n","kama","false","","4"
"2365.800000011921","","","","","3","html-slider-response","515","","","","2",""
"null","","","","","3","html-keyboard-response","516","","","","",""
"1528","cop","mechezo,bustani,jikoni,bakus","mechezo","f","3","html-keyboard-response","517","f","mechezo","true","","4"
"2326.4000000059605","","","","","3","html-slider-response","518","","","","2",""
"null","","","","","3","html-keyboard-response","519","","","","",""
"3238","bank","silingan,kudhibi,tualya,ofisi","silingan","f","3","html-keyboard-response","520","n","ofisi","false","","4"
"3060.4000000059605","","","","","3","html-slider-response","521","","","","2",""
"null","","","","","3","html-keyboard-response","522","","","","",""
"1145","letter","filimbi,chuma,uhuru,kifua","kifua","n","3","html-keyboard-response","523","n","kifua","true","","1"
"2747.0999999940395","","","","","3","html-slider-response","524","","","","5",""
"null","","","","","3","html-keyboard-response","525","","","","",""
"1162","dog","lubi,bahari,washia,kalamu","bahari","v","3","html-keyboard-response","526","v","bahari","true","","1"
"3770.5","","","","","3","html-slider-response","527","","","","2",""
"null","","","","","3","html-keyboard-response","528","","","","",""
"1413","shop","nopya,kerida,samaki,ndezu","samaki","j","3","html-keyboard-response","529","v","kerida","false","","4"
"2450.600000023842","","","","","3","html-slider-response","530","","","","2",""
"null","","","","","3","html-keyboard-response","531","","","","",""
"1637","flower","bega,tamasha,lobo,usiku","bega","f","3","html-keyboard-response","532","n","usiku","false","","4"
"2791","","","","","3","html-slider-response","533","","","","2",""
"null","","","","","3","html-keyboard-response","534","","","","",""
"1322","cigar","adhabu,ndugu,kuta,mlango","adhabu","f","3","html-keyboard-response","535","f","adhabu","true","","1"
"2970","","","","","3","html-slider-response","536","","","","5",""
"null","","","","","3","html-keyboard-response","537","","","","",""
"1406","hammer","mekno,kitovu,layag,napakyas","napakyas","n","3","html-keyboard-response","538","v","kitovu","false","","4"
"2569.7000000178814","","","","","3","html-slider-response","539","","","","2",""
"null","","","","","3","html-keyboard-response","540","","","","",""
"1314","fork","baboy,mgonjwa,paghago,gorisi","mgonjwa","v","3","html-keyboard-response","541","v","mgonjwa","true","","4"
"3233.7000000178814","","","","","3","html-slider-response","542","","","","2",""
"null","","","","","3","html-keyboard-response","543","","","","",""
"1035","sun","bendi,basi,luha,uongo","basi","v","3","html-keyboard-response","544","v","basi","true","","1"
"2536.9000000059605","","","","","3","html-slider-response","545","","","","2",""
"null","","","","","3","html-keyboard-response","546","","","","",""
"1457","ladder","pangalan,mashua,mwanga,kamba","pangalan","f","3","html-keyboard-response","547","n","kamba","false","","4"
"2119.5999999940395","","","","","3","html-slider-response","548","","","","2",""
"null","","","","","3","html-keyboard-response","549","","","","",""
"1221","banana","kasamok,hagdan,twai,kazi","kazi","n","3","html-keyboard-response","550","n","kazi","true","","1"
"2460.2000000178814","","","","","3","html-slider-response","551","","","","2",""
"null","","","","","3","html-keyboard-response","552","","","","",""
"1348","pudding","abug,mpishi,iring,aibu","aibu","n","3","html-keyboard-response","553","n","aibu","true","","4"
"2640.199999988079","","","","","3","html-slider-response","554","","","","2",""
"null","","","","","3","html-keyboard-response","555","","","","",""
"1658","body","nyundu,tindashan,jibini,kununa","tindashan","v","3","html-keyboard-response","556","j","jibini","false","","4"
"2675.4000000059605","","","","","3","html-slider-response","557","","","","2",""
"null","","","","","3","html-keyboard-response","558","","","","",""
"1275","bed","kalipay,haraka,starehe,mapintas","mapintas","n","3","html-keyboard-response","559","j","starehe","false","","4"
"3155.600000023842","","","","","3","html-slider-response","560","","","","2",""
"null","","","","","3","html-keyboard-response","561","","","","",""
"1242","tissue","lamigas,ugomvi,kisiwa,katika","ugomvi","v","3","html-keyboard-response","562","n","katika","false","","4"
"2567.399999976158","","","","","3","html-slider-response","563","","","","2",""
"null","","","","","3","html-keyboard-response","564","","","","",""
"10439","candle","gabi,farasi,geza,kupanda","geza","j","3","html-keyboard-response","565","j","geza","true","","4"
"3083.5","","","","","3","html-slider-response","566","","","","2",""
"null","","","","","3","html-keyboard-response","567","","","","",""
"1138","tomato","chupi,mvua,chupa,takatak","mvua","v","3","html-keyboard-response","568","v","mvua","true","","1"
"2557.5","","","","","3","html-slider-response","569","","","","5",""
"null","","","","","3","html-keyboard-response","570","","","","",""
"1416","list","alizeti,kuzama,kaso,wingu","wingu","n","3","html-keyboard-response","571","f","alizeti","false","","4"
"2357.800000011921","","","","","3","html-slider-response","572","","","","2",""
"null","","","","","3","html-keyboard-response","573","","","","",""
"1467","olive","jiwe,bata,siagi,welder","jiwe","f","3","html-keyboard-response","574","n","welder","false","","4"
"3266.4000000059605","","","","","3","html-slider-response","575","","","","2",""
"null","","","","","3","html-keyboard-response","576","","","","",""
"2370","picture","silya,chaki,asin,kubwa","kubwa","n","3","html-keyboard-response","577","n","kubwa","true","","1"
"2881.699999988079","","","","","3","html-slider-response","578","","","","5",""
"null","","","","","3","html-keyboard-response","579","","","","",""
