"rt","en_word","options","swa_word","correct_answer","phase","trial_type","trial_index","input_answer","input_word","accuracy","certainty","amt_choices"
"11434","bonfire","mwezi,mfuko,kusanya,goti","goti","n","2","html-keyboard-response","109","f","mwezi","false","",""
"3413","","","","","2","html-slider-response","110","","","","1",""
"3948","flower","tamasha,lobo,bega,usiku","bega","j","2","html-keyboard-response","111","j","bega","true","",""
"3027","","","","","2","html-slider-response","112","","","","1",""
"7163","column","pundok,dila,ufagio,pala","ufagio","j","2","html-keyboard-response","113","n","pala","false","",""
"2569","","","","","2","html-slider-response","114","","","","1",""
"4630","music","mraba,mageho,tumbo,baiski","baiski","n","2","html-keyboard-response","115","n","baiski","true","",""
"7350","","","","","2","html-slider-response","116","","","","3",""
"5828","spider","bunyag,kamwe,mkboa,atop","kamwe","v","2","html-keyboard-response","117","v","kamwe","true","",""
"3770","","","","","2","html-slider-response","118","","","","4",""
"5025","fork","baboy,paghago,mgonjwa,gorisi","mgonjwa","j","2","html-keyboard-response","119","v","paghago","false","",""
"3169","","","","","2","html-slider-response","120","","","","2",""
"5484","mosquito","martilyo,isda,taras,gutom","martilyo","f","2","html-keyboard-response","121","f","martilyo","true","",""
"3068","","","","","2","html-slider-response","122","","","","5",""
"6992","banana","kasamok,hagdan,twai,kazi","kazi","n","2","html-keyboard-response","123","n","kazi","true","",""
"2402","","","","","2","html-slider-response","124","","","","4",""
"6043","cup","dagat,matumai,shimoni,jeraha","matumai","v","2","html-keyboard-response","125","v","matumai","true","",""
"2378","","","","","2","html-slider-response","126","","","","4",""
"5713","shop","nopya,samaki,kerida,ndezu","samaki","v","2","html-keyboard-response","127","n","ndezu","false","",""
"3455","","","","","2","html-slider-response","128","","","","1",""
"3712","elephant","petye,pagduol,kito,suka","kito","j","2","html-keyboard-response","129","v","pagduol","false","",""
"2567","","","","","2","html-slider-response","130","","","","2",""
"5832","bucket","baga,kiatu,ijayo,init","kiatu","v","2","html-keyboard-response","131","v","kiatu","true","",""
"2338","","","","","2","html-slider-response","132","","","","4",""
"3868","book","kuhesa,picha,mali,mara","mali","j","2","html-keyboard-response","133","j","mali","true","",""
"2819","","","","","2","html-slider-response","134","","","","5",""
"7786","mirror","sulagma,rangi,kanding,furaha","sulagma","f","2","html-keyboard-response","135","f","sulagma","true","",""
"64493","","","","","2","html-slider-response","136","","","","1",""
"11613","office","leso,hazini,yatima,kuna","leso","f","2","html-keyboard-response","137","f","leso","true","",""
"3161","","","","","2","html-slider-response","138","","","","4",""
"3088","body","nyundu,jibini,tindashan,kununa","tindashan","j","2","html-keyboard-response","139","n","kununa","false","",""
"3694","","","","","2","html-slider-response","140","","","","1",""
"3495","perfume","bino,sungura,katuyoan,ndogo","katuyoan","j","2","html-keyboard-response","141","j","katuyoan","true","",""
"5533","","","","","2","html-slider-response","142","","","","5",""
"5346","olive","jiwe,bata,siagi,welder","jiwe","f","2","html-keyboard-response","143","f","jiwe","true","",""
"3523","","","","","2","html-slider-response","144","","","","4",""
"6484","magazine","gundi,kiti,mchawi,bahandi","kiti","v","2","html-keyboard-response","145","v","kiti","true","",""
"4301","","","","","2","html-slider-response","146","","","","4",""
"3723","bread","kaili,dari,dizeli,bugas","dari","v","2","html-keyboard-response","147","j","dizeli","false","",""
"3780","","","","","2","html-slider-response","148","","","","1",""
"4718","cave","ganti,maisha,nyundo,kesho","kesho","n","2","html-keyboard-response","149","v","maisha","false","",""
"3027","","","","","2","html-slider-response","150","","","","1",""
"7903","ladder","mashua,mwanga,pangalan,kamba","pangalan","j","2","html-keyboard-response","151","j","pangalan","true","",""
"3311","","","","","2","html-slider-response","152","","","","4",""
"44055","human","bado,kikapu,punguza,tinapay","tinapay","n","2","html-keyboard-response","153","n","tinapay","true","",""
"3703","","","","","2","html-slider-response","154","","","","4",""
"6712","clock","kartasi,abang,osha,mbwa","mbwa","n","2","html-keyboard-response","155","v","abang","false","",""
"3200","","","","","2","html-slider-response","156","","","","1",""
"4187","shelf","bungtod,pamahaw,kadaot,awit","pamahaw","v","2","html-keyboard-response","157","v","pamahaw","true","",""
"2640","","","","","2","html-slider-response","158","","","","4",""
"7180","salmon","mzungu,seri,baharia,sensilyo","sensilyo","n","2","html-keyboard-response","159","f","mzungu","false","",""
"3742","","","","","2","html-slider-response","160","","","","2",""
"9706","coffin","barua,tubag,kioo,hulma","kioo","j","2","html-keyboard-response","161","j","kioo","true","",""
"2973","","","","","2","html-slider-response","162","","","","4",""
"2950","notebook","msitu,kila,mdudu,kemia","kemia","n","2","html-keyboard-response","163","f","msitu","false","",""
"3567","","","","","2","html-slider-response","164","","","","1",""
"5984","shoulder","kelele,mkuu,ndaniya,guruwe","mkuu","v","2","html-keyboard-response","165","v","mkuu","true","",""
"3753","","","","","2","html-slider-response","166","","","","1",""
"2914","park","tambok,pwani,bunifu,ihalas","bunifu","j","2","html-keyboard-response","167","v","pwani","false","",""
"3353","","","","","2","html-slider-response","168","","","","1",""
"2749","number","shule,kengele,mundamo,choori","mundamo","j","2","html-keyboard-response","169","f","shule","false","",""
"3507","","","","","2","html-slider-response","170","","","","1",""
"2861","apple","kisu,ukame,estante,edad","kisu","f","2","html-keyboard-response","171","n","edad","false","",""
"3340","","","","","2","html-slider-response","172","","","","1",""
"3127","letter","filimbi,kifua,chuma,uhuru","kifua","v","2","html-keyboard-response","173","j","chuma","false","",""
"3377","","","","","2","html-slider-response","174","","","","1",""
"3754","eel","ishara,kunywa,kabuang,msumari","msumari","n","2","html-keyboard-response","175","n","msumari","true","",""
"2581","","","","","2","html-slider-response","176","","","","4",""
"4808","cop","bustani,jikoni,bakus,mechezo","mechezo","n","2","html-keyboard-response","177","n","mechezo","true","",""
"3072","","","","","2","html-slider-response","178","","","","5",""
"2647","wolf","kaburi,lugha,ndizi,mchuzi","lugha","v","2","html-keyboard-response","179","v","lugha","true","",""
"2959","","","","","2","html-slider-response","180","","","","1",""
"3168","squirrel","mahugaw,ukweli,kichwa,hofu","hofu","n","2","html-keyboard-response","181","v","ukweli","false","",""
"2414","","","","","2","html-slider-response","182","","","","1",""
"2455","nose","gubat,sehemu,kopa,kidole","sehemu","v","2","html-keyboard-response","183","j","kopa","false","",""
"3393","","","","","2","html-slider-response","184","","","","1",""
"4365","sock","mamba,ndoora,kimysa,mtirka","mamba","f","2","html-keyboard-response","185","j","kimysa","false","",""
"2909","","","","","2","html-slider-response","186","","","","1",""
"2441","bank","silingan,kudhibi,tualya,ofisi","silingan","f","2","html-keyboard-response","187","v","kudhibi","false","",""
"2823","","","","","2","html-slider-response","188","","","","1",""
"5541","donkey","elfu,bloke,lalake,rombus","elfu","f","2","html-keyboard-response","189","f","elfu","true","",""
"3577","","","","","2","html-slider-response","190","","","","5",""
"3895","poster","madungog,nchi,fedha,kasuko","madungog","f","2","html-keyboard-response","191","f","madungog","true","",""
"2743","","","","","2","html-slider-response","192","","","","4",""
"5995","puppet","napulo,lamok,mazishi,godoro","mazishi","j","2","html-keyboard-response","193","f","napulo","false","",""
"5310","","","","","2","html-slider-response","194","","","","3",""
"4784","hill","matumbo,kushoto,kukimba,sweta","matumbo","f","2","html-keyboard-response","195","v","kushoto","false","",""
"3573","","","","","2","html-slider-response","196","","","","1",""
"5550","tooth","kijiko,kabalaka,uadui,pahiyum","kabalaka","v","2","html-keyboard-response","197","j","uadui","false","",""
"3000","","","","","2","html-slider-response","198","","","","1",""
"4168","woman","bandari,bituin,kovuli,pagtabon","pagtabon","n","2","html-keyboard-response","199","j","kovuli","false","",""
"3090","","","","","2","html-slider-response","200","","","","1",""
"2546","wheel","bafuni,punda,tawo,baadaye","bafuni","f","2","html-keyboard-response","201","f","bafuni","true","",""
"3020","","","","","2","html-slider-response","202","","","","1",""
"5309","mother","kahawa,mbuzi,jokofu,babaye","babaye","n","2","html-keyboard-response","203","n","babaye","true","",""
"5091","","","","","2","html-slider-response","204","","","","5",""
"2376","bed","kalipay,mapintas,haraka,starehe","mapintas","v","2","html-keyboard-response","205","f","kalipay","false","",""
"3753","","","","","2","html-slider-response","206","","","","1",""
"2647","key","chombo,miaka,goma,ahos","chombo","f","2","html-keyboard-response","207","f","chombo","true","",""
"2958","","","","","2","html-slider-response","208","","","","1",""
"4263","page","wakala,ishiri,wimbo,skina","wimbo","j","2","html-keyboard-response","209","v","ishiri","false","",""
"3137","","","","","2","html-slider-response","210","","","","1",""
"24190","pants","haki,pintal,chuki,hari","haki","f","2","html-keyboard-response","211","n","hari","false","",""
"2419","","","","","2","html-slider-response","212","","","","1",""
"3428","sun","bendi,luha,basi,uongo","basi","j","2","html-keyboard-response","213","f","bendi","false","",""
"6852","","","","","2","html-slider-response","214","","","","3",""
"3328","finger","moyo,simu,sufuria,lima","moyo","f","2","html-keyboard-response","215","j","sufuria","false","",""
"2563","","","","","2","html-slider-response","216","","","","1",""
"2941","shoe","uyoga,nyeusi,hatua,kama","uyoga","f","2","html-keyboard-response","217","v","nyeusi","false","",""
"2886","","","","","2","html-slider-response","218","","","","1",""
"5390","giraffe","daraja,mahitabo,jumatu,hangyo","mahitabo","v","2","html-keyboard-response","219","v","mahitabo","true","",""
"3625","","","","","2","html-slider-response","220","","","","4",""
"3504","dog","bahari,lubi,washia,kalamu","bahari","f","2","html-keyboard-response","221","f","bahari","true","",""
"6472","","","","","2","html-slider-response","222","","","","4",""
"2681","box","kuacha,adui,rafiki,kitande","adui","v","2","html-keyboard-response","223","j","rafiki","false","",""
"2892","","","","","2","html-slider-response","224","","","","1",""
"2729","scissors","duga,mtawa,tanuri,suga","tanuri","j","2","html-keyboard-response","225","v","mtawa","false","",""
"3248","","","","","2","html-slider-response","226","","","","1",""
"5093","cat","paghukom,neyemba,baki,akili","paghukom","f","2","html-keyboard-response","227","v","neyemba","false","",""
"2943","","","","","2","html-slider-response","228","","","","1",""
"6352","basket","kumbuka,utepe,kumba,hasira","kumba","j","2","html-keyboard-response","229","f","kumbuka","false","",""
"2723","","","","","2","html-slider-response","230","","","","1",""
"4002","snake","jansa,karon,pagtukod,mvringo","pagtukod","j","2","html-keyboard-response","231","j","pagtukod","true","",""
"3380","","","","","2","html-slider-response","232","","","","1",""
"3536","gift","baba,nyange,pagtawag,baso","pagtawag","j","2","html-keyboard-response","233","n","baso","false","",""
"3762","","","","","2","html-slider-response","234","","","","1",""
"6028","train","itik,dakika,mungu,sayari","sayari","n","2","html-keyboard-response","235","f","itik","false","",""
"3472","","","","","2","html-slider-response","236","","","","1",""
"4696","pudding","abug,mpishi,aibu,iring","aibu","j","2","html-keyboard-response","237","j","aibu","true","",""
"2650","","","","","2","html-slider-response","238","","","","2",""
"3950","tomato","mvua,chupi,chupa,takatak","mvua","f","2","html-keyboard-response","239","n","takatak","false","",""
"2613","","","","","2","html-slider-response","240","","","","1",""
"2788","stone","ulimwengu,mkasi,asili,wingi","wingi","n","2","html-keyboard-response","241","v","mkasi","false","",""
"2775","","","","","2","html-slider-response","242","","","","1",""
"3592","hammer","mekno,kitovu,layag,napakyas","napakyas","n","2","html-keyboard-response","243","j","layag","false","",""
"2886","","","","","2","html-slider-response","244","","","","1",""
"2907","knee","mvuke,kubale,duka,bili","duka","j","2","html-keyboard-response","245","f","mvuke","false","",""
"2101","","","","","2","html-slider-response","246","","","","1",""
"1280","ceiling","kugita,kawaida,rayna,maua","maua","n","2","html-keyboard-response","247","f","kugita","false","",""
"2621","","","","","2","html-slider-response","248","","","","1",""
"2814","spoon","pagsulod,betri,nzuri,ngazi","pagsulod","f","2","html-keyboard-response","249","j","nzuri","false","",""
"2431","","","","","2","html-slider-response","250","","","","1",""
"2814","marker","maji,mapafu,salita,atay","maji","f","2","html-keyboard-response","251","v","mapafu","false","",""
"2062","","","","","2","html-slider-response","252","","","","1",""
"2126","candle","gabi,farasi,geza,kupanda","geza","j","2","html-keyboard-response","253","f","gabi","false","",""
"2152","","","","","2","html-slider-response","254","","","","1",""
"4248","tissue","lamigas,ugomvi,kisiwa,katika","ugomvi","v","2","html-keyboard-response","255","n","katika","false","",""
"2975","","","","","2","html-slider-response","256","","","","1",""
"1262","bridge","daima,ngono,panya,sahani","sahani","n","2","html-keyboard-response","257","n","sahani","true","",""
"2187","","","","","2","html-slider-response","258","","","","1",""
"3408","berry","abogado,kofia,nogozi,kinywa","kofia","v","2","html-keyboard-response","259","f","abogado","false","",""
"1924","","","","","2","html-slider-response","260","","","","1",""
"3323","triangle","kihozi,kasadpan,bentaha,liog","kasadpan","v","2","html-keyboard-response","261","v","kasadpan","true","",""
"2227","","","","","2","html-slider-response","262","","","","1",""
"2073","door","surali,tena,soko,nyota","surali","f","2","html-keyboard-response","263","j","soko","false","",""
"2540","","","","","2","html-slider-response","264","","","","1",""
"2615","fish","bala,buli,baho,imani","buli","v","2","html-keyboard-response","265","f","bala","false","",""
"3290","","","","","2","html-slider-response","266","","","","1",""
"2616","curtain","mchanga,lisud,bulwawan,chubani","mchanga","f","2","html-keyboard-response","267","f","mchanga","true","",""
"2312","","","","","2","html-slider-response","268","","","","1",""
"2594","flag","ndege,mkate,kawa,trekta","trekta","n","2","html-keyboard-response","269","j","kawa","false","",""
"1920","","","","","2","html-slider-response","270","","","","1",""
"3249","boat","hamsi,agalon,pombe,kitanda","agalon","v","2","html-keyboard-response","271","n","kitanda","false","",""
"2225","","","","","2","html-slider-response","272","","","","1",""
"3929","rose","paghalad,singizi,mwanake,amani","paghalad","f","2","html-keyboard-response","273","f","paghalad","true","",""
"2169","","","","","2","html-slider-response","274","","","","2",""
"2795","lamp","daub,bilaska,afya,mbolea","afya","j","2","html-keyboard-response","275","v","bilaska","false","",""
"2437","","","","","2","html-slider-response","276","","","","1",""
"2890","cigar","adhabu,ndugu,kuta,mlango","adhabu","f","2","html-keyboard-response","277","n","mlango","false","",""
"2653","","","","","2","html-slider-response","278","","","","1",""
"2190","list","alizeti,kuzama,wingu,kaso","wingu","j","2","html-keyboard-response","279","j","wingu","true","",""
"2398","","","","","2","html-slider-response","280","","","","1",""
"1239","sheet","juuya,bililhon,watu,kamantis","bililhon","v","2","html-keyboard-response","281","j","watu","false","",""
"2124","","","","","2","html-slider-response","282","","","","1",""
"1712","picture","silya,chaki,kubwa,asin","kubwa","j","2","html-keyboard-response","283","v","chaki","false","",""
"1955","","","","","2","html-slider-response","284","","","","1",""
"1246","towel","pagpalit,tembo,funzi,pito","pagpalit","f","2","html-keyboard-response","285","v","tembo","false","",""
"2423","","","","","2","html-slider-response","286","","","","1",""
"2953","window","kweli,nanga,kujenga,umaga","kweli","f","2","html-keyboard-response","287","f","kweli","true","",""
"1765","","","","","2","html-slider-response","288","","","","1",""
"3743","box","kuacha,rafiki,kitande,adui","adui","n","3","html-keyboard-response","305","v","rafiki","false","","4"
"2483","","","","","3","html-slider-response","306","","","","1",""
"null","","","","","3","html-keyboard-response","307","","","","",""
"2853","pants","pintal,chuki,hari,haki","haki","n","3","html-keyboard-response","308","f","pintal","false","","4"
"2350","","","","","3","html-slider-response","309","","","","1",""
"null","","","","","3","html-keyboard-response","310","","","","",""
"5561","cup","matumai,dagat,shimoni,jeraha","matumai","f","3","html-keyboard-response","311","f","matumai","true","","4"
"2069","","","","","3","html-slider-response","312","","","","1",""
"null","","","","","3","html-keyboard-response","313","","","","",""
"4072","triangle","kihozi,bentaha,liog,kasadpan","kasadpan","n","3","html-keyboard-response","314","v","bentaha","false","","4"
"2410","","","","","3","html-slider-response","315","","","","1",""
"null","","","","","3","html-keyboard-response","316","","","","",""
"4391","curtain","lisud,mchanga,bulwawan,chubani","mchanga","v","3","html-keyboard-response","317","n","chubani","false","","4"
"2383","","","","","3","html-slider-response","318","","","","1",""
"null","","","","","3","html-keyboard-response","319","","","","",""
"4501","clock","mbwa,kartasi,abang,osha","mbwa","f","3","html-keyboard-response","320","j","abang","false","","4"
"2815","","","","","3","html-slider-response","321","","","","1",""
"null","","","","","3","html-keyboard-response","322","","","","",""
"2258","mirror","rangi,sulagma,kanding,furaha","sulagma","v","3","html-keyboard-response","323","j","kanding","false","","4"
"2913","","","","","3","html-slider-response","324","","","","1",""
"null","","","","","3","html-keyboard-response","325","","","","",""
"3777","coffin","barua,tubag,kioo,hulma","kioo","j","3","html-keyboard-response","326","j","kioo","true","","1"
"2126","","","","","3","html-slider-response","327","","","","5",""
"null","","","","","3","html-keyboard-response","328","","","","",""
"6261","magazine","gundi,mchawi,bahandi,kiti","kiti","n","3","html-keyboard-response","329","v","mchawi","false","","4"
"2268","","","","","3","html-slider-response","330","","","","1",""
"null","","","","","3","html-keyboard-response","331","","","","",""
"7637","column","pundok,dila,ufagio,pala","ufagio","j","3","html-keyboard-response","332","j","ufagio","true","","1"
"3210","","","","","3","html-slider-response","333","","","","5",""
"null","","","","","3","html-keyboard-response","334","","","","",""
"4970","number","shule,kengele,mundamo,choori","mundamo","j","3","html-keyboard-response","335","f","shule","false","","4"
"2293","","","","","3","html-slider-response","336","","","","1",""
"null","","","","","3","html-keyboard-response","337","","","","",""
"2828","rose","paghalad,singizi,mwanake,amani","paghalad","f","3","html-keyboard-response","338","f","paghalad","true","","4"
"6052","","","","","3","html-slider-response","339","","","","3",""
"null","","","","","3","html-keyboard-response","340","","","","",""
"9322","eel","msumari,ishara,kunywa,kabuang","msumari","f","3","html-keyboard-response","341","f","msumari","true","","4"
"2190","","","","","3","html-slider-response","342","","","","1",""
"null","","","","","3","html-keyboard-response","343","","","","",""
"2988","gift","baba,pagtawag,nyange,baso","pagtawag","v","3","html-keyboard-response","344","v","pagtawag","true","","4"
"2159","","","","","3","html-slider-response","345","","","","1",""
"null","","","","","3","html-keyboard-response","346","","","","",""
"2614","apple","kisu,ukame,estante,edad","kisu","f","3","html-keyboard-response","347","f","kisu","true","","1"
"1971","","","","","3","html-slider-response","348","","","","5",""
"null","","","","","3","html-keyboard-response","349","","","","",""
"2730","wheel","punda,bafuni,tawo,baadaye","bafuni","v","3","html-keyboard-response","350","v","bafuni","true","","1"
"2303","","","","","3","html-slider-response","351","","","","5",""
"null","","","","","3","html-keyboard-response","352","","","","",""
"3941","knee","mvuke,kubale,duka,bili","duka","j","3","html-keyboard-response","353","j","duka","true","","4"
"2053","","","","","3","html-slider-response","354","","","","4",""
"null","","","","","3","html-keyboard-response","355","","","","",""
"3177","basket","kumbuka,utepe,hasira,kumba","kumba","n","3","html-keyboard-response","356","n","kumba","true","","1"
"1956","","","","","3","html-slider-response","357","","","","5",""
"null","","","","","3","html-keyboard-response","358","","","","",""
"3286","park","tambok,bunifu,pwani,ihalas","bunifu","v","3","html-keyboard-response","359","f","tambok","false","","4"
"1985","","","","","3","html-slider-response","360","","","","1",""
"null","","","","","3","html-keyboard-response","361","","","","",""
"53746","finger","moyo,simu,sufuria,lima","moyo","f","3","html-keyboard-response","362","n","lima","false","","4"
"2640","","","","","3","html-slider-response","363","","","","1",""
"null","","","","","3","html-keyboard-response","364","","","","",""
"2362","boat","hamsi,pombe,agalon,kitanda","agalon","j","3","html-keyboard-response","365","f","hamsi","false","","4"
"1896","","","","","3","html-slider-response","366","","","","1",""
"null","","","","","3","html-keyboard-response","367","","","","",""
"2363","hill","matumbo,kushoto,kukimba,sweta","matumbo","f","3","html-keyboard-response","368","f","matumbo","true","","4"
"2548","","","","","3","html-slider-response","369","","","","1",""
"null","","","","","3","html-keyboard-response","370","","","","",""
"4890","train","itik,dakika,mungu,sayari","sayari","n","3","html-keyboard-response","371","v","dakika","false","","4"
"2525","","","","","3","html-slider-response","372","","","","1",""
"null","","","","","3","html-keyboard-response","373","","","","",""
"4160","wolf","lugha,kaburi,ndizi,mchuzi","lugha","f","3","html-keyboard-response","374","f","lugha","true","","4"
"1576","","","","","3","html-slider-response","375","","","","1",""
"null","","","","","3","html-keyboard-response","376","","","","",""
"4437","snake","jansa,karon,mvringo,pagtukod","pagtukod","n","3","html-keyboard-response","377","n","pagtukod","true","","4"
"2934","","","","","3","html-slider-response","378","","","","2",""
"null","","","","","3","html-keyboard-response","379","","","","",""
"2686","tooth","kabalaka,kijiko,uadui,pahiyum","kabalaka","f","3","html-keyboard-response","380","n","pahiyum","false","","4"
"2913","","","","","3","html-slider-response","381","","","","1",""
"null","","","","","3","html-keyboard-response","382","","","","",""
"2103","notebook","kemia,msitu,kila,mdudu","kemia","f","3","html-keyboard-response","383","f","kemia","true","","4"
"2008","","","","","3","html-slider-response","384","","","","1",""
"null","","","","","3","html-keyboard-response","385","","","","",""
"3942","flag","ndege,trekta,mkate,kawa","trekta","v","3","html-keyboard-response","386","n","kawa","false","","4"
"2708","","","","","3","html-slider-response","387","","","","1",""
"null","","","","","3","html-keyboard-response","388","","","","",""
"6300","squirrel","hofu,mahugaw,ukweli,kichwa","hofu","f","3","html-keyboard-response","389","j","ukweli","false","","4"
"2783","","","","","3","html-slider-response","390","","","","1",""
"null","","","","","3","html-keyboard-response","391","","","","",""
"2384","door","tena,soko,surali,nyota","surali","j","3","html-keyboard-response","392","n","nyota","false","","4"
"3532","","","","","3","html-slider-response","393","","","","1",""
"null","","","","","3","html-keyboard-response","394","","","","",""
"4118","salmon","sensilyo,mzungu,seri,baharia","sensilyo","f","3","html-keyboard-response","395","f","sensilyo","true","","4"
"1887","","","","","3","html-slider-response","396","","","","1",""
"null","","","","","3","html-keyboard-response","397","","","","",""
"2973","shoulder","mkuu,kelele,ndaniya,guruwe","mkuu","f","3","html-keyboard-response","398","v","kelele","false","","4"
"2103","","","","","3","html-slider-response","399","","","","1",""
"null","","","","","3","html-keyboard-response","400","","","","",""
"3311","lamp","daub,afya,bilaska,mbolea","afya","v","3","html-keyboard-response","401","n","mbolea","false","","4"
"1828","","","","","3","html-slider-response","402","","","","1",""
"null","","","","","3","html-keyboard-response","403","","","","",""
"2271","shelf","pamahaw,bungtod,kadaot,awit","pamahaw","f","3","html-keyboard-response","404","f","pamahaw","true","","1"
"1866","","","","","3","html-slider-response","405","","","","5",""
"null","","","","","3","html-keyboard-response","406","","","","",""
"3878","human","tinapay,bado,kikapu,punguza","tinapay","f","3","html-keyboard-response","407","f","tinapay","true","","4"
"2111","","","","","3","html-slider-response","408","","","","2",""
"null","","","","","3","html-keyboard-response","409","","","","",""
"2951","towel","tembo,pagpalit,funzi,pito","pagpalit","v","3","html-keyboard-response","410","j","funzi","false","","4"
"1985","","","","","3","html-slider-response","411","","","","1",""
"null","","","","","3","html-keyboard-response","412","","","","",""
"5763","cat","paghukom,neyemba,baki,akili","paghukom","f","3","html-keyboard-response","413","v","neyemba","false","","4"
"2287","","","","","3","html-slider-response","414","","","","1",""
"null","","","","","3","html-keyboard-response","415","","","","",""
"4866","spider","kamwe,bunyag,mkboa,atop","kamwe","f","3","html-keyboard-response","416","f","kamwe","true","","4"
"1881","","","","","3","html-slider-response","417","","","","5",""
"null","","","","","3","html-keyboard-response","418","","","","",""
"3572","window","nanga,kujenga,umaga,kweli","kweli","n","3","html-keyboard-response","419","n","kweli","true","","4"
"2633","","","","","3","html-slider-response","420","","","","1",""
"null","","","","","3","html-keyboard-response","421","","","","",""
"3113","woman","bandari,bituin,pagtabon,kovuli","pagtabon","j","3","html-keyboard-response","422","j","pagtabon","true","","1"
"2483","","","","","3","html-slider-response","423","","","","5",""
"null","","","","","3","html-keyboard-response","424","","","","",""
"3981","giraffe","daraja,jumatu,mahitabo,hangyo","mahitabo","j","3","html-keyboard-response","425","j","mahitabo","true","","4"
"1758","","","","","3","html-slider-response","426","","","","2",""
"null","","","","","3","html-keyboard-response","427","","","","",""
"3400","elephant","kito,petye,pagduol,suka","kito","f","3","html-keyboard-response","428","j","pagduol","false","","4"
"1953","","","","","3","html-slider-response","429","","","","1",""
"null","","","","","3","html-keyboard-response","430","","","","",""
"3845","cave","ganti,maisha,nyundo,kesho","kesho","n","3","html-keyboard-response","431","n","kesho","true","","4"
"1745","","","","","3","html-slider-response","432","","","","1",""
"null","","","","","3","html-keyboard-response","433","","","","",""
"2582","bread","kaili,dari,dizeli,bugas","dari","v","3","html-keyboard-response","434","v","dari","true","","4"
"1716","","","","","3","html-slider-response","435","","","","1",""
"null","","","","","3","html-keyboard-response","436","","","","",""
"2563","stone","ulimwengu,mkasi,asili,wingi","wingi","n","3","html-keyboard-response","437","j","asili","false","","4"
"1560","","","","","3","html-slider-response","438","","","","1",""
"null","","","","","3","html-keyboard-response","439","","","","",""
"2840","donkey","bloke,lalake,rombus,elfu","elfu","n","3","html-keyboard-response","440","n","elfu","true","","4"
"2023","","","","","3","html-slider-response","441","","","","5",""
"null","","","","","3","html-keyboard-response","442","","","","",""
"2570","bridge","sahani,daima,ngono,panya","sahani","f","3","html-keyboard-response","443","v","daima","false","","4"
"1679","","","","","3","html-slider-response","444","","","","1",""
"null","","","","","3","html-keyboard-response","445","","","","",""
"3307","bonfire","goti,mwezi,mfuko,kusanya","goti","f","3","html-keyboard-response","446","n","kusanya","false","","4"
"1979","","","","","3","html-slider-response","447","","","","1",""
"null","","","","","3","html-keyboard-response","448","","","","",""
"2294","book","mali,kuhesa,picha,mara","mali","f","3","html-keyboard-response","449","f","mali","true","","4"
"2656","","","","","3","html-slider-response","450","","","","5",""
"null","","","","","3","html-keyboard-response","451","","","","",""
"2613","fish","bala,baho,buli,imani","buli","j","3","html-keyboard-response","452","n","imani","false","","4"
"3765","","","","","3","html-slider-response","453","","","","1",""
"null","","","","","3","html-keyboard-response","454","","","","",""
"3232","spoon","betri,nzuri,pagsulod,ngazi","pagsulod","j","3","html-keyboard-response","455","j","pagsulod","true","","4"
"4419","","","","","3","html-slider-response","456","","","","1",""
"null","","","","","3","html-keyboard-response","457","","","","",""
"2227","scissors","duga,tanuri,mtawa,suga","tanuri","v","3","html-keyboard-response","458","v","tanuri","true","","4"
"3392","","","","","3","html-slider-response","459","","","","1",""
"null","","","","","3","html-keyboard-response","460","","","","",""
"2556","page","wimbo,wakala,ishiri,skina","wimbo","f","3","html-keyboard-response","461","f","wimbo","true","","4"
"2415","","","","","3","html-slider-response","462","","","","1",""
"null","","","","","3","html-keyboard-response","463","","","","",""
"3508","nose","gubat,kopa,kidole,sehemu","sehemu","n","3","html-keyboard-response","464","n","sehemu","true","","1"
"2441","","","","","3","html-slider-response","465","","","","5",""
"null","","","","","3","html-keyboard-response","466","","","","",""
"4790","ceiling","kugita,kawaida,rayna,maua","maua","n","3","html-keyboard-response","467","f","kugita","false","","4"
"2731","","","","","3","html-slider-response","468","","","","1",""
"null","","","","","3","html-keyboard-response","469","","","","",""
"10110","bucket","baga,ijayo,kiatu,init","kiatu","j","3","html-keyboard-response","470","j","kiatu","true","","4"
"3113","","","","","3","html-slider-response","471","","","","4",""
"null","","","","","3","html-keyboard-response","472","","","","",""
"2584","berry","abogado,nogozi,kofia,kinywa","kofia","j","3","html-keyboard-response","473","j","kofia","true","","1"
"2822","","","","","3","html-slider-response","474","","","","5",""
"null","","","","","3","html-keyboard-response","475","","","","",""
"2615","mother","babaye,kahawa,mbuzi,jokofu","babaye","f","3","html-keyboard-response","476","f","babaye","true","","1"
"1828","","","","","3","html-slider-response","477","","","","5",""
"null","","","","","3","html-keyboard-response","478","","","","",""
"3017","mosquito","isda,martilyo,taras,gutom","martilyo","v","3","html-keyboard-response","479","v","martilyo","true","","4"
"1803","","","","","3","html-slider-response","480","","","","5",""
"null","","","","","3","html-keyboard-response","481","","","","",""
"3088","perfume","bino,katuyoan,sungura,ndogo","katuyoan","v","3","html-keyboard-response","482","v","katuyoan","true","","4"
"2031","","","","","3","html-slider-response","483","","","","5",""
"null","","","","","3","html-keyboard-response","484","","","","",""
"2406","sheet","juuya,watu,kamantis,bililhon","bililhon","n","3","html-keyboard-response","485","j","kamantis","false","","4"
"2291","","","","","3","html-slider-response","486","","","","1",""
"null","","","","","3","html-keyboard-response","487","","","","",""
"2689","puppet","napulo,lamok,mazishi,godoro","mazishi","j","3","html-keyboard-response","488","j","mazishi","true","","1"
"2684","","","","","3","html-slider-response","489","","","","5",""
"null","","","","","3","html-keyboard-response","490","","","","",""
"3565","poster","nchi,madungog,fedha,kasuko","madungog","v","3","html-keyboard-response","491","n","kasuko","false","","4"
"2690","","","","","3","html-slider-response","492","","","","1",""
"null","","","","","3","html-keyboard-response","493","","","","",""
"4595","music","baiski,mraba,mageho,tumbo","baiski","f","3","html-keyboard-response","494","n","tumbo","false","","4"
"2220","","","","","3","html-slider-response","495","","","","1",""
"null","","","","","3","html-keyboard-response","496","","","","",""
"2283","key","miaka,chombo,goma,ahos","chombo","v","3","html-keyboard-response","497","j","goma","false","","4"
"6341","","","","","3","html-slider-response","498","","","","1",""
"null","","","","","3","html-keyboard-response","499","","","","",""
"2555","sock","mamba,ndoora,kimysa,mtirka","mamba","f","3","html-keyboard-response","500","v","ndoora","false","","4"
"2322","","","","","3","html-slider-response","501","","","","1",""
"null","","","","","3","html-keyboard-response","502","","","","",""
"2672","marker","maji,mapafu,salita,atay","maji","f","3","html-keyboard-response","503","j","salita","false","","4"
"2913","","","","","3","html-slider-response","504","","","","1",""
"null","","","","","3","html-keyboard-response","505","","","","",""
"2622","office","hazini,leso,yatima,kuna","leso","v","3","html-keyboard-response","506","v","leso","true","","4"
"1874","","","","","3","html-slider-response","507","","","","5",""
"null","","","","","3","html-keyboard-response","508","","","","",""
"3040","shoe","nyeusi,uyoga,hatua,kama","uyoga","v","3","html-keyboard-response","509","f","nyeusi","false","","4"
"2286","","","","","3","html-slider-response","510","","","","1",""
"null","","","","","3","html-keyboard-response","511","","","","",""
"2342","cop","bustani,mechezo,jikoni,bakus","mechezo","v","3","html-keyboard-response","512","v","mechezo","true","","4"
"1958","","","","","3","html-slider-response","513","","","","5",""
"null","","","","","3","html-keyboard-response","514","","","","",""
"2265","bank","kudhibi,tualya,silingan,ofisi","silingan","j","3","html-keyboard-response","515","j","silingan","true","","4"
"2446","","","","","3","html-slider-response","516","","","","1",""
"null","","","","","3","html-keyboard-response","517","","","","",""
"2106","letter","filimbi,chuma,uhuru,kifua","kifua","n","3","html-keyboard-response","518","n","kifua","true","","1"
"1573","","","","","3","html-slider-response","519","","","","5",""
"null","","","","","3","html-keyboard-response","520","","","","",""
"2137","dog","lubi,washia,kalamu,bahari","bahari","n","3","html-keyboard-response","521","n","bahari","true","","1"
"2048","","","","","3","html-slider-response","522","","","","5",""
"null","","","","","3","html-keyboard-response","523","","","","",""
"2818","shop","nopya,samaki,kerida,ndezu","samaki","v","3","html-keyboard-response","524","f","nopya","false","","4"
"3953","","","","","3","html-slider-response","525","","","","1",""
"null","","","","","3","html-keyboard-response","526","","","","",""
"3501","flower","tamasha,lobo,usiku,bega","bega","n","3","html-keyboard-response","527","v","lobo","false","","4"
"2871","","","","","3","html-slider-response","528","","","","1",""
"null","","","","","3","html-keyboard-response","529","","","","",""
"2338","cigar","adhabu,ndugu,kuta,mlango","adhabu","f","3","html-keyboard-response","530","f","adhabu","true","","1"
"2569","","","","","3","html-slider-response","531","","","","5",""
"null","","","","","3","html-keyboard-response","532","","","","",""
"3997","hammer","mekno,kitovu,layag,napakyas","napakyas","n","3","html-keyboard-response","533","v","kitovu","false","","4"
"1965","","","","","3","html-slider-response","534","","","","1",""
"null","","","","","3","html-keyboard-response","535","","","","",""
"2111","fork","baboy,paghago,mgonjwa,gorisi","mgonjwa","j","3","html-keyboard-response","536","j","mgonjwa","true","","4"
"2290","","","","","3","html-slider-response","537","","","","1",""
"null","","","","","3","html-keyboard-response","538","","","","",""
"2296","sun","bendi,luha,uongo,basi","basi","n","3","html-keyboard-response","539","n","basi","true","","1"
"2439","","","","","3","html-slider-response","540","","","","5",""
"null","","","","","3","html-keyboard-response","541","","","","",""
"5159","ladder","pangalan,mashua,mwanga,kamba","pangalan","f","3","html-keyboard-response","542","f","pangalan","true","","4"
"2697","","","","","3","html-slider-response","543","","","","4",""
"null","","","","","3","html-keyboard-response","544","","","","",""
"1908","banana","kasamok,kazi,hagdan,twai","kazi","v","3","html-keyboard-response","545","v","kazi","true","","1"
"3212","","","","","3","html-slider-response","546","","","","5",""
"null","","","","","3","html-keyboard-response","547","","","","",""
"4017","pudding","abug,mpishi,aibu,iring","aibu","j","3","html-keyboard-response","548","j","aibu","true","","4"
"3230","","","","","3","html-slider-response","549","","","","2",""
"null","","","","","3","html-keyboard-response","550","","","","",""
"3048","body","nyundu,jibini,kununa,tindashan","tindashan","n","3","html-keyboard-response","551","j","kununa","false","","4"
"2638","","","","","3","html-slider-response","552","","","","1",""
"null","","","","","3","html-keyboard-response","553","","","","",""
"3716","bed","mapintas,kalipay,haraka,starehe","mapintas","f","3","html-keyboard-response","554","n","starehe","false","","4"
"2391","","","","","3","html-slider-response","555","","","","1",""
"null","","","","","3","html-keyboard-response","556","","","","",""
"2767","tissue","ugomvi,lamigas,kisiwa,katika","ugomvi","f","3","html-keyboard-response","557","v","lamigas","false","","4"
"2697","","","","","3","html-slider-response","558","","","","1",""
"null","","","","","3","html-keyboard-response","559","","","","",""
"6022","candle","gabi,geza,farasi,kupanda","geza","v","3","html-keyboard-response","560","j","farasi","false","","4"
"2441","","","","","3","html-slider-response","561","","","","1",""
"null","","","","","3","html-keyboard-response","562","","","","",""
"2068","tomato","chupi,chupa,takatak,mvua","mvua","n","3","html-keyboard-response","563","n","mvua","true","","1"
"2977","","","","","3","html-slider-response","564","","","","5",""
"null","","","","","3","html-keyboard-response","565","","","","",""
"2483","list","alizeti,kuzama,kaso,wingu","wingu","n","3","html-keyboard-response","566","n","wingu","true","","4"
"2356","","","","","3","html-slider-response","567","","","","1",""
"null","","","","","3","html-keyboard-response","568","","","","",""
"4070","olive","jiwe,bata,siagi,welder","jiwe","f","3","html-keyboard-response","569","f","jiwe","true","","4"
"2788","","","","","3","html-slider-response","570","","","","5",""
"null","","","","","3","html-keyboard-response","571","","","","",""
"2309","picture","silya,chaki,kubwa,asin","kubwa","j","3","html-keyboard-response","572","j","kubwa","true","","1"
"2343","","","","","3","html-slider-response","573","","","","5",""
"null","","","","","3","html-keyboard-response","574","","","","",""
