"rt","en_word","options","swa_word","correct_answer","phase","trial_type","trial_index","input_answer","input_word","accuracy","certainty","amt_choices"
"2178","bonfire","mwezi,mfuko,kusanya,goti","goti","n","2","html-keyboard-response","114","n","goti","true","",""
"1994.5999999046326","","","","","2","html-slider-response","115","","","","5",""
"2017","flower","bega,tamasha,lobo,usiku","bega","f","2","html-keyboard-response","116","f","bega","true","",""
"1564.2000000476837","","","","","2","html-slider-response","117","","","","5",""
"2309","column","pundok,dila,pala,ufagio","ufagio","n","2","html-keyboard-response","118","n","ufagio","true","",""
"1408.6999998092651","","","","","2","html-slider-response","119","","","","5",""
"3321","music","mraba,baiski,mageho,tumbo","baiski","v","2","html-keyboard-response","120","v","baiski","true","",""
"1513.7000000476837","","","","","2","html-slider-response","121","","","","2",""
"2723","spider","kamwe,bunyag,mkboa,atop","kamwe","f","2","html-keyboard-response","122","f","kamwe","true","",""
"2571.199999809265","","","","","2","html-slider-response","123","","","","4",""
"2018","fork","baboy,paghago,gorisi,mgonjwa","mgonjwa","n","2","html-keyboard-response","124","j","gorisi","false","",""
"1071.3999998569489","","","","","2","html-slider-response","125","","","","1",""
"2270","mosquito","isda,taras,gutom,martilyo","martilyo","n","2","html-keyboard-response","126","n","martilyo","true","",""
"1173.8999998569489","","","","","2","html-slider-response","127","","","","5",""
"2587","banana","kasamok,hagdan,twai,kazi","kazi","n","2","html-keyboard-response","128","n","kazi","true","",""
"1553.8999998569489","","","","","2","html-slider-response","129","","","","1",""
"1777","cup","dagat,shimoni,jeraha,matumai","matumai","n","2","html-keyboard-response","130","f","dagat","false","",""
"1632.0999999046326","","","","","2","html-slider-response","131","","","","1",""
"1393","shop","nopya,samaki,kerida,ndezu","samaki","v","2","html-keyboard-response","132","f","nopya","false","",""
"1251.7000000476837","","","","","2","html-slider-response","133","","","","1",""
"1714","elephant","petye,kito,pagduol,suka","kito","v","2","html-keyboard-response","134","j","pagduol","false","",""
"986.7000000476837","","","","","2","html-slider-response","135","","","","2",""
"1762","bucket","kiatu,baga,ijayo,init","kiatu","f","2","html-keyboard-response","136","n","init","false","",""
"997.6000001430511","","","","","2","html-slider-response","137","","","","2",""
"1788","book","kuhesa,picha,mara,mali","mali","n","2","html-keyboard-response","138","n","mali","true","",""
"1027.0999999046326","","","","","2","html-slider-response","139","","","","2",""
"2355","mirror","sulagma,rangi,kanding,furaha","sulagma","f","2","html-keyboard-response","140","f","sulagma","true","",""
"986.7000000476837","","","","","2","html-slider-response","141","","","","1",""
"1946","office","leso,hazini,yatima,kuna","leso","f","2","html-keyboard-response","142","j","yatima","false","",""
"961","","","","","2","html-slider-response","143","","","","2",""
"1438","body","nyundu,tindashan,jibini,kununa","tindashan","v","2","html-keyboard-response","144","j","jibini","false","",""
"1035","","","","","2","html-slider-response","145","","","","2",""
"1563","perfume","bino,katuyoan,sungura,ndogo","katuyoan","v","2","html-keyboard-response","146","j","sungura","false","",""
"829.7999999523163","","","","","2","html-slider-response","147","","","","2",""
"1732","olive","bata,siagi,jiwe,welder","jiwe","j","2","html-keyboard-response","148","j","jiwe","true","",""
"1256.6000001430511","","","","","2","html-slider-response","149","","","","2",""
"1548","magazine","kiti,gundi,mchawi,bahandi","kiti","f","2","html-keyboard-response","150","j","mchawi","false","",""
"949.2000000476837","","","","","2","html-slider-response","151","","","","2",""
"1523","bread","kaili,dizeli,bugas,dari","dari","n","2","html-keyboard-response","152","j","bugas","false","",""
"871.1000001430511","","","","","2","html-slider-response","153","","","","1",""
"1248","cave","ganti,kesho,maisha,nyundo","kesho","v","2","html-keyboard-response","154","j","maisha","false","",""
"1068","","","","","2","html-slider-response","155","","","","2",""
"1771","ladder","mashua,pangalan,mwanga,kamba","pangalan","v","2","html-keyboard-response","156","v","pangalan","true","",""
"1157.6000001430511","","","","","2","html-slider-response","157","","","","4",""
"1432","human","bado,kikapu,punguza,tinapay","tinapay","n","2","html-keyboard-response","158","n","tinapay","true","",""
"1110.6000001430511","","","","","2","html-slider-response","159","","","","4",""
"1589","clock","mbwa,kartasi,abang,osha","mbwa","f","2","html-keyboard-response","160","v","kartasi","false","",""
"1614.9000000953674","","","","","2","html-slider-response","161","","","","4",""
"1615","shelf","pamahaw,bungtod,kadaot,awit","pamahaw","f","2","html-keyboard-response","162","f","pamahaw","true","",""
"1052.3999998569489","","","","","2","html-slider-response","163","","","","2",""
"1368","salmon","mzungu,seri,baharia,sensilyo","sensilyo","n","2","html-keyboard-response","164","f","mzungu","false","",""
"1287.5","","","","","2","html-slider-response","165","","","","2",""
"1417","coffin","kioo,barua,tubag,hulma","kioo","f","2","html-keyboard-response","166","f","kioo","true","",""
"1491.0999999046326","","","","","2","html-slider-response","167","","","","4",""
"1899","notebook","msitu,kila,kemia,mdudu","kemia","j","2","html-keyboard-response","168","j","kemia","true","",""
"1614.2000000476837","","","","","2","html-slider-response","169","","","","5",""
"1867","shoulder","kelele,mkuu,ndaniya,guruwe","mkuu","v","2","html-keyboard-response","170","f","kelele","false","",""
"856.7999999523163","","","","","2","html-slider-response","171","","","","2",""
"1294","park","tambok,pwani,ihalas,bunifu","bunifu","n","2","html-keyboard-response","172","f","tambok","false","",""
"1261.9000000953674","","","","","2","html-slider-response","173","","","","2",""
"1285","number","mundamo,shule,kengele,choori","mundamo","f","2","html-keyboard-response","174","f","mundamo","true","",""
"1347.2000000476837","","","","","2","html-slider-response","175","","","","2",""
"2217","apple","ukame,kisu,estante,edad","kisu","v","2","html-keyboard-response","176","v","kisu","true","",""
"1739","","","","","2","html-slider-response","177","","","","5",""
"1166","letter","filimbi,chuma,kifua,uhuru","kifua","j","2","html-keyboard-response","178","n","uhuru","false","",""
"1344.3999998569489","","","","","2","html-slider-response","179","","","","5",""
"1254","eel","ishara,kunywa,kabuang,msumari","msumari","n","2","html-keyboard-response","180","n","msumari","true","",""
"1357.3999998569489","","","","","2","html-slider-response","181","","","","5",""
"1302","cop","mechezo,bustani,jikoni,bakus","mechezo","f","2","html-keyboard-response","182","v","bustani","false","",""
"1513.5","","","","","2","html-slider-response","183","","","","4",""
"1952","wolf","kaburi,lugha,ndizi,mchuzi","lugha","v","2","html-keyboard-response","184","v","lugha","true","",""
"1126.9000000953674","","","","","2","html-slider-response","185","","","","4",""
"2354","squirrel","mahugaw,hofu,ukweli,kichwa","hofu","v","2","html-keyboard-response","186","v","hofu","true","",""
"1134.5","","","","","2","html-slider-response","187","","","","4",""
"1712","nose","sehemu,gubat,kopa,kidole","sehemu","f","2","html-keyboard-response","188","v","gubat","false","",""
"1493.5","","","","","2","html-slider-response","189","","","","4",""
"2117","sock","ndoora,kimysa,mtirka,mamba","mamba","n","2","html-keyboard-response","190","v","kimysa","false","",""
"1817.7999999523163","","","","","2","html-slider-response","191","","","","2",""
"1456","bank","kudhibi,tualya,ofisi,silingan","silingan","n","2","html-keyboard-response","192","v","tualya","false","",""
"961.5","","","","","2","html-slider-response","193","","","","2",""
"1079","donkey","bloke,elfu,lalake,rombus","elfu","v","2","html-keyboard-response","194","v","elfu","true","",""
"1030.7000000476837","","","","","2","html-slider-response","195","","","","2",""
"1488","poster","nchi,fedha,kasuko,madungog","madungog","n","2","html-keyboard-response","196","j","kasuko","false","",""
"859.5999999046326","","","","","2","html-slider-response","197","","","","4",""
"851","puppet","napulo,mazishi,lamok,godoro","mazishi","v","2","html-keyboard-response","198","j","lamok","false","",""
"1473.5","","","","","2","html-slider-response","199","","","","2",""
"1236","hill","kushoto,kukimba,matumbo,sweta","matumbo","j","2","html-keyboard-response","200","f","kushoto","false","",""
"1672.5","","","","","2","html-slider-response","201","","","","4",""
"896","tooth","kijiko,uadui,pahiyum,kabalaka","kabalaka","n","2","html-keyboard-response","202","j","pahiyum","false","",""
"1336.4000000953674","","","","","2","html-slider-response","203","","","","4",""
"1832","woman","bandari,bituin,kovuli,pagtabon","pagtabon","n","2","html-keyboard-response","204","f","bandari","false","",""
"1088","","","","","2","html-slider-response","205","","","","4",""
"1436","wheel","punda,bafuni,tawo,baadaye","bafuni","v","2","html-keyboard-response","206","v","bafuni","true","",""
"1572.0999999046326","","","","","2","html-slider-response","207","","","","4",""
"1634","mother","kahawa,babaye,mbuzi,jokofu","babaye","v","2","html-keyboard-response","208","f","kahawa","false","",""
"997.9000000953674","","","","","2","html-slider-response","209","","","","2",""
"1564","bed","kalipay,mapintas,haraka,starehe","mapintas","v","2","html-keyboard-response","210","j","haraka","false","",""
"2119.600000143051","","","","","2","html-slider-response","211","","","","4",""
"1322","key","miaka,chombo,goma,ahos","chombo","v","2","html-keyboard-response","212","j","goma","false","",""
"2592.0999999046326","","","","","2","html-slider-response","213","","","","4",""
"850","page","wakala,wimbo,ishiri,skina","wimbo","v","2","html-keyboard-response","214","j","ishiri","false","",""
"1336.5","","","","","2","html-slider-response","215","","","","4",""
"1076","pants","pintal,chuki,haki,hari","haki","j","2","html-keyboard-response","216","n","hari","false","",""
"1648.6999998092651","","","","","2","html-slider-response","217","","","","4",""
"1184","sun","bendi,luha,uongo,basi","basi","n","2","html-keyboard-response","218","n","basi","true","",""
"1916.2000000476837","","","","","2","html-slider-response","219","","","","4",""
"1830","finger","simu,sufuria,moyo,lima","moyo","j","2","html-keyboard-response","220","v","sufuria","false","",""
"1364.6000001430511","","","","","2","html-slider-response","221","","","","2",""
"1827","shoe","nyeusi,hatua,kama,uyoga","uyoga","n","2","html-keyboard-response","222","v","hatua","false","",""
"951.9000000953674","","","","","2","html-slider-response","223","","","","2",""
"1102","giraffe","daraja,mahitabo,jumatu,hangyo","mahitabo","v","2","html-keyboard-response","224","v","mahitabo","true","",""
"1886.2999999523163","","","","","2","html-slider-response","225","","","","2",""
"941","dog","lubi,bahari,washia,kalamu","bahari","v","2","html-keyboard-response","226","n","kalamu","false","",""
"1029.5999999046326","","","","","2","html-slider-response","227","","","","4",""
"1248","box","kuacha,adui,rafiki,kitande","adui","v","2","html-keyboard-response","228","n","kitande","false","",""
"884","","","","","2","html-slider-response","229","","","","4",""
"694","scissors","duga,mtawa,suga,tanuri","tanuri","n","2","html-keyboard-response","230","n","tanuri","true","",""
"1173.9000000953674","","","","","2","html-slider-response","231","","","","4",""
"716","cat","neyemba,baki,paghukom,akili","paghukom","j","2","html-keyboard-response","232","n","akili","false","",""
"992","","","","","2","html-slider-response","233","","","","4",""
"1337","basket","kumbuka,utepe,kumba,hasira","kumba","j","2","html-keyboard-response","234","v","utepe","false","",""
"1582.5","","","","","2","html-slider-response","235","","","","5",""
"3193","snake","jansa,karon,pagtukod,mvringo","pagtukod","j","2","html-keyboard-response","236","f","jansa","false","",""
"857.7999999523163","","","","","2","html-slider-response","237","","","","2",""
"1565","gift","baba,nyange,pagtawag,baso","pagtawag","j","2","html-keyboard-response","238","f","baba","false","",""
"3167.5","","","","","2","html-slider-response","239","","","","1",""
"1359","train","sayari,itik,dakika,mungu","sayari","f","2","html-keyboard-response","240","j","dakika","false","",""
"1093.8999998569489","","","","","2","html-slider-response","241","","","","1",""
"774","pudding","abug,mpishi,aibu,iring","aibu","j","2","html-keyboard-response","242","j","aibu","true","",""
"1140.5999999046326","","","","","2","html-slider-response","243","","","","1",""
"887","tomato","chupi,chupa,takatak,mvua","mvua","n","2","html-keyboard-response","244","j","takatak","false","",""
"1391.2999999523163","","","","","2","html-slider-response","245","","","","2",""
"1101","stone","ulimwengu,mkasi,wingi,asili","wingi","j","2","html-keyboard-response","246","n","asili","false","",""
"1120.2000000476837","","","","","2","html-slider-response","247","","","","4",""
"732","hammer","mekno,kitovu,napakyas,layag","napakyas","j","2","html-keyboard-response","248","n","layag","false","",""
"1068.9000000953674","","","","","2","html-slider-response","249","","","","4",""
"1750","knee","duka,mvuke,kubale,bili","duka","f","2","html-keyboard-response","250","v","mvuke","false","",""
"975.4000000953674","","","","","2","html-slider-response","251","","","","2",""
"1983","ceiling","kugita,kawaida,maua,rayna","maua","j","2","html-keyboard-response","252","v","kawaida","false","",""
"1095.1000001430511","","","","","2","html-slider-response","253","","","","2",""
"844","spoon","betri,pagsulod,nzuri,ngazi","pagsulod","v","2","html-keyboard-response","254","f","betri","false","",""
"1437.7000000476837","","","","","2","html-slider-response","255","","","","4",""
"1752","marker","mapafu,salita,maji,atay","maji","j","2","html-keyboard-response","256","f","mapafu","false","",""
"868.5","","","","","2","html-slider-response","257","","","","5",""
"1767","candle","gabi,farasi,kupanda,geza","geza","n","2","html-keyboard-response","258","f","gabi","false","",""
"1379.7000000476837","","","","","2","html-slider-response","259","","","","4",""
"2319","tissue","lamigas,kisiwa,ugomvi,katika","ugomvi","j","2","html-keyboard-response","260","n","katika","false","",""
"871","","","","","2","html-slider-response","261","","","","4",""
"1524","bridge","daima,sahani,ngono,panya","sahani","v","2","html-keyboard-response","262","n","panya","false","",""
"1133.6999998092651","","","","","2","html-slider-response","263","","","","4",""
"1262","berry","abogado,nogozi,kofia,kinywa","kofia","j","2","html-keyboard-response","264","j","kofia","true","",""
"1097.2000000476837","","","","","2","html-slider-response","265","","","","4",""
"1271","triangle","kasadpan,kihozi,bentaha,liog","kasadpan","f","2","html-keyboard-response","266","n","liog","false","",""
"1054.8999998569489","","","","","2","html-slider-response","267","","","","4",""
"750","door","surali,tena,soko,nyota","surali","f","2","html-keyboard-response","268","n","nyota","false","",""
"912.5999999046326","","","","","2","html-slider-response","269","","","","4",""
"1138","fish","buli,bala,baho,imani","buli","f","2","html-keyboard-response","270","j","baho","false","",""
"982.7999999523163","","","","","2","html-slider-response","271","","","","4",""
"1494","curtain","lisud,mchanga,bulwawan,chubani","mchanga","v","2","html-keyboard-response","272","f","lisud","false","",""
"978.7999999523163","","","","","2","html-slider-response","273","","","","4",""
"948","flag","ndege,mkate,kawa,trekta","trekta","n","2","html-keyboard-response","274","n","trekta","true","",""
"1504.2999999523163","","","","","2","html-slider-response","275","","","","4",""
"827","boat","hamsi,agalon,pombe,kitanda","agalon","v","2","html-keyboard-response","276","n","kitanda","false","",""
"1270.4000000953674","","","","","2","html-slider-response","277","","","","4",""
"655","rose","singizi,mwanake,amani,paghalad","paghalad","n","2","html-keyboard-response","278","n","paghalad","true","",""
"916.1000001430511","","","","","2","html-slider-response","279","","","","4",""
"1454","lamp","daub,afya,bilaska,mbolea","afya","v","2","html-keyboard-response","280","v","afya","true","",""
"929.0999999046326","","","","","2","html-slider-response","281","","","","2",""
"2583","cigar","adhabu,ndugu,kuta,mlango","adhabu","f","2","html-keyboard-response","282","f","adhabu","true","",""
"1578.5","","","","","2","html-slider-response","283","","","","2",""
"1291","list","alizeti,wingu,kuzama,kaso","wingu","v","2","html-keyboard-response","284","v","wingu","true","",""
"1138.2000000476837","","","","","2","html-slider-response","285","","","","5",""
"2341","sheet","juuya,watu,bililhon,kamantis","bililhon","j","2","html-keyboard-response","286","j","bililhon","true","",""
"1113.5","","","","","2","html-slider-response","287","","","","5",""
"2499","picture","kubwa,silya,chaki,asin","kubwa","f","2","html-keyboard-response","288","v","silya","false","",""
"1001","","","","","2","html-slider-response","289","","","","4",""
"1744","towel","pagpalit,tembo,funzi,pito","pagpalit","f","2","html-keyboard-response","290","n","pito","false","",""
"1016.0999999046326","","","","","2","html-slider-response","291","","","","4",""
"1769","window","kweli,nanga,kujenga,umaga","kweli","f","2","html-keyboard-response","292","v","nanga","false","",""
"2168.2000000476837","","","","","2","html-slider-response","293","","","","1",""
"1933","box","kuacha,rafiki,adui,kitande","adui","j","3","html-keyboard-response","310","j","adui","true","","4"
"1410.4000000953674","","","","","3","html-slider-response","311","","","","1",""
"null","","","","","3","html-keyboard-response","312","","","","",""
"2448","pants","haki,pintal,chuki,hari","haki","f","3","html-keyboard-response","313","v","pintal","false","","4"
"2242.600000143051","","","","","3","html-slider-response","314","","","","1",""
"null","","","","","3","html-keyboard-response","315","","","","",""
"1682","cup","matumai,dagat,shimoni,jeraha","matumai","f","3","html-keyboard-response","316","j","shimoni","false","","4"
"1120.3000001907349","","","","","3","html-slider-response","317","","","","4",""
"null","","","","","3","html-keyboard-response","318","","","","",""
"1627","triangle","kasadpan,kihozi,bentaha,liog","kasadpan","f","3","html-keyboard-response","319","n","liog","false","","4"
"1111","","","","","3","html-slider-response","320","","","","4",""
"null","","","","","3","html-keyboard-response","321","","","","",""
"2157","curtain","mchanga,lisud,bulwawan,chubani","mchanga","f","3","html-keyboard-response","322","n","chubani","false","","4"
"1763.5","","","","","3","html-slider-response","323","","","","4",""
"null","","","","","3","html-keyboard-response","324","","","","",""
"1564","clock","kartasi,mbwa,abang,osha","mbwa","v","3","html-keyboard-response","325","v","mbwa","true","","4"
"1464.9000000953674","","","","","3","html-slider-response","326","","","","4",""
"null","","","","","3","html-keyboard-response","327","","","","",""
"2804","mirror","rangi,kanding,furaha,sulagma","sulagma","n","3","html-keyboard-response","328","f","rangi","false","","4"
"1432.2000000476837","","","","","3","html-slider-response","329","","","","1",""
"null","","","","","3","html-keyboard-response","330","","","","",""
"1689","coffin","barua,tubag,hulma,kioo","kioo","n","3","html-keyboard-response","331","n","kioo","true","","1"
"2479.300000190735","","","","","3","html-slider-response","332","","","","5",""
"null","","","","","3","html-keyboard-response","333","","","","",""
"3139","magazine","gundi,mchawi,kiti,bahandi","kiti","j","3","html-keyboard-response","334","v","mchawi","false","","4"
"1556.2000000476837","","","","","3","html-slider-response","335","","","","5",""
"null","","","","","3","html-keyboard-response","336","","","","",""
"1658","column","ufagio,pundok,dila,pala","ufagio","f","3","html-keyboard-response","337","f","ufagio","true","","1"
"1393.8999998569489","","","","","3","html-slider-response","338","","","","5",""
"null","","","","","3","html-keyboard-response","339","","","","",""
"1789","number","shule,kengele,choori,mundamo","mundamo","n","3","html-keyboard-response","340","f","shule","false","","4"
"1297.7999999523163","","","","","3","html-slider-response","341","","","","1",""
"null","","","","","3","html-keyboard-response","342","","","","",""
"1933","rose","singizi,mwanake,amani,paghalad","paghalad","n","3","html-keyboard-response","343","j","amani","false","","4"
"1390.5","","","","","3","html-slider-response","344","","","","4",""
"null","","","","","3","html-keyboard-response","345","","","","",""
"1655","eel","msumari,ishara,kunywa,kabuang","msumari","f","3","html-keyboard-response","346","f","msumari","true","","4"
"1379.4000000953674","","","","","3","html-slider-response","347","","","","4",""
"null","","","","","3","html-keyboard-response","348","","","","",""
"2531","gift","baba,nyange,baso,pagtawag","pagtawag","n","3","html-keyboard-response","349","f","baba","false","","4"
"1441.2999999523163","","","","","3","html-slider-response","350","","","","4",""
"null","","","","","3","html-keyboard-response","351","","","","",""
"1709","apple","kisu,ukame,estante,edad","kisu","f","3","html-keyboard-response","352","f","kisu","true","","1"
"1173.5","","","","","3","html-slider-response","353","","","","4",""
"null","","","","","3","html-keyboard-response","354","","","","",""
"1182","wheel","punda,tawo,baadaye,bafuni","bafuni","n","3","html-keyboard-response","355","n","bafuni","true","","1"
"2017","","","","","3","html-slider-response","356","","","","5",""
"null","","","","","3","html-keyboard-response","357","","","","",""
"1444","knee","mvuke,kubale,duka,bili","duka","j","3","html-keyboard-response","358","f","mvuke","false","","4"
"1194.9000000953674","","","","","3","html-slider-response","359","","","","1",""
"null","","","","","3","html-keyboard-response","360","","","","",""
"1355","basket","kumbuka,utepe,hasira,kumba","kumba","n","3","html-keyboard-response","361","n","kumba","true","","1"
"1630.7999999523163","","","","","3","html-slider-response","362","","","","5",""
"null","","","","","3","html-keyboard-response","363","","","","",""
"5299","park","tambok,pwani,bunifu,ihalas","bunifu","j","3","html-keyboard-response","364","n","ihalas","false","","4"
"2262.2000000476837","","","","","3","html-slider-response","365","","","","5",""
"null","","","","","3","html-keyboard-response","366","","","","",""
"2162","finger","moyo,simu,sufuria,lima","moyo","f","3","html-keyboard-response","367","j","sufuria","false","","4"
"1446.2999999523163","","","","","3","html-slider-response","368","","","","4",""
"null","","","","","3","html-keyboard-response","369","","","","",""
"1549","boat","hamsi,pombe,kitanda,agalon","agalon","n","3","html-keyboard-response","370","f","hamsi","false","","4"
"1575","","","","","3","html-slider-response","371","","","","4",""
"null","","","","","3","html-keyboard-response","372","","","","",""
"1954","hill","kushoto,kukimba,matumbo,sweta","matumbo","j","3","html-keyboard-response","373","f","kushoto","false","","4"
"1547","","","","","3","html-slider-response","374","","","","4",""
"null","","","","","3","html-keyboard-response","375","","","","",""
"1651","train","sayari,itik,dakika,mungu","sayari","f","3","html-keyboard-response","376","f","sayari","true","","4"
"1175.7999999523163","","","","","3","html-slider-response","377","","","","4",""
"null","","","","","3","html-keyboard-response","378","","","","",""
"1752","wolf","kaburi,ndizi,mchuzi,lugha","lugha","n","3","html-keyboard-response","379","f","kaburi","false","","4"
"1140","","","","","3","html-slider-response","380","","","","4",""
"null","","","","","3","html-keyboard-response","381","","","","",""
"1454","snake","jansa,karon,mvringo,pagtukod","pagtukod","n","3","html-keyboard-response","382","f","jansa","false","","4"
"2114.7999999523163","","","","","3","html-slider-response","383","","","","4",""
"null","","","","","3","html-keyboard-response","384","","","","",""
"1689","tooth","kijiko,kabalaka,uadui,pahiyum","kabalaka","v","3","html-keyboard-response","385","j","uadui","false","","4"
"1286.2999999523163","","","","","3","html-slider-response","386","","","","4",""
"null","","","","","3","html-keyboard-response","387","","","","",""
"1347","notebook","kemia,msitu,kila,mdudu","kemia","f","3","html-keyboard-response","388","n","mdudu","false","","4"
"1679.9000000953674","","","","","3","html-slider-response","389","","","","4",""
"null","","","","","3","html-keyboard-response","390","","","","",""
"3273","flag","ndege,mkate,trekta,kawa","trekta","j","3","html-keyboard-response","391","n","kawa","false","","4"
"1397.7999999523163","","","","","3","html-slider-response","392","","","","5",""
"null","","","","","3","html-keyboard-response","393","","","","",""
"1432","squirrel","mahugaw,hofu,ukweli,kichwa","hofu","v","3","html-keyboard-response","394","f","mahugaw","false","","4"
"1049.5999999046326","","","","","3","html-slider-response","395","","","","4",""
"null","","","","","3","html-keyboard-response","396","","","","",""
"1502","door","tena,surali,soko,nyota","surali","v","3","html-keyboard-response","397","f","tena","false","","4"
"2367.7999999523163","","","","","3","html-slider-response","398","","","","4",""
"null","","","","","3","html-keyboard-response","399","","","","",""
"1358","salmon","mzungu,seri,sensilyo,baharia","sensilyo","j","3","html-keyboard-response","400","f","mzungu","false","","4"
"1275","","","","","3","html-slider-response","401","","","","4",""
"null","","","","","3","html-keyboard-response","402","","","","",""
"1620","shoulder","kelele,ndaniya,guruwe,mkuu","mkuu","n","3","html-keyboard-response","403","f","kelele","false","","4"
"2809.5","","","","","3","html-slider-response","404","","","","4",""
"null","","","","","3","html-keyboard-response","405","","","","",""
"728","lamp","daub,afya,bilaska,mbolea","afya","v","3","html-keyboard-response","406","f","daub","false","","4"
"1864.6000001430511","","","","","3","html-slider-response","407","","","","4",""
"null","","","","","3","html-keyboard-response","408","","","","",""
"1808","shelf","pamahaw,bungtod,kadaot,awit","pamahaw","f","3","html-keyboard-response","409","f","pamahaw","true","","1"
"1419.2000000476837","","","","","3","html-slider-response","410","","","","4",""
"null","","","","","3","html-keyboard-response","411","","","","",""
"2090","human","bado,kikapu,punguza,tinapay","tinapay","n","3","html-keyboard-response","412","f","bado","false","","4"
"1103.7999999523163","","","","","3","html-slider-response","413","","","","4",""
"null","","","","","3","html-keyboard-response","414","","","","",""
"1427","towel","tembo,pagpalit,funzi,pito","pagpalit","v","3","html-keyboard-response","415","f","tembo","false","","4"
"1427.5","","","","","3","html-slider-response","416","","","","5",""
"null","","","","","3","html-keyboard-response","417","","","","",""
"2015","cat","neyemba,baki,akili,paghukom","paghukom","n","3","html-keyboard-response","418","j","akili","false","","4"
"1705.1999998092651","","","","","3","html-slider-response","419","","","","4",""
"null","","","","","3","html-keyboard-response","420","","","","",""
"1694","spider","kamwe,bunyag,mkboa,atop","kamwe","f","3","html-keyboard-response","421","v","bunyag","false","","4"
"3100.5","","","","","3","html-slider-response","422","","","","4",""
"null","","","","","3","html-keyboard-response","423","","","","",""
"1193","window","nanga,kujenga,umaga,kweli","kweli","n","3","html-keyboard-response","424","f","nanga","false","","4"
"1532.2999999523163","","","","","3","html-slider-response","425","","","","4",""
"null","","","","","3","html-keyboard-response","426","","","","",""
"1619","woman","bandari,pagtabon,bituin,kovuli","pagtabon","v","3","html-keyboard-response","427","v","pagtabon","true","","1"
"2103.600000143051","","","","","3","html-slider-response","428","","","","4",""
"null","","","","","3","html-keyboard-response","429","","","","",""
"2297","giraffe","daraja,mahitabo,jumatu,hangyo","mahitabo","v","3","html-keyboard-response","430","f","daraja","false","","4"
"3082.899999856949","","","","","3","html-slider-response","431","","","","4",""
"null","","","","","3","html-keyboard-response","432","","","","",""
"2934","elephant","petye,kito,pagduol,suka","kito","v","3","html-keyboard-response","433","n","suka","false","","4"
"1277.2999999523163","","","","","3","html-slider-response","434","","","","5",""
"null","","","","","3","html-keyboard-response","435","","","","",""
"2240","cave","ganti,maisha,kesho,nyundo","kesho","j","3","html-keyboard-response","436","n","nyundo","false","","4"
"1125.5999999046326","","","","","3","html-slider-response","437","","","","4",""
"null","","","","","3","html-keyboard-response","438","","","","",""
"1461","bread","kaili,dizeli,bugas,dari","dari","n","3","html-keyboard-response","439","f","kaili","false","","4"
"1110.7999999523163","","","","","3","html-slider-response","440","","","","4",""
"null","","","","","3","html-keyboard-response","441","","","","",""
"1445","stone","ulimwengu,wingi,mkasi,asili","wingi","v","3","html-keyboard-response","442","f","ulimwengu","false","","4"
"1054.2999999523163","","","","","3","html-slider-response","443","","","","4",""
"null","","","","","3","html-keyboard-response","444","","","","",""
"1085","donkey","bloke,lalake,elfu,rombus","elfu","j","3","html-keyboard-response","445","f","bloke","false","","4"
"1098","","","","","3","html-slider-response","446","","","","4",""
"null","","","","","3","html-keyboard-response","447","","","","",""
"1473","bridge","daima,ngono,sahani,panya","sahani","j","3","html-keyboard-response","448","f","daima","false","","4"
"1333.7999999523163","","","","","3","html-slider-response","449","","","","4",""
"null","","","","","3","html-keyboard-response","450","","","","",""
"2216","bonfire","mwezi,mfuko,kusanya,goti","goti","n","3","html-keyboard-response","451","n","goti","true","","4"
"2828.5","","","","","3","html-slider-response","452","","","","5",""
"null","","","","","3","html-keyboard-response","453","","","","",""
"2295","book","kuhesa,mali,picha,mara","mali","v","3","html-keyboard-response","454","n","mara","false","","4"
"2178.4000000953674","","","","","3","html-slider-response","455","","","","4",""
"null","","","","","3","html-keyboard-response","456","","","","",""
"1627","fish","bala,buli,baho,imani","buli","v","3","html-keyboard-response","457","j","baho","false","","4"
"1440.5999999046326","","","","","3","html-slider-response","458","","","","4",""
"null","","","","","3","html-keyboard-response","459","","","","",""
"1746","spoon","betri,pagsulod,nzuri,ngazi","pagsulod","v","3","html-keyboard-response","460","f","betri","false","","4"
"1221","","","","","3","html-slider-response","461","","","","4",""
"null","","","","","3","html-keyboard-response","462","","","","",""
"2977","scissors","duga,mtawa,suga,tanuri","tanuri","n","3","html-keyboard-response","463","f","duga","false","","4"
"1446.6999998092651","","","","","3","html-slider-response","464","","","","4",""
"null","","","","","3","html-keyboard-response","465","","","","",""
"2824","page","wimbo,wakala,ishiri,skina","wimbo","f","3","html-keyboard-response","466","f","wimbo","true","","4"
"1101.8000001907349","","","","","3","html-slider-response","467","","","","4",""
"null","","","","","3","html-keyboard-response","468","","","","",""
"1243","nose","gubat,kopa,sehemu,kidole","sehemu","j","3","html-keyboard-response","469","j","sehemu","true","","1"
"1416.2999999523163","","","","","3","html-slider-response","470","","","","5",""
"null","","","","","3","html-keyboard-response","471","","","","",""
"1732","ceiling","kugita,maua,kawaida,rayna","maua","v","3","html-keyboard-response","472","f","kugita","false","","4"
"1469.1999998092651","","","","","3","html-slider-response","473","","","","2",""
"null","","","","","3","html-keyboard-response","474","","","","",""
"2611","bucket","baga,kiatu,ijayo,init","kiatu","v","3","html-keyboard-response","475","v","kiatu","true","","4"
"1246.0999999046326","","","","","3","html-slider-response","476","","","","4",""
"null","","","","","3","html-keyboard-response","477","","","","",""
"2449","berry","abogado,kofia,nogozi,kinywa","kofia","v","3","html-keyboard-response","478","v","kofia","true","","1"
"1344.7999999523163","","","","","3","html-slider-response","479","","","","5",""
"null","","","","","3","html-keyboard-response","480","","","","",""
"5075","mother","kahawa,babaye,mbuzi,jokofu","babaye","v","3","html-keyboard-response","481","v","babaye","true","","1"
"2041.5","","","","","3","html-slider-response","482","","","","5",""
"null","","","","","3","html-keyboard-response","483","","","","",""
"1763","mosquito","isda,martilyo,taras,gutom","martilyo","v","3","html-keyboard-response","484","f","isda","false","","4"
"1109.6999998092651","","","","","3","html-slider-response","485","","","","4",""
"null","","","","","3","html-keyboard-response","486","","","","",""
"2014","perfume","bino,sungura,ndogo,katuyoan","katuyoan","n","3","html-keyboard-response","487","v","sungura","false","","4"
"988.9000000953674","","","","","3","html-slider-response","488","","","","4",""
"null","","","","","3","html-keyboard-response","489","","","","",""
"1850","sheet","bililhon,juuya,watu,kamantis","bililhon","f","3","html-keyboard-response","490","f","bililhon","true","","4"
"1106.2000000476837","","","","","3","html-slider-response","491","","","","4",""
"null","","","","","3","html-keyboard-response","492","","","","",""
"1123","puppet","mazishi,napulo,lamok,godoro","mazishi","f","3","html-keyboard-response","493","f","mazishi","true","","1"
"1201.5999999046326","","","","","3","html-slider-response","494","","","","4",""
"null","","","","","3","html-keyboard-response","495","","","","",""
"3073","poster","nchi,fedha,kasuko,madungog","madungog","n","3","html-keyboard-response","496","f","nchi","false","","4"
"2084.7999999523163","","","","","3","html-slider-response","497","","","","4",""
"null","","","","","3","html-keyboard-response","498","","","","",""
"2669","music","mraba,baiski,mageho,tumbo","baiski","v","3","html-keyboard-response","499","f","mraba","false","","4"
"3588.5999999046326","","","","","3","html-slider-response","500","","","","5",""
"null","","","","","3","html-keyboard-response","501","","","","",""
"965","key","chombo,miaka,goma,ahos","chombo","f","3","html-keyboard-response","502","f","chombo","true","","4"
"1444.8999998569489","","","","","3","html-slider-response","503","","","","5",""
"null","","","","","3","html-keyboard-response","504","","","","",""
"2294","sock","mamba,ndoora,kimysa,mtirka","mamba","f","3","html-keyboard-response","505","j","kimysa","false","","4"
"1555.7000000476837","","","","","3","html-slider-response","506","","","","5",""
"null","","","","","3","html-keyboard-response","507","","","","",""
"3213","marker","mapafu,salita,maji,atay","maji","j","3","html-keyboard-response","508","f","mapafu","false","","4"
"1432.5","","","","","3","html-slider-response","509","","","","5",""
"null","","","","","3","html-keyboard-response","510","","","","",""
"665","office","hazini,yatima,leso,kuna","leso","j","3","html-keyboard-response","511","f","hazini","false","","4"
"1306","","","","","3","html-slider-response","512","","","","4",""
"null","","","","","3","html-keyboard-response","513","","","","",""
"1821","shoe","nyeusi,uyoga,hatua,kama","uyoga","v","3","html-keyboard-response","514","j","hatua","false","","4"
"1301.3999998569489","","","","","3","html-slider-response","515","","","","4",""
"null","","","","","3","html-keyboard-response","516","","","","",""
"4644","cop","bustani,jikoni,mechezo,bakus","mechezo","j","3","html-keyboard-response","517","f","bustani","false","","4"
"3114.7999999523163","","","","","3","html-slider-response","518","","","","4",""
"null","","","","","3","html-keyboard-response","519","","","","",""
"8443","bank","kudhibi,tualya,ofisi,silingan","silingan","n","3","html-keyboard-response","520","n","silingan","true","","4"
"1315.2000000476837","","","","","3","html-slider-response","521","","","","5",""
"null","","","","","3","html-keyboard-response","522","","","","",""
"1563","letter","filimbi,chuma,kifua,uhuru","kifua","j","3","html-keyboard-response","523","j","kifua","true","","1"
"1664.6000001430511","","","","","3","html-slider-response","524","","","","5",""
"null","","","","","3","html-keyboard-response","525","","","","",""
"11177","dog","lubi,washia,bahari,kalamu","bahari","j","3","html-keyboard-response","526","j","bahari","true","","1"
"1349.7999999523163","","","","","3","html-slider-response","527","","","","5",""
"null","","","","","3","html-keyboard-response","528","","","","",""
"7738","shop","samaki,nopya,kerida,ndezu","samaki","f","3","html-keyboard-response","529","v","nopya","false","","4"
"1547.0999999046326","","","","","3","html-slider-response","530","","","","5",""
"null","","","","","3","html-keyboard-response","531","","","","",""
"3639","flower","tamasha,lobo,bega,usiku","bega","j","3","html-keyboard-response","532","v","lobo","false","","4"
"1716.5","","","","","3","html-slider-response","533","","","","5",""
"null","","","","","3","html-keyboard-response","534","","","","",""
"2693","cigar","ndugu,kuta,mlango,adhabu","adhabu","n","3","html-keyboard-response","535","n","adhabu","true","","1"
"2290.199999809265","","","","","3","html-slider-response","536","","","","5",""
"null","","","","","3","html-keyboard-response","537","","","","",""
"1827","hammer","napakyas,mekno,kitovu,layag","napakyas","f","3","html-keyboard-response","538","j","kitovu","false","","4"
"1332","","","","","3","html-slider-response","539","","","","5",""
"null","","","","","3","html-keyboard-response","540","","","","",""
"2923","fork","baboy,paghago,gorisi,mgonjwa","mgonjwa","n","3","html-keyboard-response","541","j","gorisi","false","","4"
"2859.5","","","","","3","html-slider-response","542","","","","5",""
"null","","","","","3","html-keyboard-response","543","","","","",""
"1077","sun","bendi,luha,uongo,basi","basi","n","3","html-keyboard-response","544","n","basi","true","","1"
"1467.7999999523163","","","","","3","html-slider-response","545","","","","5",""
"null","","","","","3","html-keyboard-response","546","","","","",""
"2280","ladder","mashua,pangalan,mwanga,kamba","pangalan","v","3","html-keyboard-response","547","v","pangalan","true","","4"
"1286.8000001907349","","","","","3","html-slider-response","548","","","","5",""
"null","","","","","3","html-keyboard-response","549","","","","",""
"1448","banana","kasamok,hagdan,twai,kazi","kazi","n","3","html-keyboard-response","550","n","kazi","true","","1"
"1338.5","","","","","3","html-slider-response","551","","","","5",""
"null","","","","","3","html-keyboard-response","552","","","","",""
"1814","pudding","abug,mpishi,iring,aibu","aibu","n","3","html-keyboard-response","553","f","abug","false","","4"
"1959.4000000953674","","","","","3","html-slider-response","554","","","","4",""
"null","","","","","3","html-keyboard-response","555","","","","",""
"5564","body","tindashan,nyundu,jibini,kununa","tindashan","f","3","html-keyboard-response","556","f","tindashan","true","","4"
"2007.9000000953674","","","","","3","html-slider-response","557","","","","5",""
"null","","","","","3","html-keyboard-response","558","","","","",""
"3448","bed","kalipay,haraka,starehe,mapintas","mapintas","n","3","html-keyboard-response","559","f","kalipay","false","","4"
"2055.7000000476837","","","","","3","html-slider-response","560","","","","5",""
"null","","","","","3","html-keyboard-response","561","","","","",""
"2844","tissue","lamigas,kisiwa,katika,ugomvi","ugomvi","n","3","html-keyboard-response","562","n","ugomvi","true","","4"
"1681.8999998569489","","","","","3","html-slider-response","563","","","","5",""
"null","","","","","3","html-keyboard-response","564","","","","",""
"1117","candle","geza,gabi,farasi,kupanda","geza","f","3","html-keyboard-response","565","f","geza","true","","4"
"1940.6000001430511","","","","","3","html-slider-response","566","","","","4",""
"null","","","","","3","html-keyboard-response","567","","","","",""
"1594","tomato","chupi,chupa,mvua,takatak","mvua","j","3","html-keyboard-response","568","j","mvua","true","","1"
"1358.7999999523163","","","","","3","html-slider-response","569","","","","5",""
"null","","","","","3","html-keyboard-response","570","","","","",""
"728","list","wingu,alizeti,kuzama,kaso","wingu","f","3","html-keyboard-response","571","f","wingu","true","","4"
"1461.0999999046326","","","","","3","html-slider-response","572","","","","5",""
"null","","","","","3","html-keyboard-response","573","","","","",""
"730","olive","bata,siagi,jiwe,welder","jiwe","j","3","html-keyboard-response","574","f","bata","false","","4"
"1186.2000000476837","","","","","3","html-slider-response","575","","","","5",""
"null","","","","","3","html-keyboard-response","576","","","","",""
"887","picture","kubwa,silya,chaki,asin","kubwa","f","3","html-keyboard-response","577","f","kubwa","true","","1"
"1262.8999998569489","","","","","3","html-slider-response","578","","","","5",""
"null","","","","","3","html-keyboard-response","579","","","","",""
