"rt","en_word","options","swa_word","correct_answer","phase","trial_type","trial_index","input_answer","input_word","accuracy","certainty","amt_choices"
"5459","bonfire","mwezi,mfuko,kusanya,goti","goti","n","2","html-keyboard-response","114","n","goti","true","",""
"7058.899999976158","","","","","2","html-slider-response","115","","","","3",""
"5220","flower","tamasha,bega,lobo,usiku","bega","v","2","html-keyboard-response","116","v","bega","true","",""
"5260.600000023842","","","","","2","html-slider-response","117","","","","3",""
"4534","column","pundok,dila,pala,ufagio","ufagio","n","2","html-keyboard-response","118","n","ufagio","true","",""
"4752.600000023842","","","","","2","html-slider-response","119","","","","3",""
"12285","music","baiski,mraba,mageho,tumbo","baiski","f","2","html-keyboard-response","120","v","mraba","false","",""
"5105.700000047684","","","","","2","html-slider-response","121","","","","3",""
"5487","spider","kamwe,bunyag,mkboa,atop","kamwe","f","2","html-keyboard-response","122","f","kamwe","true","",""
"4241.100000023842","","","","","2","html-slider-response","123","","","","3",""
"6479","fork","mgonjwa,baboy,paghago,gorisi","mgonjwa","f","2","html-keyboard-response","124","j","paghago","false","",""
"7166.400000095367","","","","","2","html-slider-response","125","","","","3",""
"3785","mosquito","isda,taras,gutom,martilyo","martilyo","n","2","html-keyboard-response","126","n","martilyo","true","",""
"2785.4000000953674","","","","","2","html-slider-response","127","","","","4",""
"8317","banana","kasamok,hagdan,twai,kazi","kazi","n","2","html-keyboard-response","128","n","kazi","true","",""
"4559","","","","","2","html-slider-response","129","","","","3",""
"5410","cup","dagat,matumai,shimoni,jeraha","matumai","v","2","html-keyboard-response","130","v","matumai","true","",""
"5700.899999976158","","","","","2","html-slider-response","131","","","","3",""
"5147","shop","nopya,kerida,ndezu,samaki","samaki","n","2","html-keyboard-response","132","n","samaki","true","",""
"6062.199999928474","","","","","2","html-slider-response","133","","","","3",""
"7510","elephant","kito,petye,pagduol,suka","kito","f","2","html-keyboard-response","134","f","kito","true","",""
"3573.7999999523163","","","","","2","html-slider-response","135","","","","4",""
"22281","bucket","kiatu,baga,ijayo,init","kiatu","f","2","html-keyboard-response","136","f","kiatu","true","",""
"4580.299999952316","","","","","2","html-slider-response","137","","","","3",""
"5820","book","kuhesa,mali,picha,mara","mali","v","2","html-keyboard-response","138","v","mali","true","",""
"2911.7000000476837","","","","","2","html-slider-response","139","","","","4",""
"13416","mirror","sulagma,rangi,kanding,furaha","sulagma","f","2","html-keyboard-response","140","f","sulagma","true","",""
"4122.799999952316","","","","","2","html-slider-response","141","","","","3",""
"3135","office","hazini,leso,yatima,kuna","leso","v","2","html-keyboard-response","142","v","leso","true","",""
"3010.9000000953674","","","","","2","html-slider-response","143","","","","4",""
"19963","body","tindashan,nyundu,jibini,kununa","tindashan","f","2","html-keyboard-response","144","v","nyundu","false","",""
"4301.900000095367","","","","","2","html-slider-response","145","","","","3",""
"5957","perfume","bino,katuyoan,sungura,ndogo","katuyoan","v","2","html-keyboard-response","146","j","sungura","false","",""
"5256","","","","","2","html-slider-response","147","","","","3",""
"17452","olive","jiwe,bata,siagi,welder","jiwe","f","2","html-keyboard-response","148","f","jiwe","true","",""
"3835.8000000715256","","","","","2","html-slider-response","149","","","","3",""
"6021","magazine","gundi,mchawi,kiti,bahandi","kiti","j","2","html-keyboard-response","150","n","bahandi","false","",""
"4479.700000047684","","","","","2","html-slider-response","151","","","","3",""
"8774","bread","kaili,dari,dizeli,bugas","dari","v","2","html-keyboard-response","152","v","dari","true","",""
"5258.899999976158","","","","","2","html-slider-response","153","","","","4",""
"17502","cave","ganti,maisha,kesho,nyundo","kesho","j","2","html-keyboard-response","154","n","nyundo","false","",""
"3178.5","","","","","2","html-slider-response","155","","","","2",""
"9065","ladder","mashua,mwanga,pangalan,kamba","pangalan","j","2","html-keyboard-response","156","j","pangalan","true","",""
"6479.600000023842","","","","","2","html-slider-response","157","","","","3",""
"10189","human","bado,kikapu,punguza,tinapay","tinapay","n","2","html-keyboard-response","158","j","punguza","false","",""
"3630.100000023842","","","","","2","html-slider-response","159","","","","2",""
"15117","clock","mbwa,kartasi,abang,osha","mbwa","f","2","html-keyboard-response","160","f","mbwa","true","",""
"3036.1999999284744","","","","","2","html-slider-response","161","","","","2",""
"7622","shelf","bungtod,pamahaw,kadaot,awit","pamahaw","v","2","html-keyboard-response","162","v","pamahaw","true","",""
"3686.2999999523163","","","","","2","html-slider-response","163","","","","2",""
"3171","salmon","sensilyo,mzungu,seri,baharia","sensilyo","f","2","html-keyboard-response","164","f","sensilyo","true","",""
"3142","","","","","2","html-slider-response","165","","","","4",""
"4002","coffin","barua,tubag,hulma,kioo","kioo","n","2","html-keyboard-response","166","n","kioo","true","",""
"4631.400000095367","","","","","2","html-slider-response","167","","","","4",""
"19280","notebook","kemia,msitu,kila,mdudu","kemia","f","2","html-keyboard-response","168","v","msitu","false","",""
"3413.2999999523163","","","","","2","html-slider-response","169","","","","2",""
"6930","shoulder","kelele,mkuu,ndaniya,guruwe","mkuu","v","2","html-keyboard-response","170","v","mkuu","true","",""
"3599.100000023842","","","","","2","html-slider-response","171","","","","2",""
"6955","park","tambok,pwani,ihalas,bunifu","bunifu","n","2","html-keyboard-response","172","v","pwani","false","",""
"3013.2000000476837","","","","","2","html-slider-response","173","","","","2",""
"7044","number","shule,kengele,mundamo,choori","mundamo","j","2","html-keyboard-response","174","n","choori","false","",""
"3828","","","","","2","html-slider-response","175","","","","2",""
"6487","apple","ukame,kisu,estante,edad","kisu","v","2","html-keyboard-response","176","j","estante","false","",""
"4874.600000023842","","","","","2","html-slider-response","177","","","","3",""
"29298","letter","filimbi,chuma,kifua,uhuru","kifua","j","2","html-keyboard-response","178","j","kifua","true","",""
"4041.2000000476837","","","","","2","html-slider-response","179","","","","2",""
"3984","eel","ishara,kunywa,msumari,kabuang","msumari","j","2","html-keyboard-response","180","j","msumari","true","",""
"3670.2000000476837","","","","","2","html-slider-response","181","","","","4",""
"14245","cop","bustani,jikoni,mechezo,bakus","mechezo","j","2","html-keyboard-response","182","j","mechezo","true","",""
"4102.600000023842","","","","","2","html-slider-response","183","","","","2",""
"10992","wolf","kaburi,lugha,ndizi,mchuzi","lugha","v","2","html-keyboard-response","184","f","kaburi","false","",""
"4764.399999976158","","","","","2","html-slider-response","185","","","","2",""
"11867","squirrel","mahugaw,ukweli,kichwa,hofu","hofu","n","2","html-keyboard-response","186","j","kichwa","false","",""
"4213","","","","","2","html-slider-response","187","","","","2",""
"12701","nose","gubat,kopa,kidole,sehemu","sehemu","n","2","html-keyboard-response","188","f","gubat","false","",""
"4183.199999928474","","","","","2","html-slider-response","189","","","","2",""
"5192","sock","ndoora,kimysa,mtirka,mamba","mamba","n","2","html-keyboard-response","190","n","mamba","true","",""
"3297","","","","","2","html-slider-response","191","","","","4",""
"8899","bank","kudhibi,tualya,ofisi,silingan","silingan","n","2","html-keyboard-response","192","f","kudhibi","false","",""
"3419.2000000476837","","","","","2","html-slider-response","193","","","","2",""
"5557","donkey","elfu,bloke,lalake,rombus","elfu","f","2","html-keyboard-response","194","f","elfu","true","",""
"4041.600000023842","","","","","2","html-slider-response","195","","","","4",""
"20854","poster","nchi,fedha,kasuko,madungog","madungog","n","2","html-keyboard-response","196","n","madungog","true","",""
"4246.799999952316","","","","","2","html-slider-response","197","","","","2",""
"5272","puppet","napulo,lamok,mazishi,godoro","mazishi","j","2","html-keyboard-response","198","j","mazishi","true","",""
"6842.200000047684","","","","","2","html-slider-response","199","","","","3",""
"12881","hill","matumbo,kushoto,kukimba,sweta","matumbo","f","2","html-keyboard-response","200","j","kukimba","false","",""
"4027.2999999523163","","","","","2","html-slider-response","201","","","","2",""
"14758","tooth","kijiko,kabalaka,uadui,pahiyum","kabalaka","v","2","html-keyboard-response","202","v","kabalaka","true","",""
"3819.399999976158","","","","","2","html-slider-response","203","","","","2",""
"3940","woman","bandari,bituin,pagtabon,kovuli","pagtabon","j","2","html-keyboard-response","204","j","pagtabon","true","",""
"3114.899999976158","","","","","2","html-slider-response","205","","","","4",""
"10882","wheel","punda,bafuni,tawo,baadaye","bafuni","v","2","html-keyboard-response","206","n","baadaye","false","",""
"3204.4000000953674","","","","","2","html-slider-response","207","","","","2",""
"3224","mother","kahawa,mbuzi,jokofu,babaye","babaye","n","2","html-keyboard-response","208","n","babaye","true","",""
"3655.100000023842","","","","","2","html-slider-response","209","","","","4",""
"7366","bed","mapintas,kalipay,haraka,starehe","mapintas","f","2","html-keyboard-response","210","f","mapintas","true","",""
"5208.700000047684","","","","","2","html-slider-response","211","","","","3",""
"7595","key","miaka,goma,chombo,ahos","chombo","j","2","html-keyboard-response","212","v","goma","false","",""
"4246.200000047684","","","","","2","html-slider-response","213","","","","3",""
"11643","page","wakala,ishiri,wimbo,skina","wimbo","j","2","html-keyboard-response","214","j","wimbo","true","",""
"4148.600000023842","","","","","2","html-slider-response","215","","","","2",""
"8106","pants","haki,pintal,chuki,hari","haki","f","2","html-keyboard-response","216","j","chuki","false","",""
"3715.0999999046326","","","","","2","html-slider-response","217","","","","1",""
"10573","sun","bendi,luha,basi,uongo","basi","j","2","html-keyboard-response","218","j","basi","true","",""
"3065.5","","","","","2","html-slider-response","219","","","","1",""
"3249","finger","simu,sufuria,lima,moyo","moyo","n","2","html-keyboard-response","220","j","lima","false","",""
"2781.399999976158","","","","","2","html-slider-response","221","","","","4",""
"6963","shoe","nyeusi,uyoga,hatua,kama","uyoga","v","2","html-keyboard-response","222","n","kama","false","",""
"4939.5","","","","","2","html-slider-response","223","","","","3",""
"16305","giraffe","mahitabo,daraja,jumatu,hangyo","mahitabo","f","2","html-keyboard-response","224","v","daraja","false","",""
"3333.1999999284744","","","","","2","html-slider-response","225","","","","2",""
"4703","dog","lubi,washia,kalamu,bahari","bahari","n","2","html-keyboard-response","226","n","bahari","true","",""
"4688","","","","","2","html-slider-response","227","","","","3",""
"7339","box","adui,kuacha,rafiki,kitande","adui","f","2","html-keyboard-response","228","n","kitande","false","",""
"3302.2999999523163","","","","","2","html-slider-response","229","","","","2",""
"14116","scissors","duga,tanuri,mtawa,suga","tanuri","v","2","html-keyboard-response","230","j","mtawa","false","",""
"3897.600000023842","","","","","2","html-slider-response","231","","","","2",""
"10358","cat","paghukom,neyemba,baki,akili","paghukom","f","2","html-keyboard-response","232","v","neyemba","false","",""
"3425.8000000715256","","","","","2","html-slider-response","233","","","","2",""
"8241","basket","kumba,kumbuka,utepe,hasira","kumba","f","2","html-keyboard-response","234","v","kumbuka","false","",""
"3007.6999999284744","","","","","2","html-slider-response","235","","","","2",""
"11452","snake","jansa,karon,pagtukod,mvringo","pagtukod","j","2","html-keyboard-response","236","n","mvringo","false","",""
"3618.399999976158","","","","","2","html-slider-response","237","","","","2",""
"12531","gift","baba,nyange,baso,pagtawag","pagtawag","n","2","html-keyboard-response","238","f","baba","false","",""
"4087.7000000476837","","","","","2","html-slider-response","239","","","","2",""
"13106","train","sayari,itik,dakika,mungu","sayari","f","2","html-keyboard-response","240","v","itik","false","",""
"3306.5","","","","","2","html-slider-response","241","","","","1",""
"6036","pudding","aibu,abug,mpishi,iring","aibu","f","2","html-keyboard-response","242","j","mpishi","false","",""
"4154.800000071526","","","","","2","html-slider-response","243","","","","1",""
"6520","tomato","chupi,chupa,takatak,mvua","mvua","n","2","html-keyboard-response","244","n","mvua","true","",""
"3873","","","","","2","html-slider-response","245","","","","1",""
"11399","stone","ulimwengu,wingi,mkasi,asili","wingi","v","2","html-keyboard-response","246","j","mkasi","false","",""
"3818.3000000715256","","","","","2","html-slider-response","247","","","","1",""
"7685","hammer","mekno,kitovu,layag,napakyas","napakyas","n","2","html-keyboard-response","248","v","kitovu","false","",""
"4396.900000095367","","","","","2","html-slider-response","249","","","","3",""
"8067","knee","mvuke,kubale,duka,bili","duka","j","2","html-keyboard-response","250","f","mvuke","false","",""
"4717.399999976158","","","","","2","html-slider-response","251","","","","3",""
"4860","ceiling","maua,kugita,kawaida,rayna","maua","f","2","html-keyboard-response","252","j","kawaida","false","",""
"3290.600000023842","","","","","2","html-slider-response","253","","","","2",""
"9327","spoon","betri,nzuri,ngazi,pagsulod","pagsulod","n","2","html-keyboard-response","254","j","ngazi","false","",""
"2839.100000023842","","","","","2","html-slider-response","255","","","","2",""
"8540","marker","mapafu,maji,salita,atay","maji","v","2","html-keyboard-response","256","v","maji","true","",""
"3010.600000023842","","","","","2","html-slider-response","257","","","","2",""
"7236","candle","geza,gabi,farasi,kupanda","geza","f","2","html-keyboard-response","258","v","gabi","false","",""
"3050.899999976158","","","","","2","html-slider-response","259","","","","2",""
"4007","tissue","lamigas,kisiwa,katika,ugomvi","ugomvi","n","2","html-keyboard-response","260","n","ugomvi","true","",""
"5282.200000047684","","","","","2","html-slider-response","261","","","","3",""
"12274","bridge","daima,ngono,sahani,panya","sahani","j","2","html-keyboard-response","262","j","sahani","true","",""
"4727.5","","","","","2","html-slider-response","263","","","","2",""
"9177","berry","abogado,nogozi,kinywa,kofia","kofia","n","2","html-keyboard-response","264","j","kinywa","false","",""
"3010","","","","","2","html-slider-response","265","","","","2",""
"14683","triangle","kihozi,bentaha,kasadpan,liog","kasadpan","j","2","html-keyboard-response","266","j","kasadpan","true","",""
"3262.7000000476837","","","","","2","html-slider-response","267","","","","1",""
"7038","door","surali,tena,soko,nyota","surali","f","2","html-keyboard-response","268","n","nyota","false","",""
"5310.799999952316","","","","","2","html-slider-response","269","","","","3",""
"8606","fish","bala,buli,baho,imani","buli","v","2","html-keyboard-response","270","j","baho","false","",""
"3408.2999999523163","","","","","2","html-slider-response","271","","","","1",""
"5562","curtain","lisud,bulwawan,mchanga,chubani","mchanga","j","2","html-keyboard-response","272","j","mchanga","true","",""
"2836.399999976158","","","","","2","html-slider-response","273","","","","2",""
"10280","flag","trekta,ndege,mkate,kawa","trekta","f","2","html-keyboard-response","274","n","kawa","false","",""
"3136.600000023842","","","","","2","html-slider-response","275","","","","1",""
"5383","boat","hamsi,pombe,kitanda,agalon","agalon","n","2","html-keyboard-response","276","j","kitanda","false","",""
"2975.1999999284744","","","","","2","html-slider-response","277","","","","2",""
"7563","rose","singizi,paghalad,mwanake,amani","paghalad","v","2","html-keyboard-response","278","j","mwanake","false","",""
"4604.200000047684","","","","","2","html-slider-response","279","","","","2",""
"9151","lamp","afya,daub,bilaska,mbolea","afya","f","2","html-keyboard-response","280","v","daub","false","",""
"3975.600000023842","","","","","2","html-slider-response","281","","","","2",""
"5391","cigar","adhabu,ndugu,kuta,mlango","adhabu","f","2","html-keyboard-response","282","j","kuta","false","",""
"3373.899999976158","","","","","2","html-slider-response","283","","","","1",""
"3990","list","alizeti,wingu,kuzama,kaso","wingu","v","2","html-keyboard-response","284","v","wingu","true","",""
"2972.6999999284744","","","","","2","html-slider-response","285","","","","4",""
"8810","sheet","juuya,watu,bililhon,kamantis","bililhon","j","2","html-keyboard-response","286","v","watu","false","",""
"5094.399999976158","","","","","2","html-slider-response","287","","","","3",""
"4605","picture","silya,chaki,asin,kubwa","kubwa","n","2","html-keyboard-response","288","n","kubwa","true","",""
"6172.899999976158","","","","","2","html-slider-response","289","","","","3",""
"6553","towel","pagpalit,tembo,funzi,pito","pagpalit","f","2","html-keyboard-response","290","j","funzi","false","",""
"3324.600000023842","","","","","2","html-slider-response","291","","","","2",""
"8937","window","nanga,kweli,kujenga,umaga","kweli","v","2","html-keyboard-response","292","j","kujenga","false","",""
"4384.399999976158","","","","","2","html-slider-response","293","","","","2",""
"10252","box","kuacha,rafiki,kitande,adui","adui","n","3","html-keyboard-response","310","n","adui","true","","4"
"8197.599999904633","","","","","3","html-slider-response","311","","","","3",""
"null","","","","","3","html-keyboard-response","312","","","","",""
"6195","pants","pintal,haki,chuki,hari","haki","v","3","html-keyboard-response","313","f","pintal","false","","4"
"5968.5","","","","","3","html-slider-response","314","","","","3",""
"null","","","","","3","html-keyboard-response","315","","","","",""
"9008","cup","matumai,dagat,shimoni,jeraha","matumai","f","3","html-keyboard-response","316","f","matumai","true","","4"
"4543.200000047684","","","","","3","html-slider-response","317","","","","3",""
"null","","","","","3","html-keyboard-response","318","","","","",""
"11438","triangle","kasadpan,kihozi,bentaha,liog","kasadpan","f","3","html-keyboard-response","319","f","kasadpan","true","","4"
"5012.100000023842","","","","","3","html-slider-response","320","","","","3",""
"null","","","","","3","html-keyboard-response","321","","","","",""
"7996","curtain","mchanga,lisud,bulwawan,chubani","mchanga","f","3","html-keyboard-response","322","n","chubani","false","","4"
"6450.699999928474","","","","","3","html-slider-response","323","","","","3",""
"null","","","","","3","html-keyboard-response","324","","","","",""
"4457","clock","kartasi,abang,osha,mbwa","mbwa","n","3","html-keyboard-response","325","n","mbwa","true","","4"
"5025.100000023842","","","","","3","html-slider-response","326","","","","3",""
"null","","","","","3","html-keyboard-response","327","","","","",""
"6100","mirror","rangi,sulagma,kanding,furaha","sulagma","v","3","html-keyboard-response","328","n","furaha","false","","4"
"4859","","","","","3","html-slider-response","329","","","","3",""
"null","","","","","3","html-keyboard-response","330","","","","",""
"4606","coffin","barua,tubag,hulma,kioo","kioo","n","3","html-keyboard-response","331","n","kioo","true","","1"
"5559.299999952316","","","","","3","html-slider-response","332","","","","5",""
"null","","","","","3","html-keyboard-response","333","","","","",""
"5043","magazine","gundi,kiti,mchawi,bahandi","kiti","v","3","html-keyboard-response","334","j","mchawi","false","","4"
"5174.5","","","","","3","html-slider-response","335","","","","3",""
"null","","","","","3","html-keyboard-response","336","","","","",""
"4372","column","ufagio,pundok,dila,pala","ufagio","f","3","html-keyboard-response","337","f","ufagio","true","","1"
"3607.5","","","","","3","html-slider-response","338","","","","4",""
"null","","","","","3","html-keyboard-response","339","","","","",""
"7097","number","shule,kengele,mundamo,choori","mundamo","j","3","html-keyboard-response","340","n","choori","false","","4"
"4759.199999928474","","","","","3","html-slider-response","341","","","","3",""
"null","","","","","3","html-keyboard-response","342","","","","",""
"4699","rose","singizi,paghalad,mwanake,amani","paghalad","v","3","html-keyboard-response","343","v","paghalad","true","","4"
"4904.800000071526","","","","","3","html-slider-response","344","","","","3",""
"null","","","","","3","html-keyboard-response","345","","","","",""
"3425","eel","ishara,msumari,kunywa,kabuang","msumari","v","3","html-keyboard-response","346","v","msumari","true","","4"
"3192.8000000715256","","","","","3","html-slider-response","347","","","","4",""
"null","","","","","3","html-keyboard-response","348","","","","",""
"11069","gift","baba,pagtawag,nyange,baso","pagtawag","v","3","html-keyboard-response","349","n","baso","false","","4"
"5037.5","","","","","3","html-slider-response","350","","","","3",""
"null","","","","","3","html-keyboard-response","351","","","","",""
"2926","apple","ukame,estante,edad,kisu","kisu","n","3","html-keyboard-response","352","n","kisu","true","","1"
"2817","","","","","3","html-slider-response","353","","","","5",""
"null","","","","","3","html-keyboard-response","354","","","","",""
"10327","wheel","bafuni,punda,tawo,baadaye","bafuni","f","3","html-keyboard-response","355","f","bafuni","true","","1"
"3670","","","","","3","html-slider-response","356","","","","5",""
"null","","","","","3","html-keyboard-response","357","","","","",""
"3953","knee","mvuke,kubale,bili,duka","duka","n","3","html-keyboard-response","358","f","mvuke","false","","4"
"5493.300000071526","","","","","3","html-slider-response","359","","","","3",""
"null","","","","","3","html-keyboard-response","360","","","","",""
"2846","basket","kumbuka,utepe,hasira,kumba","kumba","n","3","html-keyboard-response","361","n","kumba","true","","1"
"4838.700000047684","","","","","3","html-slider-response","362","","","","5",""
"null","","","","","3","html-keyboard-response","363","","","","",""
"4394","park","bunifu,tambok,pwani,ihalas","bunifu","f","3","html-keyboard-response","364","f","bunifu","true","","4"
"3501.600000023842","","","","","3","html-slider-response","365","","","","4",""
"null","","","","","3","html-keyboard-response","366","","","","",""
"5396","finger","moyo,simu,sufuria,lima","moyo","f","3","html-keyboard-response","367","v","simu","false","","4"
"5111.200000047684","","","","","3","html-slider-response","368","","","","3",""
"null","","","","","3","html-keyboard-response","369","","","","",""
"4627","boat","hamsi,pombe,agalon,kitanda","agalon","j","3","html-keyboard-response","370","n","kitanda","false","","4"
"4561.600000023842","","","","","3","html-slider-response","371","","","","3",""
"null","","","","","3","html-keyboard-response","372","","","","",""
"5189","hill","kushoto,kukimba,matumbo,sweta","matumbo","j","3","html-keyboard-response","373","v","kukimba","false","","4"
"6252.600000023842","","","","","3","html-slider-response","374","","","","2",""
"null","","","","","3","html-keyboard-response","375","","","","",""
"5542","train","sayari,itik,dakika,mungu","sayari","f","3","html-keyboard-response","376","j","dakika","false","","4"
"4579.899999976158","","","","","3","html-slider-response","377","","","","2",""
"null","","","","","3","html-keyboard-response","378","","","","",""
"8998","wolf","kaburi,ndizi,lugha,mchuzi","lugha","j","3","html-keyboard-response","379","n","mchuzi","false","","4"
"5101","","","","","3","html-slider-response","380","","","","2",""
"null","","","","","3","html-keyboard-response","381","","","","",""
"5370","snake","jansa,karon,mvringo,pagtukod","pagtukod","n","3","html-keyboard-response","382","n","pagtukod","true","","4"
"3073.399999976158","","","","","3","html-slider-response","383","","","","4",""
"null","","","","","3","html-keyboard-response","384","","","","",""
"9407","tooth","kabalaka,kijiko,uadui,pahiyum","kabalaka","f","3","html-keyboard-response","385","f","kabalaka","true","","4"
"3626.9000000953674","","","","","3","html-slider-response","386","","","","1",""
"null","","","","","3","html-keyboard-response","387","","","","",""
"4548","notebook","kemia,msitu,kila,mdudu","kemia","f","3","html-keyboard-response","388","v","msitu","false","","4"
"4550.899999976158","","","","","3","html-slider-response","389","","","","3",""
"null","","","","","3","html-keyboard-response","390","","","","",""
"6918","flag","ndege,trekta,mkate,kawa","trekta","v","3","html-keyboard-response","391","v","trekta","true","","4"
"4454.600000023842","","","","","3","html-slider-response","392","","","","3",""
"null","","","","","3","html-keyboard-response","393","","","","",""
"4550","squirrel","mahugaw,ukweli,hofu,kichwa","hofu","j","3","html-keyboard-response","394","f","mahugaw","false","","4"
"8192.299999952316","","","","","3","html-slider-response","395","","","","3",""
"null","","","","","3","html-keyboard-response","396","","","","",""
"7050","door","tena,soko,surali,nyota","surali","j","3","html-keyboard-response","397","n","nyota","false","","4"
"6541.300000071526","","","","","3","html-slider-response","398","","","","3",""
"null","","","","","3","html-keyboard-response","399","","","","",""
"5682","salmon","mzungu,sensilyo,seri,baharia","sensilyo","v","3","html-keyboard-response","400","v","sensilyo","true","","4"
"3303.1999999284744","","","","","3","html-slider-response","401","","","","4",""
"null","","","","","3","html-keyboard-response","402","","","","",""
"7529","shoulder","kelele,ndaniya,guruwe,mkuu","mkuu","n","3","html-keyboard-response","403","n","mkuu","true","","4"
"5192.099999904633","","","","","3","html-slider-response","404","","","","2",""
"null","","","","","3","html-keyboard-response","405","","","","",""
"8022","lamp","daub,bilaska,afya,mbolea","afya","j","3","html-keyboard-response","406","j","afya","true","","4"
"3301.3000000715256","","","","","3","html-slider-response","407","","","","2",""
"null","","","","","3","html-keyboard-response","408","","","","",""
"9176","shelf","pamahaw,bungtod,kadaot,awit","pamahaw","f","3","html-keyboard-response","409","f","pamahaw","true","","1"
"3036.7999999523163","","","","","3","html-slider-response","410","","","","2",""
"null","","","","","3","html-keyboard-response","411","","","","",""
"6237","human","bado,kikapu,tinapay,punguza","tinapay","j","3","html-keyboard-response","412","n","punguza","false","","4"
"3210.899999976158","","","","","3","html-slider-response","413","","","","2",""
"null","","","","","3","html-keyboard-response","414","","","","",""
"4907","towel","tembo,funzi,pagpalit,pito","pagpalit","j","3","html-keyboard-response","415","v","funzi","false","","4"
"2858.5","","","","","3","html-slider-response","416","","","","2",""
"null","","","","","3","html-keyboard-response","417","","","","",""
"7624","cat","neyemba,baki,paghukom,akili","paghukom","j","3","html-keyboard-response","418","f","neyemba","false","","4"
"3115.6999999284744","","","","","3","html-slider-response","419","","","","2",""
"null","","","","","3","html-keyboard-response","420","","","","",""
"4550","spider","kamwe,bunyag,mkboa,atop","kamwe","f","3","html-keyboard-response","421","f","kamwe","true","","4"
"3386.8000000715256","","","","","3","html-slider-response","422","","","","4",""
"null","","","","","3","html-keyboard-response","423","","","","",""
"8715","window","kweli,nanga,kujenga,umaga","kweli","f","3","html-keyboard-response","424","v","nanga","false","","4"
"4380.700000047684","","","","","3","html-slider-response","425","","","","2",""
"null","","","","","3","html-keyboard-response","426","","","","",""
"5701","woman","pagtabon,bandari,bituin,kovuli","pagtabon","f","3","html-keyboard-response","427","f","pagtabon","true","","1"
"3369.5","","","","","3","html-slider-response","428","","","","4",""
"null","","","","","3","html-keyboard-response","429","","","","",""
"6674","giraffe","daraja,jumatu,hangyo,mahitabo","mahitabo","n","3","html-keyboard-response","430","n","mahitabo","true","","4"
"3075.6999999284744","","","","","3","html-slider-response","431","","","","4",""
"null","","","","","3","html-keyboard-response","432","","","","",""
"6113","elephant","petye,pagduol,kito,suka","kito","j","3","html-keyboard-response","433","n","suka","false","","4"
"4907.600000023842","","","","","3","html-slider-response","434","","","","3",""
"null","","","","","3","html-keyboard-response","435","","","","",""
"7322","cave","ganti,maisha,kesho,nyundo","kesho","j","3","html-keyboard-response","436","j","kesho","true","","4"
"2933.5","","","","","3","html-slider-response","437","","","","2",""
"null","","","","","3","html-keyboard-response","438","","","","",""
"5617","bread","kaili,dizeli,dari,bugas","dari","j","3","html-keyboard-response","439","n","bugas","false","","4"
"3217.600000023842","","","","","3","html-slider-response","440","","","","2",""
"null","","","","","3","html-keyboard-response","441","","","","",""
"4500","stone","ulimwengu,mkasi,asili,wingi","wingi","n","3","html-keyboard-response","442","n","wingi","true","","4"
"3249.899999976158","","","","","3","html-slider-response","443","","","","2",""
"null","","","","","3","html-keyboard-response","444","","","","",""
"4229","donkey","bloke,elfu,lalake,rombus","elfu","v","3","html-keyboard-response","445","v","elfu","true","","4"
"2910.7999999523163","","","","","3","html-slider-response","446","","","","4",""
"null","","","","","3","html-keyboard-response","447","","","","",""
"7197","bridge","daima,ngono,panya,sahani","sahani","n","3","html-keyboard-response","448","n","sahani","true","","4"
"2438.6999999284744","","","","","3","html-slider-response","449","","","","2",""
"null","","","","","3","html-keyboard-response","450","","","","",""
"4592","bonfire","mwezi,mfuko,kusanya,goti","goti","n","3","html-keyboard-response","451","n","goti","true","","4"
"4987.399999976158","","","","","3","html-slider-response","452","","","","3",""
"null","","","","","3","html-keyboard-response","453","","","","",""
"5701","book","kuhesa,mali,picha,mara","mali","v","3","html-keyboard-response","454","v","mali","true","","4"
"3760.100000023842","","","","","3","html-slider-response","455","","","","2",""
"null","","","","","3","html-keyboard-response","456","","","","",""
"5345","fish","buli,bala,baho,imani","buli","f","3","html-keyboard-response","457","v","bala","false","","4"
"2681.100000023842","","","","","3","html-slider-response","458","","","","2",""
"null","","","","","3","html-keyboard-response","459","","","","",""
"5100","spoon","betri,nzuri,pagsulod,ngazi","pagsulod","j","3","html-keyboard-response","460","j","pagsulod","true","","4"
"3076","","","","","3","html-slider-response","461","","","","2",""
"null","","","","","3","html-keyboard-response","462","","","","",""
"4825","scissors","duga,mtawa,tanuri,suga","tanuri","j","3","html-keyboard-response","463","v","mtawa","false","","4"
"3084.5","","","","","3","html-slider-response","464","","","","2",""
"null","","","","","3","html-keyboard-response","465","","","","",""
"5110","page","wakala,ishiri,wimbo,skina","wimbo","j","3","html-keyboard-response","466","j","wimbo","true","","4"
"4102.100000023842","","","","","3","html-slider-response","467","","","","2",""
"null","","","","","3","html-keyboard-response","468","","","","",""
"2555","nose","gubat,sehemu,kopa,kidole","sehemu","v","3","html-keyboard-response","469","v","sehemu","true","","1"
"2781.5","","","","","3","html-slider-response","470","","","","5",""
"null","","","","","3","html-keyboard-response","471","","","","",""
"5983","ceiling","kugita,kawaida,maua,rayna","maua","j","3","html-keyboard-response","472","n","rayna","false","","4"
"2590.8000000715256","","","","","3","html-slider-response","473","","","","2",""
"null","","","","","3","html-keyboard-response","474","","","","",""
"5660","bucket","baga,ijayo,kiatu,init","kiatu","j","3","html-keyboard-response","475","f","baga","false","","4"
"3279.100000023842","","","","","3","html-slider-response","476","","","","2",""
"null","","","","","3","html-keyboard-response","477","","","","",""
"3757","berry","abogado,kofia,nogozi,kinywa","kofia","v","3","html-keyboard-response","478","v","kofia","true","","1"
"3741.1999999284744","","","","","3","html-slider-response","479","","","","5",""
"null","","","","","3","html-keyboard-response","480","","","","",""
"11438","mother","babaye,kahawa,mbuzi,jokofu","babaye","f","3","html-keyboard-response","481","f","babaye","true","","1"
"3829.7000000476837","","","","","3","html-slider-response","482","","","","5",""
"null","","","","","3","html-keyboard-response","483","","","","",""
"6521","mosquito","isda,taras,gutom,martilyo","martilyo","n","3","html-keyboard-response","484","n","martilyo","true","","4"
"3118.399999976158","","","","","3","html-slider-response","485","","","","4",""
"null","","","","","3","html-keyboard-response","486","","","","",""
"4606","perfume","katuyoan,bino,sungura,ndogo","katuyoan","f","3","html-keyboard-response","487","j","sungura","false","","4"
"5624.599999904633","","","","","3","html-slider-response","488","","","","3",""
"null","","","","","3","html-keyboard-response","489","","","","",""
"4180","sheet","bililhon,juuya,watu,kamantis","bililhon","f","3","html-keyboard-response","490","j","watu","false","","4"
"3589","","","","","3","html-slider-response","491","","","","2",""
"null","","","","","3","html-keyboard-response","492","","","","",""
"2658","puppet","napulo,mazishi,lamok,godoro","mazishi","v","3","html-keyboard-response","493","v","mazishi","true","","1"
"3593","","","","","3","html-slider-response","494","","","","5",""
"null","","","","","3","html-keyboard-response","495","","","","",""
"8471","poster","nchi,fedha,madungog,kasuko","madungog","j","3","html-keyboard-response","496","n","kasuko","false","","4"
"5737.200000047684","","","","","3","html-slider-response","497","","","","3",""
"null","","","","","3","html-keyboard-response","498","","","","",""
"6027","music","baiski,mraba,mageho,tumbo","baiski","f","3","html-keyboard-response","499","n","tumbo","false","","4"
"4415.399999976158","","","","","3","html-slider-response","500","","","","3",""
"null","","","","","3","html-keyboard-response","501","","","","",""
"7595","key","miaka,goma,chombo,ahos","chombo","j","3","html-keyboard-response","502","v","goma","false","","4"
"3360.100000023842","","","","","3","html-slider-response","503","","","","1",""
"null","","","","","3","html-keyboard-response","504","","","","",""
"3206","sock","ndoora,mamba,kimysa,mtirka","mamba","v","3","html-keyboard-response","505","v","mamba","true","","4"
"3818.399999976158","","","","","3","html-slider-response","506","","","","5",""
"null","","","","","3","html-keyboard-response","507","","","","",""
"4589","marker","mapafu,maji,salita,atay","maji","v","3","html-keyboard-response","508","f","mapafu","false","","4"
"4888.900000095367","","","","","3","html-slider-response","509","","","","3",""
"null","","","","","3","html-keyboard-response","510","","","","",""
"9863","office","hazini,leso,yatima,kuna","leso","v","3","html-keyboard-response","511","v","leso","true","","4"
"2921.6999999284744","","","","","3","html-slider-response","512","","","","1",""
"null","","","","","3","html-keyboard-response","513","","","","",""
"5196","shoe","nyeusi,uyoga,hatua,kama","uyoga","v","3","html-keyboard-response","514","n","kama","false","","4"
"3682.7999999523163","","","","","3","html-slider-response","515","","","","2",""
"null","","","","","3","html-keyboard-response","516","","","","",""
"10959","cop","bustani,jikoni,bakus,mechezo","mechezo","n","3","html-keyboard-response","517","f","bustani","false","","4"
"3138.5","","","","","3","html-slider-response","518","","","","2",""
"null","","","","","3","html-keyboard-response","519","","","","",""
"5639","bank","kudhibi,tualya,silingan,ofisi","silingan","j","3","html-keyboard-response","520","v","tualya","false","","4"
"3305","","","","","3","html-slider-response","521","","","","1",""
"null","","","","","3","html-keyboard-response","522","","","","",""
"3132","letter","filimbi,chuma,uhuru,kifua","kifua","n","3","html-keyboard-response","523","n","kifua","true","","1"
"4663","","","","","3","html-slider-response","524","","","","5",""
"null","","","","","3","html-keyboard-response","525","","","","",""
"3454","dog","bahari,lubi,washia,kalamu","bahari","f","3","html-keyboard-response","526","f","bahari","true","","1"
"3348.1999999284744","","","","","3","html-slider-response","527","","","","5",""
"null","","","","","3","html-keyboard-response","528","","","","",""
"4319","shop","samaki,nopya,kerida,ndezu","samaki","f","3","html-keyboard-response","529","f","samaki","true","","4"
"4596","","","","","3","html-slider-response","530","","","","3",""
"null","","","","","3","html-keyboard-response","531","","","","",""
"12899","flower","bega,tamasha,lobo,usiku","bega","f","3","html-keyboard-response","532","n","usiku","false","","4"
"3084.7000000476837","","","","","3","html-slider-response","533","","","","1",""
"null","","","","","3","html-keyboard-response","534","","","","",""
"3486","cigar","ndugu,adhabu,kuta,mlango","adhabu","v","3","html-keyboard-response","535","v","adhabu","true","","1"
"3310.7999999523163","","","","","3","html-slider-response","536","","","","5",""
"null","","","","","3","html-keyboard-response","537","","","","",""
"5813","hammer","napakyas,mekno,kitovu,layag","napakyas","f","3","html-keyboard-response","538","f","napakyas","true","","4"
"2890.2999999523163","","","","","3","html-slider-response","539","","","","4",""
"null","","","","","3","html-keyboard-response","540","","","","",""
"9564","fork","baboy,paghago,gorisi,mgonjwa","mgonjwa","n","3","html-keyboard-response","541","v","paghago","false","","4"
"4276.899999976158","","","","","3","html-slider-response","542","","","","3",""
"null","","","","","3","html-keyboard-response","543","","","","",""
"3632","sun","bendi,luha,uongo,basi","basi","n","3","html-keyboard-response","544","n","basi","true","","1"
"3293.2999999523163","","","","","3","html-slider-response","545","","","","5",""
"null","","","","","3","html-keyboard-response","546","","","","",""
"3843","ladder","mashua,pangalan,mwanga,kamba","pangalan","v","3","html-keyboard-response","547","v","pangalan","true","","4"
"2964.7000000476837","","","","","3","html-slider-response","548","","","","4",""
"null","","","","","3","html-keyboard-response","549","","","","",""
"3044","banana","kasamok,hagdan,kazi,twai","kazi","j","3","html-keyboard-response","550","j","kazi","true","","1"
"4238.399999976158","","","","","3","html-slider-response","551","","","","5",""
"null","","","","","3","html-keyboard-response","552","","","","",""
"6852","pudding","abug,mpishi,iring,aibu","aibu","n","3","html-keyboard-response","553","v","mpishi","false","","4"
"4171.799999952316","","","","","3","html-slider-response","554","","","","3",""
"null","","","","","3","html-keyboard-response","555","","","","",""
"4547","body","nyundu,jibini,tindashan,kununa","tindashan","j","3","html-keyboard-response","556","j","tindashan","true","","4"
"4663.200000047684","","","","","3","html-slider-response","557","","","","3",""
"null","","","","","3","html-keyboard-response","558","","","","",""
"4441","bed","kalipay,haraka,starehe,mapintas","mapintas","n","3","html-keyboard-response","559","n","mapintas","true","","4"
"2812.1999999284744","","","","","3","html-slider-response","560","","","","4",""
"null","","","","","3","html-keyboard-response","561","","","","",""
"4796","tissue","ugomvi,lamigas,kisiwa,katika","ugomvi","f","3","html-keyboard-response","562","f","ugomvi","true","","4"
"2584.2000000476837","","","","","3","html-slider-response","563","","","","4",""
"null","","","","","3","html-keyboard-response","564","","","","",""
"4348","candle","gabi,farasi,geza,kupanda","geza","j","3","html-keyboard-response","565","f","gabi","false","","4"
"3040.100000023842","","","","","3","html-slider-response","566","","","","4",""
"null","","","","","3","html-keyboard-response","567","","","","",""
"2853","tomato","chupi,mvua,chupa,takatak","mvua","v","3","html-keyboard-response","568","v","mvua","true","","1"
"3857.5","","","","","3","html-slider-response","569","","","","5",""
"null","","","","","3","html-keyboard-response","570","","","","",""
"3739","list","wingu,alizeti,kuzama,kaso","wingu","f","3","html-keyboard-response","571","f","wingu","true","","4"
"2872.7999999523163","","","","","3","html-slider-response","572","","","","4",""
"null","","","","","3","html-keyboard-response","573","","","","",""
"3316","olive","bata,jiwe,siagi,welder","jiwe","v","3","html-keyboard-response","574","f","bata","false","","4"
"4986.300000071526","","","","","3","html-slider-response","575","","","","3",""
"null","","","","","3","html-keyboard-response","576","","","","",""
"2339","picture","kubwa,silya,chaki,asin","kubwa","f","3","html-keyboard-response","577","f","kubwa","true","","1"
"3239.899999976158","","","","","3","html-slider-response","578","","","","5",""
"null","","","","","3","html-keyboard-response","579","","","","",""
