"rt","en_word","options","swa_word","correct_answer","phase","trial_type","trial_index","input_answer","input_word","accuracy","certainty","amt_choices"
"3958","bonfire","goti,mwezi,mfuko,kusanya","goti","f","2","html-keyboard-response","114","f","goti","true","",""
"14582.5","","","","","2","html-slider-response","115","","","","4",""
"3791","flower","tamasha,bega,lobo,usiku","bega","v","2","html-keyboard-response","116","j","lobo","false","",""
"1494.9000000003725","","","","","2","html-slider-response","117","","","","2",""
"3143","column","pundok,dila,pala,ufagio","ufagio","n","2","html-keyboard-response","118","n","ufagio","true","",""
"1654.699999999255","","","","","2","html-slider-response","119","","","","4",""
"3287","music","mraba,mageho,baiski,tumbo","baiski","j","2","html-keyboard-response","120","n","tumbo","false","",""
"2615.2999999988824","","","","","2","html-slider-response","121","","","","4",""
"2799","spider","bunyag,mkboa,atop,kamwe","kamwe","n","2","html-keyboard-response","122","n","kamwe","true","",""
"1494.800000000745","","","","","2","html-slider-response","123","","","","4",""
"4783","fork","baboy,paghago,mgonjwa,gorisi","mgonjwa","j","2","html-keyboard-response","124","j","mgonjwa","true","",""
"1606.6000000014901","","","","","2","html-slider-response","125","","","","4",""
"3192","mosquito","isda,taras,gutom,martilyo","martilyo","n","2","html-keyboard-response","126","n","martilyo","true","",""
"2438.7000000011176","","","","","2","html-slider-response","127","","","","2",""
"2031","banana","kasamok,hagdan,twai,kazi","kazi","n","2","html-keyboard-response","128","n","kazi","true","",""
"1614.5","","","","","2","html-slider-response","129","","","","4",""
"3952","cup","matumai,dagat,shimoni,jeraha","matumai","f","2","html-keyboard-response","130","n","jeraha","false","",""
"1735.0999999996275","","","","","2","html-slider-response","131","","","","2",""
"3687","shop","samaki,nopya,kerida,ndezu","samaki","f","2","html-keyboard-response","132","f","samaki","true","",""
"1534.4000000003725","","","","","2","html-slider-response","133","","","","2",""
"1864","elephant","petye,pagduol,suka,kito","kito","n","2","html-keyboard-response","134","n","kito","true","",""
"1383.1000000014901","","","","","2","html-slider-response","135","","","","5",""
"4767","bucket","kiatu,baga,ijayo,init","kiatu","f","2","html-keyboard-response","136","f","kiatu","true","",""
"1694.800000000745","","","","","2","html-slider-response","137","","","","5",""
"2447","book","kuhesa,picha,mara,mali","mali","n","2","html-keyboard-response","138","n","mali","true","",""
"1814.300000000745","","","","","2","html-slider-response","139","","","","5",""
"117488","mirror","rangi,sulagma,kanding,furaha","sulagma","v","2","html-keyboard-response","140","v","sulagma","true","",""
"1943.1000000014901","","","","","2","html-slider-response","141","","","","2",""
"2927","office","hazini,leso,yatima,kuna","leso","v","2","html-keyboard-response","142","f","hazini","false","",""
"1671.2999999988824","","","","","2","html-slider-response","143","","","","1",""
"3183","body","nyundu,jibini,tindashan,kununa","tindashan","j","2","html-keyboard-response","144","j","tindashan","true","",""
"2782.9000000003725","","","","","2","html-slider-response","145","","","","3",""
"3831","perfume","bino,sungura,katuyoan,ndogo","katuyoan","j","2","html-keyboard-response","146","j","katuyoan","true","",""
"1518.9000000003725","","","","","2","html-slider-response","147","","","","4",""
"2855","olive","bata,siagi,welder,jiwe","jiwe","n","2","html-keyboard-response","148","n","jiwe","true","",""
"1902.800000000745","","","","","2","html-slider-response","149","","","","4",""
"3807","magazine","gundi,kiti,mchawi,bahandi","kiti","v","2","html-keyboard-response","150","j","mchawi","false","",""
"1223","","","","","2","html-slider-response","151","","","","2",""
"3231","bread","kaili,dari,dizeli,bugas","dari","v","2","html-keyboard-response","152","v","dari","true","",""
"1574.8999999985099","","","","","2","html-slider-response","153","","","","2",""
"109435","cave","ganti,kesho,maisha,nyundo","kesho","v","2","html-keyboard-response","154","f","ganti","false","",""
"1911","","","","","2","html-slider-response","155","","","","4",""
"2879","ladder","mashua,mwanga,pangalan,kamba","pangalan","j","2","html-keyboard-response","156","j","pangalan","true","",""
"1310.5999999996275","","","","","2","html-slider-response","157","","","","5",""
"5023","human","bado,tinapay,kikapu,punguza","tinapay","v","2","html-keyboard-response","158","v","tinapay","true","",""
"1246.9000000003725","","","","","2","html-slider-response","159","","","","2",""
"2807","clock","kartasi,abang,osha,mbwa","mbwa","n","2","html-keyboard-response","160","j","osha","false","",""
"1191.0999999996275","","","","","2","html-slider-response","161","","","","2",""
"4351","shelf","bungtod,pamahaw,kadaot,awit","pamahaw","v","2","html-keyboard-response","162","v","pamahaw","true","",""
"1727.199999999255","","","","","2","html-slider-response","163","","","","2",""
"3391","salmon","sensilyo,mzungu,seri,baharia","sensilyo","f","2","html-keyboard-response","164","j","seri","false","",""
"1711.199999999255","","","","","2","html-slider-response","165","","","","1",""
"2255","coffin","barua,kioo,tubag,hulma","kioo","v","2","html-keyboard-response","166","n","hulma","false","",""
"1559","","","","","2","html-slider-response","167","","","","4",""
"3431","notebook","msitu,kila,mdudu,kemia","kemia","n","2","html-keyboard-response","168","n","kemia","true","",""
"1503","","","","","2","html-slider-response","169","","","","2",""
"3791","shoulder","mkuu,kelele,ndaniya,guruwe","mkuu","f","2","html-keyboard-response","170","f","mkuu","true","",""
"2182.699999999255","","","","","2","html-slider-response","171","","","","1",""
"2175","park","tambok,pwani,bunifu,ihalas","bunifu","j","2","html-keyboard-response","172","n","ihalas","false","",""
"1798.699999999255","","","","","2","html-slider-response","173","","","","2",""
"4648","number","shule,kengele,choori,mundamo","mundamo","n","2","html-keyboard-response","174","n","mundamo","true","",""
"1390.5","","","","","2","html-slider-response","175","","","","4",""
"2791","apple","ukame,kisu,estante,edad","kisu","v","2","html-keyboard-response","176","j","estante","false","",""
"1591.199999999255","","","","","2","html-slider-response","177","","","","2",""
"4698","letter","filimbi,chuma,uhuru,kifua","kifua","n","2","html-keyboard-response","178","n","kifua","true","",""
"2022.5999999996275","","","","","2","html-slider-response","179","","","","2",""
"3848","eel","ishara,kunywa,msumari,kabuang","msumari","j","2","html-keyboard-response","180","j","msumari","true","",""
"1710.7999999988824","","","","","2","html-slider-response","181","","","","4",""
"3504","cop","mechezo,bustani,jikoni,bakus","mechezo","f","2","html-keyboard-response","182","v","bustani","false","",""
"1422.5999999996275","","","","","2","html-slider-response","183","","","","2",""
"2992","wolf","kaburi,lugha,ndizi,mchuzi","lugha","v","2","html-keyboard-response","184","n","mchuzi","false","",""
"1846.8999999985099","","","","","2","html-slider-response","185","","","","1",""
"4199","squirrel","mahugaw,ukweli,hofu,kichwa","hofu","j","2","html-keyboard-response","186","j","hofu","true","",""
"2951.0999999996275","","","","","2","html-slider-response","187","","","","3",""
"3544","nose","gubat,kopa,sehemu,kidole","sehemu","j","2","html-keyboard-response","188","f","gubat","false","",""
"1406.3999999985099","","","","","2","html-slider-response","189","","","","2",""
"3032","sock","ndoora,kimysa,mamba,mtirka","mamba","j","2","html-keyboard-response","190","j","mamba","true","",""
"2382.800000000745","","","","","2","html-slider-response","191","","","","3",""
"3023","bank","kudhibi,tualya,silingan,ofisi","silingan","j","2","html-keyboard-response","192","v","tualya","false","",""
"1999.0999999996275","","","","","2","html-slider-response","193","","","","3",""
"2687","donkey","elfu,bloke,lalake,rombus","elfu","f","2","html-keyboard-response","194","j","lalake","false","",""
"1967.0999999996275","","","","","2","html-slider-response","195","","","","3",""
"3495","poster","nchi,fedha,madungog,kasuko","madungog","j","2","html-keyboard-response","196","v","fedha","false","",""
"2287.0999999996275","","","","","2","html-slider-response","197","","","","3",""
"3263","puppet","napulo,mazishi,lamok,godoro","mazishi","v","2","html-keyboard-response","198","j","lamok","false","",""
"1391","","","","","2","html-slider-response","199","","","","2",""
"3049","hill","kushoto,matumbo,kukimba,sweta","matumbo","v","2","html-keyboard-response","200","v","matumbo","true","",""
"2246.89999999851","","","","","2","html-slider-response","201","","","","3",""
"2951","tooth","kijiko,kabalaka,uadui,pahiyum","kabalaka","v","2","html-keyboard-response","202","v","kabalaka","true","",""
"2302.7999999988824","","","","","2","html-slider-response","203","","","","3",""
"3543","woman","pagtabon,bandari,bituin,kovuli","pagtabon","f","2","html-keyboard-response","204","f","pagtabon","true","",""
"1822.7999999988824","","","","","2","html-slider-response","205","","","","2",""
"4735","wheel","punda,bafuni,tawo,baadaye","bafuni","v","2","html-keyboard-response","206","j","tawo","false","",""
"1455","","","","","2","html-slider-response","207","","","","4",""
"2127","mother","kahawa,mbuzi,babaye,jokofu","babaye","j","2","html-keyboard-response","208","j","babaye","true","",""
"1455.199999999255","","","","","2","html-slider-response","209","","","","5",""
"2519","bed","kalipay,haraka,starehe,mapintas","mapintas","n","2","html-keyboard-response","210","v","haraka","false","",""
"3358.7999999988824","","","","","2","html-slider-response","211","","","","2",""
"44184","key","chombo,miaka,goma,ahos","chombo","f","2","html-keyboard-response","212","j","goma","false","",""
"1430.9000000003725","","","","","2","html-slider-response","213","","","","2",""
"2807","page","wakala,ishiri,wimbo,skina","wimbo","j","2","html-keyboard-response","214","j","wimbo","true","",""
"1550.699999999255","","","","","2","html-slider-response","215","","","","2",""
"2815","pants","haki,pintal,chuki,hari","haki","f","2","html-keyboard-response","216","n","hari","false","",""
"1606.5999999996275","","","","","2","html-slider-response","217","","","","2",""
"2375","sun","bendi,basi,luha,uongo","basi","v","2","html-keyboard-response","218","v","basi","true","",""
"1470.9000000003725","","","","","2","html-slider-response","219","","","","4",""
"4000","finger","simu,sufuria,moyo,lima","moyo","j","2","html-keyboard-response","220","j","moyo","true","",""
"1942.5999999996275","","","","","2","html-slider-response","221","","","","2",""
"2911","shoe","nyeusi,uyoga,hatua,kama","uyoga","v","2","html-keyboard-response","222","f","nyeusi","false","",""
"2735","","","","","2","html-slider-response","223","","","","2",""
"11295","giraffe","mahitabo,daraja,jumatu,hangyo","mahitabo","f","2","html-keyboard-response","224","v","daraja","false","",""
"2574.699999999255","","","","","2","html-slider-response","225","","","","2",""
"2711","dog","lubi,bahari,washia,kalamu","bahari","v","2","html-keyboard-response","226","j","washia","false","",""
"1718.7999999988824","","","","","2","html-slider-response","227","","","","1",""
"2655","box","adui,kuacha,rafiki,kitande","adui","f","2","html-keyboard-response","228","v","kuacha","false","",""
"1398.9000000003725","","","","","2","html-slider-response","229","","","","2",""
"2135","scissors","duga,mtawa,suga,tanuri","tanuri","n","2","html-keyboard-response","230","n","tanuri","true","",""
"2047","","","","","2","html-slider-response","231","","","","3",""
"3143","cat","paghukom,neyemba,baki,akili","paghukom","f","2","html-keyboard-response","232","v","neyemba","false","",""
"1422.7999999988824","","","","","2","html-slider-response","233","","","","4",""
"4167","basket","kumbuka,utepe,hasira,kumba","kumba","n","2","html-keyboard-response","234","n","kumba","true","",""
"2063","","","","","2","html-slider-response","235","","","","4",""
"2791","snake","jansa,pagtukod,karon,mvringo","pagtukod","v","2","html-keyboard-response","236","j","karon","false","",""
"1399.0999999996275","","","","","2","html-slider-response","237","","","","2",""
"3151","gift","baba,nyange,pagtawag,baso","pagtawag","j","2","html-keyboard-response","238","n","baso","false","",""
"1535.0999999996275","","","","","2","html-slider-response","239","","","","4",""
"2927","train","itik,sayari,dakika,mungu","sayari","v","2","html-keyboard-response","240","j","dakika","false","",""
"2990.800000000745","","","","","2","html-slider-response","241","","","","4",""
"3151","pudding","aibu,abug,mpishi,iring","aibu","f","2","html-keyboard-response","242","v","abug","false","",""
"1478.9000000003725","","","","","2","html-slider-response","243","","","","2",""
"3943","tomato","chupi,chupa,takatak,mvua","mvua","n","2","html-keyboard-response","244","v","chupa","false","",""
"2758.5999999996275","","","","","2","html-slider-response","245","","","","3",""
"2199","stone","ulimwengu,mkasi,asili,wingi","wingi","n","2","html-keyboard-response","246","n","wingi","true","",""
"1383","","","","","2","html-slider-response","247","","","","2",""
"4143","hammer","napakyas,mekno,kitovu,layag","napakyas","f","2","html-keyboard-response","248","v","mekno","false","",""
"2022.699999999255","","","","","2","html-slider-response","249","","","","1",""
"6263","knee","mvuke,duka,kubale,bili","duka","v","2","html-keyboard-response","250","n","bili","false","",""
"1863","","","","","2","html-slider-response","251","","","","2",""
"2999","ceiling","kugita,maua,kawaida,rayna","maua","v","2","html-keyboard-response","252","v","maua","true","",""
"1566.699999999255","","","","","2","html-slider-response","253","","","","2",""
"6223","spoon","betri,pagsulod,nzuri,ngazi","pagsulod","v","2","html-keyboard-response","254","j","nzuri","false","",""
"1862.9000000003725","","","","","2","html-slider-response","255","","","","1",""
"2935","marker","mapafu,salita,atay,maji","maji","n","2","html-keyboard-response","256","v","salita","false","",""
"1478.5999999996275","","","","","2","html-slider-response","257","","","","4",""
"2831","candle","geza,gabi,farasi,kupanda","geza","f","2","html-keyboard-response","258","j","farasi","false","",""
"1478.800000000745","","","","","2","html-slider-response","259","","","","2",""
"1623","tissue","lamigas,kisiwa,ugomvi,katika","ugomvi","j","2","html-keyboard-response","260","j","ugomvi","true","",""
"1358.9000000003725","","","","","2","html-slider-response","261","","","","2",""
"5935","bridge","daima,sahani,ngono,panya","sahani","v","2","html-keyboard-response","262","n","panya","false","",""
"1326.7999999988824","","","","","2","html-slider-response","263","","","","2",""
"3775","berry","abogado,nogozi,kofia,kinywa","kofia","j","2","html-keyboard-response","264","v","nogozi","false","",""
"1775","","","","","2","html-slider-response","265","","","","4",""
"4495","triangle","kasadpan,kihozi,bentaha,liog","kasadpan","f","2","html-keyboard-response","266","v","kihozi","false","",""
"1879.0999999996275","","","","","2","html-slider-response","267","","","","2",""
"2655","door","tena,surali,soko,nyota","surali","v","2","html-keyboard-response","268","n","nyota","false","",""
"2087.2000000011176","","","","","2","html-slider-response","269","","","","4",""
"2615","fish","bala,baho,imani,buli","buli","n","2","html-keyboard-response","270","n","buli","true","",""
"1526.7999999988824","","","","","2","html-slider-response","271","","","","4",""
"3991","curtain","mchanga,lisud,bulwawan,chubani","mchanga","f","2","html-keyboard-response","272","n","chubani","false","",""
"1798.699999999255","","","","","2","html-slider-response","273","","","","2",""
"4367","flag","trekta,ndege,mkate,kawa","trekta","f","2","html-keyboard-response","274","j","mkate","false","",""
"1614.8999999985099","","","","","2","html-slider-response","275","","","","2",""
"1879","boat","agalon,hamsi,pombe,kitanda","agalon","f","2","html-keyboard-response","276","n","kitanda","false","",""
"1583","","","","","2","html-slider-response","277","","","","4",""
"2751","rose","singizi,mwanake,paghalad,amani","paghalad","j","2","html-keyboard-response","278","v","mwanake","false","",""
"1222.9000000003725","","","","","2","html-slider-response","279","","","","2",""
"3247","lamp","afya,daub,bilaska,mbolea","afya","f","2","html-keyboard-response","280","n","mbolea","false","",""
"1302.5","","","","","2","html-slider-response","281","","","","2",""
"3096","cigar","ndugu,kuta,adhabu,mlango","adhabu","j","2","html-keyboard-response","282","f","ndugu","false","",""
"3014.800000000745","","","","","2","html-slider-response","283","","","","2",""
"2263","list","alizeti,kuzama,wingu,kaso","wingu","j","2","html-keyboard-response","284","n","kaso","false","",""
"2663","","","","","2","html-slider-response","285","","","","3",""
"4927","sheet","juuya,watu,kamantis,bililhon","bililhon","n","2","html-keyboard-response","286","n","bililhon","true","",""
"2399","","","","","2","html-slider-response","287","","","","3",""
"2479","picture","silya,chaki,kubwa,asin","kubwa","j","2","html-keyboard-response","288","v","chaki","false","",""
"1454.9000000003725","","","","","2","html-slider-response","289","","","","2",""
"1879","towel","tembo,pagpalit,funzi,pito","pagpalit","v","2","html-keyboard-response","290","n","pito","false","",""
"1567","","","","","2","html-slider-response","291","","","","4",""
"4438","window","nanga,kujenga,kweli,umaga","kweli","j","2","html-keyboard-response","292","n","umaga","false","",""
"1447.199999999255","","","","","2","html-slider-response","293","","","","4",""
"3363","box","kuacha,adui,rafiki,kitande","adui","v","3","html-keyboard-response","310","j","rafiki","false","","4"
"1838.7000000011176","","","","","3","html-slider-response","311","","","","2",""
"null","","","","","3","html-keyboard-response","312","","","","",""
"3604","pants","pintal,chuki,haki,hari","haki","j","3","html-keyboard-response","313","n","hari","false","","4"
"1831","","","","","3","html-slider-response","314","","","","2",""
"null","","","","","3","html-keyboard-response","315","","","","",""
"2541","cup","dagat,matumai,shimoni,jeraha","matumai","v","3","html-keyboard-response","316","v","matumai","true","","4"
"1694.9000000003725","","","","","3","html-slider-response","317","","","","2",""
"null","","","","","3","html-keyboard-response","318","","","","",""
"2798","triangle","kihozi,kasadpan,bentaha,liog","kasadpan","v","3","html-keyboard-response","319","v","kasadpan","true","","4"
"1958.9000000003725","","","","","3","html-slider-response","320","","","","2",""
"null","","","","","3","html-keyboard-response","321","","","","",""
"96165","curtain","lisud,mchanga,bulwawan,chubani","mchanga","v","3","html-keyboard-response","322","v","mchanga","true","","4"
"2023","","","","","3","html-slider-response","323","","","","2",""
"null","","","","","3","html-keyboard-response","324","","","","",""
"2185","clock","kartasi,abang,osha,mbwa","mbwa","n","3","html-keyboard-response","325","j","osha","false","","4"
"1582.9000000003725","","","","","3","html-slider-response","326","","","","2",""
"null","","","","","3","html-keyboard-response","327","","","","",""
"2754","mirror","sulagma,rangi,kanding,furaha","sulagma","f","3","html-keyboard-response","328","f","sulagma","true","","4"
"1462.5999999996275","","","","","3","html-slider-response","329","","","","2",""
"null","","","","","3","html-keyboard-response","330","","","","",""
"1942","coffin","barua,kioo,tubag,hulma","kioo","v","3","html-keyboard-response","331","v","kioo","true","","1"
"1319.0999999996275","","","","","3","html-slider-response","332","","","","5",""
"null","","","","","3","html-keyboard-response","333","","","","",""
"4242","magazine","gundi,mchawi,bahandi,kiti","kiti","n","3","html-keyboard-response","334","j","bahandi","false","","4"
"1638.800000000745","","","","","3","html-slider-response","335","","","","2",""
"null","","","","","3","html-keyboard-response","336","","","","",""
"1908","column","pundok,dila,pala,ufagio","ufagio","n","3","html-keyboard-response","337","n","ufagio","true","","1"
"1639.4000000003725","","","","","3","html-slider-response","338","","","","5",""
"null","","","","","3","html-keyboard-response","339","","","","",""
"2655","number","mundamo,shule,kengele,choori","mundamo","f","3","html-keyboard-response","340","f","mundamo","true","","4"
"1782.9000000003725","","","","","3","html-slider-response","341","","","","2",""
"null","","","","","3","html-keyboard-response","342","","","","",""
"2374","rose","singizi,paghalad,mwanake,amani","paghalad","v","3","html-keyboard-response","343","v","paghalad","true","","4"
"1470.8999999985099","","","","","3","html-slider-response","344","","","","2",""
"null","","","","","3","html-keyboard-response","345","","","","",""
"2735","eel","msumari,ishara,kunywa,kabuang","msumari","f","3","html-keyboard-response","346","v","ishara","false","","4"
"1374.5999999996275","","","","","3","html-slider-response","347","","","","2",""
"null","","","","","3","html-keyboard-response","348","","","","",""
"3081","gift","baba,nyange,pagtawag,baso","pagtawag","j","3","html-keyboard-response","349","j","pagtawag","true","","4"
"1638.9000000003725","","","","","3","html-slider-response","350","","","","2",""
"null","","","","","3","html-keyboard-response","351","","","","",""
"2358","apple","ukame,estante,edad,kisu","kisu","n","3","html-keyboard-response","352","n","kisu","true","","1"
"2254.7000000011176","","","","","3","html-slider-response","353","","","","5",""
"null","","","","","3","html-keyboard-response","354","","","","",""
"7850","wheel","bafuni,punda,tawo,baadaye","bafuni","f","3","html-keyboard-response","355","f","bafuni","true","","1"
"2302.9000000003725","","","","","3","html-slider-response","356","","","","5",""
"null","","","","","3","html-keyboard-response","357","","","","",""
"2242","knee","duka,mvuke,kubale,bili","duka","f","3","html-keyboard-response","358","n","bili","false","","4"
"1518.9000000003725","","","","","3","html-slider-response","359","","","","4",""
"null","","","","","3","html-keyboard-response","360","","","","",""
"2753","basket","kumbuka,utepe,hasira,kumba","kumba","n","3","html-keyboard-response","361","n","kumba","true","","1"
"1494.800000000745","","","","","3","html-slider-response","362","","","","5",""
"null","","","","","3","html-keyboard-response","363","","","","",""
"3278","park","tambok,pwani,ihalas,bunifu","bunifu","n","3","html-keyboard-response","364","f","tambok","false","","4"
"1406.7999999988824","","","","","3","html-slider-response","365","","","","4",""
"null","","","","","3","html-keyboard-response","366","","","","",""
"2573","finger","moyo,simu,sufuria,lima","moyo","f","3","html-keyboard-response","367","f","moyo","true","","4"
"1799.5","","","","","3","html-slider-response","368","","","","2",""
"null","","","","","3","html-keyboard-response","369","","","","",""
"2549","boat","hamsi,pombe,agalon,kitanda","agalon","j","3","html-keyboard-response","370","j","agalon","true","","4"
"1454.9000000003725","","","","","3","html-slider-response","371","","","","4",""
"null","","","","","3","html-keyboard-response","372","","","","",""
"3071","hill","kushoto,matumbo,kukimba,sweta","matumbo","v","3","html-keyboard-response","373","n","sweta","false","","4"
"1479","","","","","3","html-slider-response","374","","","","4",""
"null","","","","","3","html-keyboard-response","375","","","","",""
"2621","train","sayari,itik,dakika,mungu","sayari","f","3","html-keyboard-response","376","v","itik","false","","4"
"1726.9000000003725","","","","","3","html-slider-response","377","","","","4",""
"null","","","","","3","html-keyboard-response","378","","","","",""
"4494","wolf","kaburi,lugha,ndizi,mchuzi","lugha","v","3","html-keyboard-response","379","j","ndizi","false","","4"
"1526.2000000011176","","","","","3","html-slider-response","380","","","","2",""
"null","","","","","3","html-keyboard-response","381","","","","",""
"3802","snake","jansa,karon,pagtukod,mvringo","pagtukod","j","3","html-keyboard-response","382","v","karon","false","","4"
"1879","","","","","3","html-slider-response","383","","","","4",""
"null","","","","","3","html-keyboard-response","384","","","","",""
"2838","tooth","kijiko,uadui,pahiyum,kabalaka","kabalaka","n","3","html-keyboard-response","385","v","uadui","false","","4"
"2102.89999999851","","","","","3","html-slider-response","386","","","","2",""
"null","","","","","3","html-keyboard-response","387","","","","",""
"2438","notebook","kemia,msitu,kila,mdudu","kemia","f","3","html-keyboard-response","388","f","kemia","true","","4"
"1463","","","","","3","html-slider-response","389","","","","2",""
"null","","","","","3","html-keyboard-response","390","","","","",""
"3037","flag","ndege,trekta,mkate,kawa","trekta","v","3","html-keyboard-response","391","v","trekta","true","","4"
"1686.9000000003725","","","","","3","html-slider-response","392","","","","2",""
"null","","","","","3","html-keyboard-response","393","","","","",""
"4161","squirrel","mahugaw,ukweli,hofu,kichwa","hofu","j","3","html-keyboard-response","394","f","mahugaw","false","","4"
"1647.199999999255","","","","","3","html-slider-response","395","","","","2",""
"null","","","","","3","html-keyboard-response","396","","","","",""
"2166","door","tena,soko,nyota,surali","surali","n","3","html-keyboard-response","397","j","nyota","false","","4"
"1774.8999999985099","","","","","3","html-slider-response","398","","","","2",""
"null","","","","","3","html-keyboard-response","399","","","","",""
"3246","salmon","mzungu,sensilyo,seri,baharia","sensilyo","v","3","html-keyboard-response","400","v","sensilyo","true","","4"
"1510.7999999988824","","","","","3","html-slider-response","401","","","","2",""
"null","","","","","3","html-keyboard-response","402","","","","",""
"2985","shoulder","mkuu,kelele,ndaniya,guruwe","mkuu","f","3","html-keyboard-response","403","v","kelele","false","","4"
"1326.300000000745","","","","","3","html-slider-response","404","","","","2",""
"null","","","","","3","html-keyboard-response","405","","","","",""
"3315","lamp","afya,daub,bilaska,mbolea","afya","f","3","html-keyboard-response","406","n","mbolea","false","","4"
"1758.7999999988824","","","","","3","html-slider-response","407","","","","4",""
"null","","","","","3","html-keyboard-response","408","","","","",""
"2653","shelf","bungtod,kadaot,pamahaw,awit","pamahaw","j","3","html-keyboard-response","409","j","pamahaw","true","","1"
"2095.0999999996275","","","","","3","html-slider-response","410","","","","5",""
"null","","","","","3","html-keyboard-response","411","","","","",""
"3118","human","bado,kikapu,tinapay,punguza","tinapay","j","3","html-keyboard-response","412","j","tinapay","true","","4"
"1918.8999999985099","","","","","3","html-slider-response","413","","","","2",""
"null","","","","","3","html-keyboard-response","414","","","","",""
"2327","towel","tembo,funzi,pagpalit,pito","pagpalit","j","3","html-keyboard-response","415","n","pito","false","","4"
"1422.699999999255","","","","","3","html-slider-response","416","","","","2",""
"null","","","","","3","html-keyboard-response","417","","","","",""
"3318","cat","neyemba,paghukom,baki,akili","paghukom","v","3","html-keyboard-response","418","f","neyemba","false","","4"
"1694.8999999985099","","","","","3","html-slider-response","419","","","","2",""
"null","","","","","3","html-keyboard-response","420","","","","",""
"3774","spider","bunyag,kamwe,mkboa,atop","kamwe","v","3","html-keyboard-response","421","v","kamwe","true","","4"
"1710.7999999988824","","","","","3","html-slider-response","422","","","","5",""
"null","","","","","3","html-keyboard-response","423","","","","",""
"3662","window","nanga,kweli,kujenga,umaga","kweli","v","3","html-keyboard-response","424","v","kweli","true","","4"
"1478.7999999988824","","","","","3","html-slider-response","425","","","","2",""
"null","","","","","3","html-keyboard-response","426","","","","",""
"2814","woman","bandari,bituin,kovuli,pagtabon","pagtabon","n","3","html-keyboard-response","427","n","pagtabon","true","","1"
"2079","","","","","3","html-slider-response","428","","","","5",""
"null","","","","","3","html-keyboard-response","429","","","","",""
"3230","giraffe","daraja,jumatu,hangyo,mahitabo","mahitabo","n","3","html-keyboard-response","430","f","daraja","false","","4"
"2526.9000000003725","","","","","3","html-slider-response","431","","","","3",""
"null","","","","","3","html-keyboard-response","432","","","","",""
"2345","elephant","petye,kito,pagduol,suka","kito","v","3","html-keyboard-response","433","v","kito","true","","4"
"2406.699999999255","","","","","3","html-slider-response","434","","","","4",""
"null","","","","","3","html-keyboard-response","435","","","","",""
"2662","cave","kesho,ganti,maisha,nyundo","kesho","f","3","html-keyboard-response","436","v","ganti","false","","4"
"2422.7999999988824","","","","","3","html-slider-response","437","","","","4",""
"null","","","","","3","html-keyboard-response","438","","","","",""
"3199","bread","kaili,dizeli,dari,bugas","dari","j","3","html-keyboard-response","439","j","dari","true","","4"
"1814.699999999255","","","","","3","html-slider-response","440","","","","4",""
"null","","","","","3","html-keyboard-response","441","","","","",""
"3191","stone","ulimwengu,wingi,mkasi,asili","wingi","v","3","html-keyboard-response","442","v","wingi","true","","4"
"1814.8999999985099","","","","","3","html-slider-response","443","","","","4",""
"null","","","","","3","html-keyboard-response","444","","","","",""
"2601","donkey","elfu,bloke,lalake,rombus","elfu","f","3","html-keyboard-response","445","n","rombus","false","","4"
"2118.7999999988824","","","","","3","html-slider-response","446","","","","2",""
"null","","","","","3","html-keyboard-response","447","","","","",""
"3611","bridge","daima,ngono,sahani,panya","sahani","j","3","html-keyboard-response","448","n","panya","false","","4"
"3014.7999999988824","","","","","3","html-slider-response","449","","","","3",""
"null","","","","","3","html-keyboard-response","450","","","","",""
"2221","bonfire","mwezi,mfuko,kusanya,goti","goti","n","3","html-keyboard-response","451","n","goti","true","","4"
"2158.89999999851","","","","","3","html-slider-response","452","","","","5",""
"null","","","","","3","html-keyboard-response","453","","","","",""
"4680","book","mali,kuhesa,picha,mara","mali","f","3","html-keyboard-response","454","f","mali","true","","4"
"2214.5999999996275","","","","","3","html-slider-response","455","","","","5",""
"null","","","","","3","html-keyboard-response","456","","","","",""
"4576","fish","buli,bala,baho,imani","buli","f","3","html-keyboard-response","457","j","baho","false","","4"
"1999","","","","","3","html-slider-response","458","","","","2",""
"null","","","","","3","html-keyboard-response","459","","","","",""
"3376","spoon","pagsulod,betri,nzuri,ngazi","pagsulod","f","3","html-keyboard-response","460","f","pagsulod","true","","4"
"1430.7999999988824","","","","","3","html-slider-response","461","","","","4",""
"null","","","","","3","html-keyboard-response","462","","","","",""
"3638","scissors","duga,mtawa,tanuri,suga","tanuri","j","3","html-keyboard-response","463","v","mtawa","false","","4"
"1382.7999999988824","","","","","3","html-slider-response","464","","","","2",""
"null","","","","","3","html-keyboard-response","465","","","","",""
"4565","page","wakala,ishiri,wimbo,skina","wimbo","j","3","html-keyboard-response","466","v","ishiri","false","","4"
"1230.9000000003725","","","","","3","html-slider-response","467","","","","2",""
"null","","","","","3","html-keyboard-response","468","","","","",""
"3461","nose","sehemu,gubat,kopa,kidole","sehemu","f","3","html-keyboard-response","469","f","sehemu","true","","1"
"1534.7999999988824","","","","","3","html-slider-response","470","","","","5",""
"null","","","","","3","html-keyboard-response","471","","","","",""
"3051","ceiling","kugita,maua,kawaida,rayna","maua","v","3","html-keyboard-response","472","v","maua","true","","4"
"1518.7999999988824","","","","","3","html-slider-response","473","","","","2",""
"null","","","","","3","html-keyboard-response","474","","","","",""
"3269","bucket","baga,ijayo,init,kiatu","kiatu","n","3","html-keyboard-response","475","n","kiatu","true","","4"
"1462.699999999255","","","","","3","html-slider-response","476","","","","4",""
"null","","","","","3","html-keyboard-response","477","","","","",""
"4493","berry","abogado,kofia,nogozi,kinywa","kofia","v","3","html-keyboard-response","478","v","kofia","true","","1"
"1918.9000000003725","","","","","3","html-slider-response","479","","","","5",""
"null","","","","","3","html-keyboard-response","480","","","","",""
"2102","mother","babaye,kahawa,mbuzi,jokofu","babaye","f","3","html-keyboard-response","481","f","babaye","true","","1"
"1670.7000000011176","","","","","3","html-slider-response","482","","","","5",""
"null","","","","","3","html-keyboard-response","483","","","","",""
"2543","mosquito","isda,taras,gutom,martilyo","martilyo","n","3","html-keyboard-response","484","n","martilyo","true","","4"
"1638.9000000003725","","","","","3","html-slider-response","485","","","","4",""
"null","","","","","3","html-keyboard-response","486","","","","",""
"3823","perfume","bino,sungura,katuyoan,ndogo","katuyoan","j","3","html-keyboard-response","487","j","katuyoan","true","","4"
"1542.7999999988824","","","","","3","html-slider-response","488","","","","5",""
"null","","","","","3","html-keyboard-response","489","","","","",""
"3046","sheet","bililhon,juuya,watu,kamantis","bililhon","f","3","html-keyboard-response","490","f","bililhon","true","","4"
"1590.5999999996275","","","","","3","html-slider-response","491","","","","4",""
"null","","","","","3","html-keyboard-response","492","","","","",""
"4295","puppet","mazishi,napulo,lamok,godoro","mazishi","f","3","html-keyboard-response","493","f","mazishi","true","","1"
"1838.9000000003725","","","","","3","html-slider-response","494","","","","5",""
"null","","","","","3","html-keyboard-response","495","","","","",""
"3029","poster","nchi,madungog,fedha,kasuko","madungog","v","3","html-keyboard-response","496","j","fedha","false","","4"
"1510.9000000003725","","","","","3","html-slider-response","497","","","","2",""
"null","","","","","3","html-keyboard-response","498","","","","",""
"5741","music","mraba,baiski,mageho,tumbo","baiski","v","3","html-keyboard-response","499","v","baiski","true","","4"
"1286.800000000745","","","","","3","html-slider-response","500","","","","2",""
"null","","","","","3","html-keyboard-response","501","","","","",""
"4102","key","miaka,chombo,goma,ahos","chombo","v","3","html-keyboard-response","502","j","goma","false","","4"
"1366.7000000011176","","","","","3","html-slider-response","503","","","","2",""
"null","","","","","3","html-keyboard-response","504","","","","",""
"4510","sock","ndoora,kimysa,mtirka,mamba","mamba","n","3","html-keyboard-response","505","f","ndoora","false","","4"
"1718.5","","","","","3","html-slider-response","506","","","","2",""
"null","","","","","3","html-keyboard-response","507","","","","",""
"4405","marker","maji,mapafu,salita,atay","maji","f","3","html-keyboard-response","508","v","mapafu","false","","4"
"1454.800000000745","","","","","3","html-slider-response","509","","","","4",""
"null","","","","","3","html-keyboard-response","510","","","","",""
"3982","office","hazini,yatima,kuna,leso","leso","n","3","html-keyboard-response","511","f","hazini","false","","4"
"1519.300000000745","","","","","3","html-slider-response","512","","","","4",""
"null","","","","","3","html-keyboard-response","513","","","","",""
"3197","shoe","uyoga,nyeusi,hatua,kama","uyoga","f","3","html-keyboard-response","514","n","kama","false","","4"
"1374.9000000003725","","","","","3","html-slider-response","515","","","","2",""
"null","","","","","3","html-keyboard-response","516","","","","",""
"3725","cop","bustani,jikoni,mechezo,bakus","mechezo","j","3","html-keyboard-response","517","j","mechezo","true","","4"
"2078.7999999988824","","","","","3","html-slider-response","518","","","","5",""
"null","","","","","3","html-keyboard-response","519","","","","",""
"2775","bank","kudhibi,tualya,ofisi,silingan","silingan","n","3","html-keyboard-response","520","n","silingan","true","","4"
"1630.699999999255","","","","","3","html-slider-response","521","","","","4",""
"null","","","","","3","html-keyboard-response","522","","","","",""
"1687","letter","filimbi,chuma,kifua,uhuru","kifua","j","3","html-keyboard-response","523","j","kifua","true","","1"
"1974.800000000745","","","","","3","html-slider-response","524","","","","5",""
"null","","","","","3","html-keyboard-response","525","","","","",""
"3025","dog","lubi,bahari,washia,kalamu","bahari","v","3","html-keyboard-response","526","v","bahari","true","","1"
"1383.199999999255","","","","","3","html-slider-response","527","","","","5",""
"null","","","","","3","html-keyboard-response","528","","","","",""
"3150","shop","nopya,kerida,ndezu,samaki","samaki","n","3","html-keyboard-response","529","n","samaki","true","","4"
"1462.800000000745","","","","","3","html-slider-response","530","","","","4",""
"null","","","","","3","html-keyboard-response","531","","","","",""
"2738","flower","tamasha,lobo,usiku,bega","bega","n","3","html-keyboard-response","532","f","tamasha","false","","4"
"1374.5999999996275","","","","","3","html-slider-response","533","","","","4",""
"null","","","","","3","html-keyboard-response","534","","","","",""
"3837","cigar","adhabu,ndugu,kuta,mlango","adhabu","f","3","html-keyboard-response","535","f","adhabu","true","","1"
"1735.0999999996275","","","","","3","html-slider-response","536","","","","5",""
"null","","","","","3","html-keyboard-response","537","","","","",""
"5297","hammer","napakyas,mekno,kitovu,layag","napakyas","f","3","html-keyboard-response","538","j","kitovu","false","","4"
"1366.800000000745","","","","","3","html-slider-response","539","","","","4",""
"null","","","","","3","html-keyboard-response","540","","","","",""
"3839","fork","baboy,paghago,mgonjwa,gorisi","mgonjwa","j","3","html-keyboard-response","541","j","mgonjwa","true","","4"
"1838.699999999255","","","","","3","html-slider-response","542","","","","4",""
"null","","","","","3","html-keyboard-response","543","","","","",""
"2293","sun","bendi,basi,luha,uongo","basi","v","3","html-keyboard-response","544","v","basi","true","","1"
"1846.9000000003725","","","","","3","html-slider-response","545","","","","5",""
"null","","","","","3","html-keyboard-response","546","","","","",""
"2182","ladder","mashua,mwanga,pangalan,kamba","pangalan","j","3","html-keyboard-response","547","j","pangalan","true","","4"
"1439.0999999996275","","","","","3","html-slider-response","548","","","","5",""
"null","","","","","3","html-keyboard-response","549","","","","",""
"2752","banana","kasamok,hagdan,twai,kazi","kazi","n","3","html-keyboard-response","550","n","kazi","true","","1"
"1846.800000000745","","","","","3","html-slider-response","551","","","","5",""
"null","","","","","3","html-keyboard-response","552","","","","",""
"3028","pudding","abug,mpishi,aibu,iring","aibu","j","3","html-keyboard-response","553","v","mpishi","false","","4"
"2078.9000000003725","","","","","3","html-slider-response","554","","","","4",""
"null","","","","","3","html-keyboard-response","555","","","","",""
"3627","body","nyundu,jibini,kununa,tindashan","tindashan","n","3","html-keyboard-response","556","n","tindashan","true","","4"
"1462.9000000003725","","","","","3","html-slider-response","557","","","","4",""
"null","","","","","3","html-keyboard-response","558","","","","",""
"3158","bed","mapintas,kalipay,haraka,starehe","mapintas","f","3","html-keyboard-response","559","f","mapintas","true","","4"
"1438.800000000745","","","","","3","html-slider-response","560","","","","4",""
"null","","","","","3","html-keyboard-response","561","","","","",""
"3475","tissue","ugomvi,lamigas,kisiwa,katika","ugomvi","f","3","html-keyboard-response","562","j","kisiwa","false","","4"
"2454.5999999996275","","","","","3","html-slider-response","563","","","","3",""
"null","","","","","3","html-keyboard-response","564","","","","",""
"3320","candle","gabi,geza,farasi,kupanda","geza","v","3","html-keyboard-response","565","v","geza","true","","4"
"1422.7000000011176","","","","","3","html-slider-response","566","","","","2",""
"null","","","","","3","html-keyboard-response","567","","","","",""
"2630","tomato","chupi,mvua,chupa,takatak","mvua","v","3","html-keyboard-response","568","v","mvua","true","","1"
"1638.800000000745","","","","","3","html-slider-response","569","","","","5",""
"null","","","","","3","html-keyboard-response","570","","","","",""
"1926","list","alizeti,kuzama,wingu,kaso","wingu","j","3","html-keyboard-response","571","j","wingu","true","","4"
"1430.5","","","","","3","html-slider-response","572","","","","4",""
"null","","","","","3","html-keyboard-response","573","","","","",""
"2966","olive","bata,siagi,jiwe,welder","jiwe","j","3","html-keyboard-response","574","j","jiwe","true","","4"
"1527","","","","","3","html-slider-response","575","","","","2",""
"null","","","","","3","html-keyboard-response","576","","","","",""
"2454","picture","silya,kubwa,chaki,asin","kubwa","v","3","html-keyboard-response","577","v","kubwa","true","","1"
"3254.9000000003725","","","","","3","html-slider-response","578","","","","5",""
"null","","","","","3","html-keyboard-response","579","","","","",""
