"rt","en_word","options","swa_word","correct_answer","phase","trial_type","trial_index","input_answer","input_word","accuracy","certainty","amt_choices"
"2742","bonfire","mwezi,mfuko,kusanya,goti","goti","n","2","html-keyboard-response","114","n","goti","true","",""
"5612.099999904633","","","","","2","html-slider-response","115","","","","4",""
"3111","flower","tamasha,lobo,bega,usiku","bega","j","2","html-keyboard-response","116","j","bega","true","",""
"3244.2000000476837","","","","","2","html-slider-response","117","","","","4",""
"6396","column","ufagio,pundok,dila,pala","ufagio","f","2","html-keyboard-response","118","f","ufagio","true","",""
"3884.1999999284744","","","","","2","html-slider-response","119","","","","4",""
"2727","music","mraba,mageho,baiski,tumbo","baiski","j","2","html-keyboard-response","120","j","baiski","true","",""
"2339","","","","","2","html-slider-response","121","","","","4",""
"6243","spider","bunyag,kamwe,mkboa,atop","kamwe","v","2","html-keyboard-response","122","j","mkboa","false","",""
"2957","","","","","2","html-slider-response","123","","","","2",""
"3775","fork","baboy,mgonjwa,paghago,gorisi","mgonjwa","v","2","html-keyboard-response","124","v","mgonjwa","true","",""
"3701.7999999523163","","","","","2","html-slider-response","125","","","","2",""
"3466","mosquito","martilyo,isda,taras,gutom","martilyo","f","2","html-keyboard-response","126","f","martilyo","true","",""
"2827","","","","","2","html-slider-response","127","","","","4",""
"2695","banana","kasamok,hagdan,kazi,twai","kazi","j","2","html-keyboard-response","128","j","kazi","true","",""
"3299.100000023842","","","","","2","html-slider-response","129","","","","2",""
"5352","cup","dagat,shimoni,jeraha,matumai","matumai","n","2","html-keyboard-response","130","n","matumai","true","",""
"5323.200000047684","","","","","2","html-slider-response","131","","","","2",""
"6887","shop","nopya,kerida,ndezu,samaki","samaki","n","2","html-keyboard-response","132","n","samaki","true","",""
"4728.200000047684","","","","","2","html-slider-response","133","","","","2",""
"3978","elephant","kito,petye,pagduol,suka","kito","f","2","html-keyboard-response","134","f","kito","true","",""
"3114.7999999523163","","","","","2","html-slider-response","135","","","","4",""
"4285","bucket","kiatu,baga,ijayo,init","kiatu","f","2","html-keyboard-response","136","v","baga","false","",""
"4939.700000047684","","","","","2","html-slider-response","137","","","","2",""
"7039","book","kuhesa,picha,mali,mara","mali","j","2","html-keyboard-response","138","j","mali","true","",""
"3953","","","","","2","html-slider-response","139","","","","4",""
"2745","mirror","rangi,kanding,furaha,sulagma","sulagma","n","2","html-keyboard-response","140","n","sulagma","true","",""
"2577.5","","","","","2","html-slider-response","141","","","","4",""
"4572","office","hazini,yatima,leso,kuna","leso","j","2","html-keyboard-response","142","f","hazini","false","",""
"2955.600000023842","","","","","2","html-slider-response","143","","","","2",""
"4428","body","tindashan,nyundu,jibini,kununa","tindashan","f","2","html-keyboard-response","144","n","kununa","false","",""
"3018.5","","","","","2","html-slider-response","145","","","","2",""
"5413","perfume","bino,sungura,katuyoan,ndogo","katuyoan","j","2","html-keyboard-response","146","v","sungura","false","",""
"2300.2999999523163","","","","","2","html-slider-response","147","","","","2",""
"3409","olive","jiwe,bata,siagi,welder","jiwe","f","2","html-keyboard-response","148","f","jiwe","true","",""
"3527.600000023842","","","","","2","html-slider-response","149","","","","4",""
"4977","magazine","gundi,mchawi,bahandi,kiti","kiti","n","2","html-keyboard-response","150","n","kiti","true","",""
"2875.899999976158","","","","","2","html-slider-response","151","","","","2",""
"2673","bread","dari,kaili,dizeli,bugas","dari","f","2","html-keyboard-response","152","f","dari","true","",""
"2618.399999976158","","","","","2","html-slider-response","153","","","","4",""
"3736","cave","kesho,ganti,maisha,nyundo","kesho","f","2","html-keyboard-response","154","f","kesho","true","",""
"2814.399999976158","","","","","2","html-slider-response","155","","","","2",""
"3322","ladder","mashua,mwanga,kamba,pangalan","pangalan","n","2","html-keyboard-response","156","n","pangalan","true","",""
"3338.5","","","","","2","html-slider-response","157","","","","5",""
"5794","human","bado,kikapu,punguza,tinapay","tinapay","n","2","html-keyboard-response","158","n","tinapay","true","",""
"2931.7999999523163","","","","","2","html-slider-response","159","","","","4",""
"4345","clock","kartasi,abang,mbwa,osha","mbwa","j","2","html-keyboard-response","160","j","mbwa","true","",""
"2552.600000023842","","","","","2","html-slider-response","161","","","","4",""
"5413","shelf","pamahaw,bungtod,kadaot,awit","pamahaw","f","2","html-keyboard-response","162","f","pamahaw","true","",""
"2789.100000023842","","","","","2","html-slider-response","163","","","","4",""
"2589","salmon","mzungu,seri,baharia,sensilyo","sensilyo","n","2","html-keyboard-response","164","n","sensilyo","true","",""
"3029","","","","","2","html-slider-response","165","","","","4",""
"5062","coffin","barua,kioo,tubag,hulma","kioo","v","2","html-keyboard-response","166","j","tubag","false","",""
"4185.300000071526","","","","","2","html-slider-response","167","","","","2",""
"5403","notebook","msitu,kemia,kila,mdudu","kemia","v","2","html-keyboard-response","168","n","mdudu","false","",""
"2133.2000000476837","","","","","2","html-slider-response","169","","","","2",""
"4373","shoulder","kelele,ndaniya,guruwe,mkuu","mkuu","n","2","html-keyboard-response","170","n","mkuu","true","",""
"1805.8999999761581","","","","","2","html-slider-response","171","","","","4",""
"3842","park","tambok,pwani,bunifu,ihalas","bunifu","j","2","html-keyboard-response","172","j","bunifu","true","",""
"5179.100000023842","","","","","2","html-slider-response","173","","","","2",""
"6904","number","mundamo,shule,kengele,choori","mundamo","f","2","html-keyboard-response","174","f","mundamo","true","",""
"10052.199999928474","","","","","2","html-slider-response","175","","","","2",""
"3691","apple","ukame,kisu,estante,edad","kisu","v","2","html-keyboard-response","176","v","kisu","true","",""
"2455.399999976158","","","","","2","html-slider-response","177","","","","4",""
"5434","letter","filimbi,chuma,kifua,uhuru","kifua","j","2","html-keyboard-response","178","j","kifua","true","",""
"2701.600000023842","","","","","2","html-slider-response","179","","","","2",""
"2676","eel","msumari,ishara,kunywa,kabuang","msumari","f","2","html-keyboard-response","180","f","msumari","true","",""
"18215.800000071526","","","","","2","html-slider-response","181","","","","4",""
"3916","cop","mechezo,bustani,jikoni,bakus","mechezo","f","2","html-keyboard-response","182","j","jikoni","false","",""
"2829.399999976158","","","","","2","html-slider-response","183","","","","2",""
"3542","wolf","kaburi,lugha,ndizi,mchuzi","lugha","v","2","html-keyboard-response","184","f","kaburi","false","",""
"2679.100000023842","","","","","2","html-slider-response","185","","","","2",""
"4031","squirrel","mahugaw,ukweli,hofu,kichwa","hofu","j","2","html-keyboard-response","186","n","kichwa","false","",""
"2305.100000023842","","","","","2","html-slider-response","187","","","","2",""
"3816","nose","gubat,kopa,kidole,sehemu","sehemu","n","2","html-keyboard-response","188","n","sehemu","true","",""
"2387.1999999284744","","","","","2","html-slider-response","189","","","","4",""
"3844","sock","ndoora,mamba,kimysa,mtirka","mamba","v","2","html-keyboard-response","190","v","mamba","true","",""
"1682.6999999284744","","","","","2","html-slider-response","191","","","","4",""
"3478","bank","kudhibi,silingan,tualya,ofisi","silingan","v","2","html-keyboard-response","192","j","tualya","false","",""
"1774.1999999284744","","","","","2","html-slider-response","193","","","","2",""
"3350","donkey","bloke,lalake,rombus,elfu","elfu","n","2","html-keyboard-response","194","n","elfu","true","",""
"2203.2000000476837","","","","","2","html-slider-response","195","","","","4",""
"4011","poster","nchi,madungog,fedha,kasuko","madungog","v","2","html-keyboard-response","196","n","kasuko","false","",""
"2485.8000000715256","","","","","2","html-slider-response","197","","","","2",""
"3743","puppet","napulo,lamok,godoro,mazishi","mazishi","n","2","html-keyboard-response","198","j","godoro","false","",""
"1930.2000000476837","","","","","2","html-slider-response","199","","","","2",""
"3847","hill","kushoto,matumbo,kukimba,sweta","matumbo","v","2","html-keyboard-response","200","j","kukimba","false","",""
"1806.8000000715256","","","","","2","html-slider-response","201","","","","2",""
"4599","tooth","kabalaka,kijiko,uadui,pahiyum","kabalaka","f","2","html-keyboard-response","202","v","kijiko","false","",""
"2610.3000000715256","","","","","2","html-slider-response","203","","","","2",""
"4195","woman","pagtabon,bandari,bituin,kovuli","pagtabon","f","2","html-keyboard-response","204","f","pagtabon","true","",""
"2432.2999999523163","","","","","2","html-slider-response","205","","","","2",""
"3310","wheel","bafuni,punda,tawo,baadaye","bafuni","f","2","html-keyboard-response","206","v","punda","false","",""
"2377.9000000953674","","","","","2","html-slider-response","207","","","","2",""
"3250","mother","kahawa,babaye,mbuzi,jokofu","babaye","v","2","html-keyboard-response","208","v","babaye","true","",""
"2805.1999999284744","","","","","2","html-slider-response","209","","","","2",""
"5015","bed","mapintas,kalipay,haraka,starehe","mapintas","f","2","html-keyboard-response","210","j","haraka","false","",""
"2842.3000000715256","","","","","2","html-slider-response","211","","","","4",""
"3278","key","miaka,goma,ahos,chombo","chombo","n","2","html-keyboard-response","212","v","goma","false","",""
"2688.100000023842","","","","","2","html-slider-response","213","","","","2",""
"3432","page","wakala,ishiri,skina,wimbo","wimbo","n","2","html-keyboard-response","214","n","wimbo","true","",""
"2837.399999976158","","","","","2","html-slider-response","215","","","","2",""
"2163","pants","pintal,chuki,haki,hari","haki","j","2","html-keyboard-response","216","n","hari","false","",""
"1764.3999999761581","","","","","2","html-slider-response","217","","","","2",""
"3199","sun","bendi,luha,uongo,basi","basi","n","2","html-keyboard-response","218","n","basi","true","",""
"2109","","","","","2","html-slider-response","219","","","","4",""
"3361","finger","moyo,simu,sufuria,lima","moyo","f","2","html-keyboard-response","220","n","lima","false","",""
"2100.6999999284744","","","","","2","html-slider-response","221","","","","2",""
"3407","shoe","uyoga,nyeusi,hatua,kama","uyoga","f","2","html-keyboard-response","222","f","uyoga","true","",""
"2521.100000023842","","","","","2","html-slider-response","223","","","","2",""
"3941","giraffe","mahitabo,daraja,jumatu,hangyo","mahitabo","f","2","html-keyboard-response","224","j","jumatu","false","",""
"3176.2000000476837","","","","","2","html-slider-response","225","","","","4",""
"6466","dog","bahari,lubi,washia,kalamu","bahari","f","2","html-keyboard-response","226","f","bahari","true","",""
"2892","","","","","2","html-slider-response","227","","","","2",""
"5703","box","kuacha,rafiki,adui,kitande","adui","j","2","html-keyboard-response","228","f","kuacha","false","",""
"2177.399999976158","","","","","2","html-slider-response","229","","","","2",""
"6199","scissors","duga,mtawa,tanuri,suga","tanuri","j","2","html-keyboard-response","230","j","tanuri","true","",""
"8733.100000023842","","","","","2","html-slider-response","231","","","","2",""
"4884","cat","neyemba,baki,paghukom,akili","paghukom","j","2","html-keyboard-response","232","v","baki","false","",""
"2259.899999976158","","","","","2","html-slider-response","233","","","","4",""
"3446","basket","kumba,kumbuka,utepe,hasira","kumba","f","2","html-keyboard-response","234","j","utepe","false","",""
"2998.3000000715256","","","","","2","html-slider-response","235","","","","4",""
"5582","snake","jansa,pagtukod,karon,mvringo","pagtukod","v","2","html-keyboard-response","236","n","mvringo","false","",""
"2563.8000000715256","","","","","2","html-slider-response","237","","","","4",""
"3522","gift","pagtawag,baba,nyange,baso","pagtawag","f","2","html-keyboard-response","238","j","nyange","false","",""
"3076.3000000715256","","","","","2","html-slider-response","239","","","","2",""
"2864","train","itik,dakika,sayari,mungu","sayari","j","2","html-keyboard-response","240","n","mungu","false","",""
"2173.2000000476837","","","","","2","html-slider-response","241","","","","2",""
"3881","pudding","abug,aibu,mpishi,iring","aibu","v","2","html-keyboard-response","242","v","aibu","true","",""
"1792.1999999284744","","","","","2","html-slider-response","243","","","","2",""
"4836","tomato","chupi,mvua,chupa,takatak","mvua","v","2","html-keyboard-response","244","v","mvua","true","",""
"2605.100000023842","","","","","2","html-slider-response","245","","","","4",""
"2670","stone","wingi,ulimwengu,mkasi,asili","wingi","f","2","html-keyboard-response","246","n","asili","false","",""
"1637.4000000953674","","","","","2","html-slider-response","247","","","","2",""
"3657","hammer","napakyas,mekno,kitovu,layag","napakyas","f","2","html-keyboard-response","248","f","napakyas","true","",""
"2135","","","","","2","html-slider-response","249","","","","4",""
"5666","knee","mvuke,duka,kubale,bili","duka","v","2","html-keyboard-response","250","n","bili","false","",""
"3361.2999999523163","","","","","2","html-slider-response","251","","","","2",""
"5312","ceiling","kugita,kawaida,maua,rayna","maua","j","2","html-keyboard-response","252","v","kawaida","false","",""
"1781.6000000238419","","","","","2","html-slider-response","253","","","","4",""
"4141","spoon","pagsulod,betri,nzuri,ngazi","pagsulod","f","2","html-keyboard-response","254","n","ngazi","false","",""
"2881.7999999523163","","","","","2","html-slider-response","255","","","","2",""
"4468","marker","mapafu,salita,atay,maji","maji","n","2","html-keyboard-response","256","n","maji","true","",""
"1697.1000000238419","","","","","2","html-slider-response","257","","","","2",""
"2074","candle","gabi,farasi,kupanda,geza","geza","n","2","html-keyboard-response","258","n","geza","true","",""
"2131.2999999523163","","","","","2","html-slider-response","259","","","","4",""
"12030","tissue","ugomvi,lamigas,kisiwa,katika","ugomvi","f","2","html-keyboard-response","260","f","ugomvi","true","",""
"24881.100000023842","","","","","2","html-slider-response","261","","","","2",""
"14359","bridge","daima,sahani,ngono,panya","sahani","v","2","html-keyboard-response","262","v","sahani","true","",""
"2259.2000000476837","","","","","2","html-slider-response","263","","","","4",""
"6158","berry","abogado,nogozi,kinywa,kofia","kofia","n","2","html-keyboard-response","264","v","nogozi","false","",""
"2451.100000023842","","","","","2","html-slider-response","265","","","","4",""
"3997","triangle","kihozi,bentaha,liog,kasadpan","kasadpan","n","2","html-keyboard-response","266","n","kasadpan","true","",""
"1865.2999999523163","","","","","2","html-slider-response","267","","","","4",""
"3729","door","tena,soko,surali,nyota","surali","j","2","html-keyboard-response","268","j","surali","true","",""
"1565.1999999284744","","","","","2","html-slider-response","269","","","","4",""
"4360","fish","bala,baho,buli,imani","buli","j","2","html-keyboard-response","270","f","bala","false","",""
"2596.899999976158","","","","","2","html-slider-response","271","","","","2",""
"18842","curtain","mchanga,lisud,bulwawan,chubani","mchanga","f","2","html-keyboard-response","272","n","chubani","false","",""
"4059","","","","","2","html-slider-response","273","","","","4",""
"3630","flag","trekta,ndege,mkate,kawa","trekta","f","2","html-keyboard-response","274","v","ndege","false","",""
"3654.0999999046326","","","","","2","html-slider-response","275","","","","4",""
"3733","boat","agalon,hamsi,pombe,kitanda","agalon","f","2","html-keyboard-response","276","n","kitanda","false","",""
"2123.100000023842","","","","","2","html-slider-response","277","","","","2",""
"3506","rose","singizi,mwanake,paghalad,amani","paghalad","j","2","html-keyboard-response","278","j","paghalad","true","",""
"3631.399999976158","","","","","2","html-slider-response","279","","","","2",""
"5795","lamp","daub,bilaska,afya,mbolea","afya","j","2","html-keyboard-response","280","n","mbolea","false","",""
"2586.8000000715256","","","","","2","html-slider-response","281","","","","2",""
"3715","cigar","ndugu,kuta,mlango,adhabu","adhabu","n","2","html-keyboard-response","282","v","kuta","false","",""
"1628.3000000715256","","","","","2","html-slider-response","283","","","","2",""
"6828","list","wingu,alizeti,kuzama,kaso","wingu","f","2","html-keyboard-response","284","f","wingu","true","",""
"1628.1000000238419","","","","","2","html-slider-response","285","","","","2",""
"4094","sheet","juuya,bililhon,watu,kamantis","bililhon","v","2","html-keyboard-response","286","n","kamantis","false","",""
"1564.6000000238419","","","","","2","html-slider-response","287","","","","2",""
"3657","picture","silya,chaki,asin,kubwa","kubwa","n","2","html-keyboard-response","288","v","chaki","false","",""
"1630.2999999523163","","","","","2","html-slider-response","289","","","","2",""
"11881","towel","tembo,funzi,pagpalit,pito","pagpalit","j","2","html-keyboard-response","290","j","pagpalit","true","",""
"2119.7000000476837","","","","","2","html-slider-response","291","","","","4",""
"4421","window","nanga,kujenga,kweli,umaga","kweli","j","2","html-keyboard-response","292","j","kweli","true","",""
"2150.2000000476837","","","","","2","html-slider-response","293","","","","2",""
"3636","box","kuacha,rafiki,adui,kitande","adui","j","3","html-keyboard-response","310","j","adui","true","","4"
"1955.9000000953674","","","","","3","html-slider-response","311","","","","2",""
"null","","","","","3","html-keyboard-response","312","","","","",""
"3938","pants","pintal,haki,chuki,hari","haki","v","3","html-keyboard-response","313","n","hari","false","","4"
"3469","","","","","3","html-slider-response","314","","","","2",""
"null","","","","","3","html-keyboard-response","315","","","","",""
"2618","cup","dagat,shimoni,matumai,jeraha","matumai","j","3","html-keyboard-response","316","f","dagat","false","","4"
"4147.399999976158","","","","","3","html-slider-response","317","","","","2",""
"null","","","","","3","html-keyboard-response","318","","","","",""
"4399","triangle","kihozi,bentaha,liog,kasadpan","kasadpan","n","3","html-keyboard-response","319","n","kasadpan","true","","4"
"2606.5","","","","","3","html-slider-response","320","","","","4",""
"null","","","","","3","html-keyboard-response","321","","","","",""
"4733","curtain","lisud,bulwawan,mchanga,chubani","mchanga","j","3","html-keyboard-response","322","j","mchanga","true","","4"
"1843.5","","","","","3","html-slider-response","323","","","","2",""
"null","","","","","3","html-keyboard-response","324","","","","",""
"3488","clock","kartasi,mbwa,abang,osha","mbwa","v","3","html-keyboard-response","325","v","mbwa","true","","4"
"2597","","","","","3","html-slider-response","326","","","","2",""
"null","","","","","3","html-keyboard-response","327","","","","",""
"4125","mirror","rangi,sulagma,kanding,furaha","sulagma","v","3","html-keyboard-response","328","v","sulagma","true","","4"
"2319.100000023842","","","","","3","html-slider-response","329","","","","2",""
"null","","","","","3","html-keyboard-response","330","","","","",""
"3105","coffin","barua,tubag,kioo,hulma","kioo","j","3","html-keyboard-response","331","j","kioo","true","","1"
"3545.5","","","","","3","html-slider-response","332","","","","5",""
"null","","","","","3","html-keyboard-response","333","","","","",""
"2671","magazine","kiti,gundi,mchawi,bahandi","kiti","f","3","html-keyboard-response","334","j","mchawi","false","","4"
"2928.2000000476837","","","","","3","html-slider-response","335","","","","2",""
"null","","","","","3","html-keyboard-response","336","","","","",""
"2675","column","ufagio,pundok,dila,pala","ufagio","f","3","html-keyboard-response","337","f","ufagio","true","","1"
"3882.8000000715256","","","","","3","html-slider-response","338","","","","5",""
"null","","","","","3","html-keyboard-response","339","","","","",""
"3501","number","shule,mundamo,kengele,choori","mundamo","v","3","html-keyboard-response","340","v","mundamo","true","","4"
"2911.100000023842","","","","","3","html-slider-response","341","","","","2",""
"null","","","","","3","html-keyboard-response","342","","","","",""
"3557","rose","singizi,paghalad,mwanake,amani","paghalad","v","3","html-keyboard-response","343","v","paghalad","true","","4"
"2687.2000000476837","","","","","3","html-slider-response","344","","","","2",""
"null","","","","","3","html-keyboard-response","345","","","","",""
"3657","eel","ishara,kunywa,msumari,kabuang","msumari","j","3","html-keyboard-response","346","j","msumari","true","","4"
"2864.100000023842","","","","","3","html-slider-response","347","","","","4",""
"null","","","","","3","html-keyboard-response","348","","","","",""
"4010","gift","baba,nyange,pagtawag,baso","pagtawag","j","3","html-keyboard-response","349","j","pagtawag","true","","4"
"2217","","","","","3","html-slider-response","350","","","","2",""
"null","","","","","3","html-keyboard-response","351","","","","",""
"2247","apple","ukame,estante,edad,kisu","kisu","n","3","html-keyboard-response","352","n","kisu","true","","1"
"2573.399999976158","","","","","3","html-slider-response","353","","","","5",""
"null","","","","","3","html-keyboard-response","354","","","","",""
"2253","wheel","bafuni,punda,tawo,baadaye","bafuni","f","3","html-keyboard-response","355","f","bafuni","true","","1"
"2963.5","","","","","3","html-slider-response","356","","","","5",""
"null","","","","","3","html-keyboard-response","357","","","","",""
"3811","knee","duka,mvuke,kubale,bili","duka","f","3","html-keyboard-response","358","n","bili","false","","4"
"2577.2999999523163","","","","","3","html-slider-response","359","","","","2",""
"null","","","","","3","html-keyboard-response","360","","","","",""
"1859","basket","kumbuka,kumba,utepe,hasira","kumba","v","3","html-keyboard-response","361","v","kumba","true","","1"
"3758.5","","","","","3","html-slider-response","362","","","","5",""
"null","","","","","3","html-keyboard-response","363","","","","",""
"3710","park","bunifu,tambok,pwani,ihalas","bunifu","f","3","html-keyboard-response","364","j","pwani","false","","4"
"2403.899999976158","","","","","3","html-slider-response","365","","","","2",""
"null","","","","","3","html-keyboard-response","366","","","","",""
"3867","finger","simu,sufuria,moyo,lima","moyo","j","3","html-keyboard-response","367","n","lima","false","","4"
"3049.100000023842","","","","","3","html-slider-response","368","","","","2",""
"null","","","","","3","html-keyboard-response","369","","","","",""
"2644","boat","hamsi,agalon,pombe,kitanda","agalon","v","3","html-keyboard-response","370","n","kitanda","false","","4"
"1787.4000000953674","","","","","3","html-slider-response","371","","","","2",""
"null","","","","","3","html-keyboard-response","372","","","","",""
"3015","hill","kushoto,kukimba,matumbo,sweta","matumbo","j","3","html-keyboard-response","373","n","sweta","false","","4"
"1831.3000000715256","","","","","3","html-slider-response","374","","","","2",""
"null","","","","","3","html-keyboard-response","375","","","","",""
"3479","train","sayari,itik,dakika,mungu","sayari","f","3","html-keyboard-response","376","v","itik","false","","4"
"1644.9000000953674","","","","","3","html-slider-response","377","","","","2",""
"null","","","","","3","html-keyboard-response","378","","","","",""
"3630","wolf","lugha,kaburi,ndizi,mchuzi","lugha","f","3","html-keyboard-response","379","j","ndizi","false","","4"
"1899.7000000476837","","","","","3","html-slider-response","380","","","","2",""
"null","","","","","3","html-keyboard-response","381","","","","",""
"3325","snake","jansa,karon,mvringo,pagtukod","pagtukod","n","3","html-keyboard-response","382","n","pagtukod","true","","4"
"2957.5","","","","","3","html-slider-response","383","","","","4",""
"null","","","","","3","html-keyboard-response","384","","","","",""
"3625","tooth","kabalaka,kijiko,uadui,pahiyum","kabalaka","f","3","html-keyboard-response","385","j","uadui","false","","4"
"2246.2000000476837","","","","","3","html-slider-response","386","","","","2",""
"null","","","","","3","html-keyboard-response","387","","","","",""
"10563","notebook","msitu,kila,kemia,mdudu","kemia","j","3","html-keyboard-response","388","n","mdudu","false","","4"
"2312.0999999046326","","","","","3","html-slider-response","389","","","","2",""
"null","","","","","3","html-keyboard-response","390","","","","",""
"2855","flag","ndege,mkate,trekta,kawa","trekta","j","3","html-keyboard-response","391","f","ndege","false","","4"
"1747.1999999284744","","","","","3","html-slider-response","392","","","","2",""
"null","","","","","3","html-keyboard-response","393","","","","",""
"3622","squirrel","hofu,mahugaw,ukweli,kichwa","hofu","f","3","html-keyboard-response","394","n","kichwa","false","","4"
"1885.7999999523163","","","","","3","html-slider-response","395","","","","2",""
"null","","","","","3","html-keyboard-response","396","","","","",""
"3160","door","tena,soko,surali,nyota","surali","j","3","html-keyboard-response","397","v","soko","false","","4"
"2160.399999976158","","","","","3","html-slider-response","398","","","","2",""
"null","","","","","3","html-keyboard-response","399","","","","",""
"2265","salmon","mzungu,seri,baharia,sensilyo","sensilyo","n","3","html-keyboard-response","400","n","sensilyo","true","","4"
"2365.5","","","","","3","html-slider-response","401","","","","4",""
"null","","","","","3","html-keyboard-response","402","","","","",""
"2811","shoulder","kelele,ndaniya,guruwe,mkuu","mkuu","n","3","html-keyboard-response","403","n","mkuu","true","","4"
"2338.1999999284744","","","","","3","html-slider-response","404","","","","2",""
"null","","","","","3","html-keyboard-response","405","","","","",""
"6684","lamp","afya,daub,bilaska,mbolea","afya","f","3","html-keyboard-response","406","j","bilaska","false","","4"
"3087","","","","","3","html-slider-response","407","","","","2",""
"null","","","","","3","html-keyboard-response","408","","","","",""
"2230","shelf","bungtod,kadaot,awit,pamahaw","pamahaw","n","3","html-keyboard-response","409","n","pamahaw","true","","1"
"2361.2999999523163","","","","","3","html-slider-response","410","","","","5",""
"null","","","","","3","html-keyboard-response","411","","","","",""
"2862","human","tinapay,bado,kikapu,punguza","tinapay","f","3","html-keyboard-response","412","f","tinapay","true","","4"
"2133.600000023842","","","","","3","html-slider-response","413","","","","4",""
"null","","","","","3","html-keyboard-response","414","","","","",""
"4288","towel","tembo,funzi,pito,pagpalit","pagpalit","n","3","html-keyboard-response","415","n","pagpalit","true","","4"
"2555.0999999046326","","","","","3","html-slider-response","416","","","","2",""
"null","","","","","3","html-keyboard-response","417","","","","",""
"5055","cat","neyemba,paghukom,baki,akili","paghukom","v","3","html-keyboard-response","418","n","akili","false","","4"
"2256.9000000953674","","","","","3","html-slider-response","419","","","","2",""
"null","","","","","3","html-keyboard-response","420","","","","",""
"5339","spider","bunyag,mkboa,kamwe,atop","kamwe","j","3","html-keyboard-response","421","f","bunyag","false","","4"
"3332.0999999046326","","","","","3","html-slider-response","422","","","","2",""
"null","","","","","3","html-keyboard-response","423","","","","",""
"3717","window","nanga,kweli,kujenga,umaga","kweli","v","3","html-keyboard-response","424","v","kweli","true","","4"
"2681.0999999046326","","","","","3","html-slider-response","425","","","","2",""
"null","","","","","3","html-keyboard-response","426","","","","",""
"2015","woman","pagtabon,bandari,bituin,kovuli","pagtabon","f","3","html-keyboard-response","427","f","pagtabon","true","","1"
"4346","","","","","3","html-slider-response","428","","","","5",""
"null","","","","","3","html-keyboard-response","429","","","","",""
"3425","giraffe","daraja,jumatu,hangyo,mahitabo","mahitabo","n","3","html-keyboard-response","430","f","daraja","false","","4"
"2454","","","","","3","html-slider-response","431","","","","2",""
"null","","","","","3","html-keyboard-response","432","","","","",""
"2969","elephant","petye,kito,pagduol,suka","kito","v","3","html-keyboard-response","433","v","kito","true","","4"
"2290.1999999284744","","","","","3","html-slider-response","434","","","","2",""
"null","","","","","3","html-keyboard-response","435","","","","",""
"3461","cave","ganti,kesho,maisha,nyundo","kesho","v","3","html-keyboard-response","436","n","nyundo","false","","4"
"3853.399999976158","","","","","3","html-slider-response","437","","","","2",""
"null","","","","","3","html-keyboard-response","438","","","","",""
"2385","bread","kaili,dari,dizeli,bugas","dari","v","3","html-keyboard-response","439","v","dari","true","","4"
"2477.399999976158","","","","","3","html-slider-response","440","","","","4",""
"null","","","","","3","html-keyboard-response","441","","","","",""
"3972","stone","wingi,ulimwengu,mkasi,asili","wingi","f","3","html-keyboard-response","442","f","wingi","true","","4"
"2970.9000000953674","","","","","3","html-slider-response","443","","","","2",""
"null","","","","","3","html-keyboard-response","444","","","","",""
"4972","donkey","bloke,lalake,rombus,elfu","elfu","n","3","html-keyboard-response","445","n","elfu","true","","4"
"6229.900000095367","","","","","3","html-slider-response","446","","","","2",""
"null","","","","","3","html-keyboard-response","447","","","","",""
"3657","bridge","daima,ngono,panya,sahani","sahani","n","3","html-keyboard-response","448","n","sahani","true","","4"
"2111.5","","","","","3","html-slider-response","449","","","","2",""
"null","","","","","3","html-keyboard-response","450","","","","",""
"2279","bonfire","mwezi,goti,mfuko,kusanya","goti","v","3","html-keyboard-response","451","v","goti","true","","4"
"2363.4000000953674","","","","","3","html-slider-response","452","","","","4",""
"null","","","","","3","html-keyboard-response","453","","","","",""
"4039","book","mali,kuhesa,picha,mara","mali","f","3","html-keyboard-response","454","f","mali","true","","4"
"3114.5","","","","","3","html-slider-response","455","","","","2",""
"null","","","","","3","html-keyboard-response","456","","","","",""
"4475","fish","bala,buli,baho,imani","buli","v","3","html-keyboard-response","457","j","baho","false","","4"
"2650.100000023842","","","","","3","html-slider-response","458","","","","2",""
"null","","","","","3","html-keyboard-response","459","","","","",""
"4868","spoon","betri,nzuri,ngazi,pagsulod","pagsulod","n","3","html-keyboard-response","460","j","ngazi","false","","4"
"2668","","","","","3","html-slider-response","461","","","","2",""
"null","","","","","3","html-keyboard-response","462","","","","",""
"2966","scissors","duga,mtawa,suga,tanuri","tanuri","n","3","html-keyboard-response","463","n","tanuri","true","","4"
"5365.399999976158","","","","","3","html-slider-response","464","","","","2",""
"null","","","","","3","html-keyboard-response","465","","","","",""
"3360","page","wimbo,wakala,ishiri,skina","wimbo","f","3","html-keyboard-response","466","f","wimbo","true","","4"
"2749.6999999284744","","","","","3","html-slider-response","467","","","","2",""
"null","","","","","3","html-keyboard-response","468","","","","",""
"1727","nose","gubat,kopa,sehemu,kidole","sehemu","j","3","html-keyboard-response","469","j","sehemu","true","","1"
"3279.100000023842","","","","","3","html-slider-response","470","","","","5",""
"null","","","","","3","html-keyboard-response","471","","","","",""
"5191","ceiling","kugita,maua,kawaida,rayna","maua","v","3","html-keyboard-response","472","j","kawaida","false","","4"
"3943.3000000715256","","","","","3","html-slider-response","473","","","","2",""
"null","","","","","3","html-keyboard-response","474","","","","",""
"4439","bucket","baga,ijayo,init,kiatu","kiatu","n","3","html-keyboard-response","475","j","init","false","","4"
"2154.100000023842","","","","","3","html-slider-response","476","","","","4",""
"null","","","","","3","html-keyboard-response","477","","","","",""
"1712","berry","abogado,kofia,nogozi,kinywa","kofia","v","3","html-keyboard-response","478","v","kofia","true","","1"
"2960.2000000476837","","","","","3","html-slider-response","479","","","","5",""
"null","","","","","3","html-keyboard-response","480","","","","",""
"1682","mother","kahawa,babaye,mbuzi,jokofu","babaye","v","3","html-keyboard-response","481","v","babaye","true","","1"
"2859.100000023842","","","","","3","html-slider-response","482","","","","5",""
"null","","","","","3","html-keyboard-response","483","","","","",""
"3098","mosquito","isda,martilyo,taras,gutom","martilyo","v","3","html-keyboard-response","484","v","martilyo","true","","4"
"3422.100000023842","","","","","3","html-slider-response","485","","","","5",""
"null","","","","","3","html-keyboard-response","486","","","","",""
"4927","perfume","bino,katuyoan,sungura,ndogo","katuyoan","v","3","html-keyboard-response","487","j","sungura","false","","4"
"2448.1999999284744","","","","","3","html-slider-response","488","","","","2",""
"null","","","","","3","html-keyboard-response","489","","","","",""
"5008","sheet","juuya,watu,kamantis,bililhon","bililhon","n","3","html-keyboard-response","490","n","bililhon","true","","4"
"2325.600000023842","","","","","3","html-slider-response","491","","","","2",""
"null","","","","","3","html-keyboard-response","492","","","","",""
"1700","puppet","napulo,lamok,godoro,mazishi","mazishi","n","3","html-keyboard-response","493","n","mazishi","true","","1"
"2599.5","","","","","3","html-slider-response","494","","","","5",""
"null","","","","","3","html-keyboard-response","495","","","","",""
"3968","poster","nchi,fedha,kasuko,madungog","madungog","n","3","html-keyboard-response","496","n","madungog","true","","4"
"1683.1000000238419","","","","","3","html-slider-response","497","","","","2",""
"null","","","","","3","html-keyboard-response","498","","","","",""
"4399","music","mraba,baiski,mageho,tumbo","baiski","v","3","html-keyboard-response","499","v","baiski","true","","4"
"1996.7000000476837","","","","","3","html-slider-response","500","","","","4",""
"null","","","","","3","html-keyboard-response","501","","","","",""
"3390","key","miaka,goma,ahos,chombo","chombo","n","3","html-keyboard-response","502","j","ahos","false","","4"
"2533","","","","","3","html-slider-response","503","","","","2",""
"null","","","","","3","html-keyboard-response","504","","","","",""
"2587","sock","ndoora,kimysa,mamba,mtirka","mamba","j","3","html-keyboard-response","505","j","mamba","true","","4"
"3859.2999999523163","","","","","3","html-slider-response","506","","","","5",""
"null","","","","","3","html-keyboard-response","507","","","","",""
"3699","marker","mapafu,maji,salita,atay","maji","v","3","html-keyboard-response","508","f","mapafu","false","","4"
"2213.600000023842","","","","","3","html-slider-response","509","","","","2",""
"null","","","","","3","html-keyboard-response","510","","","","",""
"4949","office","hazini,yatima,kuna,leso","leso","n","3","html-keyboard-response","511","j","kuna","false","","4"
"1995","","","","","3","html-slider-response","512","","","","2",""
"null","","","","","3","html-keyboard-response","513","","","","",""
"3599","shoe","nyeusi,uyoga,hatua,kama","uyoga","v","3","html-keyboard-response","514","j","hatua","false","","4"
"2328.3000000715256","","","","","3","html-slider-response","515","","","","2",""
"null","","","","","3","html-keyboard-response","516","","","","",""
"3771","cop","bustani,jikoni,mechezo,bakus","mechezo","j","3","html-keyboard-response","517","f","bustani","false","","4"
"2261.2000000476837","","","","","3","html-slider-response","518","","","","2",""
"null","","","","","3","html-keyboard-response","519","","","","",""
"6673","bank","silingan,kudhibi,tualya,ofisi","silingan","f","3","html-keyboard-response","520","n","ofisi","false","","4"
"2609.7999999523163","","","","","3","html-slider-response","521","","","","2",""
"null","","","","","3","html-keyboard-response","522","","","","",""
"2010","letter","filimbi,kifua,chuma,uhuru","kifua","v","3","html-keyboard-response","523","v","kifua","true","","1"
"2781.2999999523163","","","","","3","html-slider-response","524","","","","5",""
"null","","","","","3","html-keyboard-response","525","","","","",""
"1701","dog","bahari,lubi,washia,kalamu","bahari","f","3","html-keyboard-response","526","f","bahari","true","","1"
"2629.399999976158","","","","","3","html-slider-response","527","","","","5",""
"null","","","","","3","html-keyboard-response","528","","","","",""
"4022","shop","nopya,samaki,kerida,ndezu","samaki","v","3","html-keyboard-response","529","n","ndezu","false","","4"
"2421.4000000953674","","","","","3","html-slider-response","530","","","","2",""
"null","","","","","3","html-keyboard-response","531","","","","",""
"3786","flower","bega,tamasha,lobo,usiku","bega","f","3","html-keyboard-response","532","f","bega","true","","4"
"2549.2000000476837","","","","","3","html-slider-response","533","","","","4",""
"null","","","","","3","html-keyboard-response","534","","","","",""
"2209","cigar","ndugu,adhabu,kuta,mlango","adhabu","v","3","html-keyboard-response","535","v","adhabu","true","","1"
"2431.2000000476837","","","","","3","html-slider-response","536","","","","5",""
"null","","","","","3","html-keyboard-response","537","","","","",""
"4593","hammer","mekno,kitovu,napakyas,layag","napakyas","j","3","html-keyboard-response","538","j","napakyas","true","","4"
"9704.100000023842","","","","","3","html-slider-response","539","","","","2",""
"null","","","","","3","html-keyboard-response","540","","","","",""
"3911","fork","baboy,paghago,gorisi,mgonjwa","mgonjwa","n","3","html-keyboard-response","541","n","mgonjwa","true","","4"
"2611","","","","","3","html-slider-response","542","","","","2",""
"null","","","","","3","html-keyboard-response","543","","","","",""
"2004","sun","bendi,luha,uongo,basi","basi","n","3","html-keyboard-response","544","n","basi","true","","1"
"2500.3000000715256","","","","","3","html-slider-response","545","","","","5",""
"null","","","","","3","html-keyboard-response","546","","","","",""
"2998","ladder","pangalan,mashua,mwanga,kamba","pangalan","f","3","html-keyboard-response","547","f","pangalan","true","","4"
"1939.3000000715256","","","","","3","html-slider-response","548","","","","5",""
"null","","","","","3","html-keyboard-response","549","","","","",""
"3532","banana","kasamok,hagdan,twai,kazi","kazi","n","3","html-keyboard-response","550","n","kazi","true","","1"
"2431.0999999046326","","","","","3","html-slider-response","551","","","","5",""
"null","","","","","3","html-keyboard-response","552","","","","",""
"2659","pudding","abug,mpishi,aibu,iring","aibu","j","3","html-keyboard-response","553","j","aibu","true","","4"
"2521.100000023842","","","","","3","html-slider-response","554","","","","2",""
"null","","","","","3","html-keyboard-response","555","","","","",""
"4188","body","tindashan,nyundu,jibini,kununa","tindashan","f","3","html-keyboard-response","556","v","nyundu","false","","4"
"10140.200000047684","","","","","3","html-slider-response","557","","","","2",""
"null","","","","","3","html-keyboard-response","558","","","","",""
"3887","bed","kalipay,mapintas,haraka,starehe","mapintas","v","3","html-keyboard-response","559","j","haraka","false","","4"
"3441","","","","","3","html-slider-response","560","","","","2",""
"null","","","","","3","html-keyboard-response","561","","","","",""
"3760","tissue","lamigas,kisiwa,katika,ugomvi","ugomvi","n","3","html-keyboard-response","562","j","katika","false","","4"
"2315.5","","","","","3","html-slider-response","563","","","","2",""
"null","","","","","3","html-keyboard-response","564","","","","",""
"2988","candle","gabi,farasi,geza,kupanda","geza","j","3","html-keyboard-response","565","j","geza","true","","4"
"3392.6999999284744","","","","","3","html-slider-response","566","","","","5",""
"null","","","","","3","html-keyboard-response","567","","","","",""
"1708","tomato","mvua,chupi,chupa,takatak","mvua","f","3","html-keyboard-response","568","f","mvua","true","","1"
"4269.100000023842","","","","","3","html-slider-response","569","","","","5",""
"null","","","","","3","html-keyboard-response","570","","","","",""
"3732","list","alizeti,kuzama,wingu,kaso","wingu","j","3","html-keyboard-response","571","v","kuzama","false","","4"
"2286.100000023842","","","","","3","html-slider-response","572","","","","2",""
"null","","","","","3","html-keyboard-response","573","","","","",""
"2562","olive","bata,siagi,welder,jiwe","jiwe","n","3","html-keyboard-response","574","n","jiwe","true","","4"
"6919.100000023842","","","","","3","html-slider-response","575","","","","5",""
"null","","","","","3","html-keyboard-response","576","","","","",""
"1715","picture","kubwa,silya,chaki,asin","kubwa","f","3","html-keyboard-response","577","f","kubwa","true","","1"
"3410","","","","","3","html-slider-response","578","","","","5",""
"null","","","","","3","html-keyboard-response","579","","","","",""
