"rt","en_word","options","swa_word","correct_answer","phase","trial_type","trial_index","input_answer","input_word","accuracy","certainty","amt_choices"
"4942","bonfire","mwezi,mfuko,kusanya,goti","goti","n","2","html-keyboard-response","109","n","goti","true","",""
"4008.9000000059605","","","","","2","html-slider-response","110","","","","1",""
"5100","flower","tamasha,lobo,bega,usiku","bega","j","2","html-keyboard-response","111","j","bega","true","",""
"7208.799999982119","","","","","2","html-slider-response","112","","","","3",""
"5821","column","ufagio,pundok,dila,pala","ufagio","f","2","html-keyboard-response","113","f","ufagio","true","",""
"3205.5","","","","","2","html-slider-response","114","","","","2",""
"4158","music","mraba,baiski,mageho,tumbo","baiski","v","2","html-keyboard-response","115","v","baiski","true","",""
"3219.9000000059605","","","","","2","html-slider-response","116","","","","2",""
"7684","spider","bunyag,mkboa,atop,kamwe","kamwe","n","2","html-keyboard-response","117","n","kamwe","true","",""
"3238.300000011921","","","","","2","html-slider-response","118","","","","1",""
"9388","fork","mgonjwa,baboy,paghago,gorisi","mgonjwa","f","2","html-keyboard-response","119","j","paghago","false","",""
"1767.300000011921","","","","","2","html-slider-response","120","","","","1",""
"3692","mosquito","isda,taras,gutom,martilyo","martilyo","n","2","html-keyboard-response","121","f","isda","false","",""
"2201.4000000059605","","","","","2","html-slider-response","122","","","","1",""
"4347","banana","kasamok,hagdan,twai,kazi","kazi","n","2","html-keyboard-response","123","n","kazi","true","",""
"1776.300000011921","","","","","2","html-slider-response","124","","","","4",""
"5560","cup","dagat,shimoni,jeraha,matumai","matumai","n","2","html-keyboard-response","125","n","matumai","true","",""
"1660.4000000059605","","","","","2","html-slider-response","126","","","","2",""
"2408","shop","nopya,samaki,kerida,ndezu","samaki","v","2","html-keyboard-response","127","j","kerida","false","",""
"3444.300000011921","","","","","2","html-slider-response","128","","","","1",""
"6839","elephant","petye,pagduol,kito,suka","kito","j","2","html-keyboard-response","129","f","petye","false","",""
"1524.2000000178814","","","","","2","html-slider-response","130","","","","1",""
"7018","bucket","baga,ijayo,kiatu,init","kiatu","j","2","html-keyboard-response","131","v","ijayo","false","",""
"2130.0999999940395","","","","","2","html-slider-response","132","","","","1",""
"3962","book","mali,kuhesa,picha,mara","mali","f","2","html-keyboard-response","133","n","mara","false","",""
"2096.7000000178814","","","","","2","html-slider-response","134","","","","2",""
"4781","mirror","rangi,kanding,sulagma,furaha","sulagma","j","2","html-keyboard-response","135","v","kanding","false","",""
"2215.0999999940395","","","","","2","html-slider-response","136","","","","1",""
"2854","office","hazini,yatima,leso,kuna","leso","j","2","html-keyboard-response","137","j","leso","true","",""
"1837.9000000059605","","","","","2","html-slider-response","138","","","","4",""
"4490","body","nyundu,jibini,kununa,tindashan","tindashan","n","2","html-keyboard-response","139","f","nyundu","false","",""
"2274.2000000178814","","","","","2","html-slider-response","140","","","","1",""
"3545","perfume","katuyoan,bino,sungura,ndogo","katuyoan","f","2","html-keyboard-response","141","n","ndogo","false","",""
"2546.9000000059605","","","","","2","html-slider-response","142","","","","1",""
"3995","olive","jiwe,bata,siagi,welder","jiwe","f","2","html-keyboard-response","143","f","jiwe","true","",""
"2218.0999999940395","","","","","2","html-slider-response","144","","","","2",""
"9882","magazine","kiti,gundi,mchawi,bahandi","kiti","f","2","html-keyboard-response","145","j","mchawi","false","",""
"2497.5999999940395","","","","","2","html-slider-response","146","","","","1",""
"6113","bread","kaili,dizeli,bugas,dari","dari","n","2","html-keyboard-response","147","v","dizeli","false","",""
"2346","","","","","2","html-slider-response","148","","","","1",""
"6325","cave","ganti,maisha,nyundo,kesho","kesho","n","2","html-keyboard-response","149","j","nyundo","false","",""
"1942.5","","","","","2","html-slider-response","150","","","","1",""
"6591","ladder","mashua,mwanga,pangalan,kamba","pangalan","j","2","html-keyboard-response","151","j","pangalan","true","",""
"1844.2000000178814","","","","","2","html-slider-response","152","","","","1",""
"8000","human","tinapay,bado,kikapu,punguza","tinapay","f","2","html-keyboard-response","153","f","tinapay","true","",""
"1819.2000000178814","","","","","2","html-slider-response","154","","","","1",""
"3233","clock","kartasi,abang,osha,mbwa","mbwa","n","2","html-keyboard-response","155","j","osha","false","",""
"1627.8999999761581","","","","","2","html-slider-response","156","","","","1",""
"3786","shelf","pamahaw,bungtod,kadaot,awit","pamahaw","f","2","html-keyboard-response","157","f","pamahaw","true","",""
"2251.2999999821186","","","","","2","html-slider-response","158","","","","1",""
"4469","salmon","mzungu,seri,sensilyo,baharia","sensilyo","j","2","html-keyboard-response","159","n","baharia","false","",""
"1670.5","","","","","2","html-slider-response","160","","","","1",""
"3939","coffin","barua,tubag,kioo,hulma","kioo","j","2","html-keyboard-response","161","n","hulma","false","",""
"2145.2999999821186","","","","","2","html-slider-response","162","","","","1",""
"3991","notebook","msitu,kemia,kila,mdudu","kemia","v","2","html-keyboard-response","163","j","kila","false","",""
"1932.8999999761581","","","","","2","html-slider-response","164","","","","1",""
"3784","shoulder","mkuu,kelele,ndaniya,guruwe","mkuu","f","2","html-keyboard-response","165","v","kelele","false","",""
"2019.6000000238419","","","","","2","html-slider-response","166","","","","1",""
"4520","park","tambok,bunifu,pwani,ihalas","bunifu","v","2","html-keyboard-response","167","n","ihalas","false","",""
"2091","","","","","2","html-slider-response","168","","","","1",""
"4261","number","shule,kengele,mundamo,choori","mundamo","j","2","html-keyboard-response","169","v","kengele","false","",""
"1598.0999999940395","","","","","2","html-slider-response","170","","","","1",""
"3075","apple","ukame,kisu,estante,edad","kisu","v","2","html-keyboard-response","171","v","kisu","true","",""
"1993.699999988079","","","","","2","html-slider-response","172","","","","1",""
"3966","letter","kifua,filimbi,chuma,uhuru","kifua","f","2","html-keyboard-response","173","n","uhuru","false","",""
"1581.5","","","","","2","html-slider-response","174","","","","1",""
"8610","eel","ishara,kunywa,msumari,kabuang","msumari","j","2","html-keyboard-response","175","j","msumari","true","",""
"1761.7999999821186","","","","","2","html-slider-response","176","","","","1",""
"4497","cop","bustani,jikoni,mechezo,bakus","mechezo","j","2","html-keyboard-response","177","j","mechezo","true","",""
"2371.800000011921","","","","","2","html-slider-response","178","","","","2",""
"6551","wolf","kaburi,ndizi,mchuzi,lugha","lugha","n","2","html-keyboard-response","179","n","lugha","true","",""
"1981.0999999940395","","","","","2","html-slider-response","180","","","","2",""
"3812","squirrel","mahugaw,ukweli,kichwa,hofu","hofu","n","2","html-keyboard-response","181","v","ukweli","false","",""
"1575.2999999821186","","","","","2","html-slider-response","182","","","","1",""
"5422","nose","sehemu,gubat,kopa,kidole","sehemu","f","2","html-keyboard-response","183","f","sehemu","true","",""
"1821.3999999761581","","","","","2","html-slider-response","184","","","","2",""
"9571","sock","ndoora,kimysa,mtirka,mamba","mamba","n","2","html-keyboard-response","185","v","kimysa","false","",""
"1488.0999999940395","","","","","2","html-slider-response","186","","","","2",""
"5183","bank","kudhibi,tualya,silingan,ofisi","silingan","j","2","html-keyboard-response","187","f","kudhibi","false","",""
"1883.9000000059605","","","","","2","html-slider-response","188","","","","2",""
"4213","donkey","bloke,lalake,rombus,elfu","elfu","n","2","html-keyboard-response","189","n","elfu","true","",""
"2807.199999988079","","","","","2","html-slider-response","190","","","","4",""
"4271","poster","madungog,nchi,fedha,kasuko","madungog","f","2","html-keyboard-response","191","f","madungog","true","",""
"1925.9000000059605","","","","","2","html-slider-response","192","","","","4",""
"3869","puppet","napulo,lamok,godoro,mazishi","mazishi","n","2","html-keyboard-response","193","n","mazishi","true","",""
"1639","","","","","2","html-slider-response","194","","","","1",""
"3558","hill","kushoto,kukimba,sweta,matumbo","matumbo","n","2","html-keyboard-response","195","n","matumbo","true","",""
"1719","","","","","2","html-slider-response","196","","","","1",""
"4934","tooth","kijiko,uadui,kabalaka,pahiyum","kabalaka","j","2","html-keyboard-response","197","j","kabalaka","true","",""
"1948.9000000059605","","","","","2","html-slider-response","198","","","","1",""
"3739","woman","bandari,bituin,kovuli,pagtabon","pagtabon","n","2","html-keyboard-response","199","n","pagtabon","true","",""
"1664.5999999940395","","","","","2","html-slider-response","200","","","","4",""
"4536","wheel","bafuni,punda,tawo,baadaye","bafuni","f","2","html-keyboard-response","201","n","baadaye","false","",""
"1467.0999999940395","","","","","2","html-slider-response","202","","","","1",""
"8735","mother","kahawa,babaye,mbuzi,jokofu","babaye","v","2","html-keyboard-response","203","v","babaye","true","",""
"1948","","","","","2","html-slider-response","204","","","","2",""
"5178","bed","kalipay,mapintas,haraka,starehe","mapintas","v","2","html-keyboard-response","205","f","kalipay","false","",""
"1609.800000011921","","","","","2","html-slider-response","206","","","","2",""
"4593","key","chombo,miaka,goma,ahos","chombo","f","2","html-keyboard-response","207","f","chombo","true","",""
"3252.4000000059605","","","","","2","html-slider-response","208","","","","1",""
"3422","page","wimbo,wakala,ishiri,skina","wimbo","f","2","html-keyboard-response","209","j","ishiri","false","",""
"1718.2000000178814","","","","","2","html-slider-response","210","","","","1",""
"2560","pants","haki,pintal,chuki,hari","haki","f","2","html-keyboard-response","211","f","haki","true","",""
"1660.0999999940395","","","","","2","html-slider-response","212","","","","1",""
"4268","sun","bendi,luha,basi,uongo","basi","j","2","html-keyboard-response","213","f","bendi","false","",""
"1576.9000000059605","","","","","2","html-slider-response","214","","","","1",""
"5106","finger","simu,sufuria,lima,moyo","moyo","n","2","html-keyboard-response","215","v","sufuria","false","",""
"1400.7999999821186","","","","","2","html-slider-response","216","","","","1",""
"3421","shoe","nyeusi,hatua,uyoga,kama","uyoga","j","2","html-keyboard-response","217","f","nyeusi","false","",""
"1646.699999988079","","","","","2","html-slider-response","218","","","","1",""
"7653","giraffe","mahitabo,daraja,jumatu,hangyo","mahitabo","f","2","html-keyboard-response","219","f","mahitabo","true","",""
"1782.4000000059605","","","","","2","html-slider-response","220","","","","1",""
"2708","dog","lubi,washia,kalamu,bahari","bahari","n","2","html-keyboard-response","221","j","kalamu","false","",""
"1568.5","","","","","2","html-slider-response","222","","","","1",""
"5265","box","kuacha,adui,rafiki,kitande","adui","v","2","html-keyboard-response","223","v","adui","true","",""
"1875.9000000059605","","","","","2","html-slider-response","224","","","","1",""
"3819","scissors","tanuri,duga,mtawa,suga","tanuri","f","2","html-keyboard-response","225","f","tanuri","true","",""
"1656.300000011921","","","","","2","html-slider-response","226","","","","1",""
"2983","cat","neyemba,baki,akili,paghukom","paghukom","n","2","html-keyboard-response","227","v","baki","false","",""
"1661","","","","","2","html-slider-response","228","","","","1",""
"3219","basket","kumbuka,kumba,utepe,hasira","kumba","v","2","html-keyboard-response","229","f","kumbuka","false","",""
"1320.9000000059605","","","","","2","html-slider-response","230","","","","2",""
"2770","snake","jansa,karon,pagtukod,mvringo","pagtukod","j","2","html-keyboard-response","231","j","pagtukod","true","",""
"2482.0999999940395","","","","","2","html-slider-response","232","","","","1",""
"4160","gift","baba,nyange,baso,pagtawag","pagtawag","n","2","html-keyboard-response","233","j","baso","false","",""
"1620","","","","","2","html-slider-response","234","","","","1",""
"4033","train","itik,dakika,sayari,mungu","sayari","j","2","html-keyboard-response","235","j","sayari","true","",""
"2146.7000000178814","","","","","2","html-slider-response","236","","","","1",""
"6076","pudding","abug,mpishi,iring,aibu","aibu","n","2","html-keyboard-response","237","j","iring","false","",""
"1903.7000000178814","","","","","2","html-slider-response","238","","","","1",""
"5102","tomato","chupi,chupa,takatak,mvua","mvua","n","2","html-keyboard-response","239","n","mvua","true","",""
"1652.800000011921","","","","","2","html-slider-response","240","","","","1",""
"2554","stone","ulimwengu,mkasi,asili,wingi","wingi","n","2","html-keyboard-response","241","j","asili","false","",""
"1715.5999999940395","","","","","2","html-slider-response","242","","","","2",""
"2494","hammer","mekno,napakyas,kitovu,layag","napakyas","v","2","html-keyboard-response","243","j","kitovu","false","",""
"1557.7000000178814","","","","","2","html-slider-response","244","","","","1",""
"3431","knee","mvuke,duka,kubale,bili","duka","v","2","html-keyboard-response","245","n","bili","false","",""
"1756.9000000059605","","","","","2","html-slider-response","246","","","","1",""
"2397","ceiling","kugita,maua,kawaida,rayna","maua","v","2","html-keyboard-response","247","j","kawaida","false","",""
"1342.7000000178814","","","","","2","html-slider-response","248","","","","1",""
"2636","spoon","betri,nzuri,ngazi,pagsulod","pagsulod","n","2","html-keyboard-response","249","f","betri","false","",""
"2064.5","","","","","2","html-slider-response","250","","","","1",""
"2738","marker","mapafu,salita,maji,atay","maji","j","2","html-keyboard-response","251","j","maji","true","",""
"1682.0999999940395","","","","","2","html-slider-response","252","","","","1",""
"3185","candle","geza,gabi,farasi,kupanda","geza","f","2","html-keyboard-response","253","n","kupanda","false","",""
"1730.2000000178814","","","","","2","html-slider-response","254","","","","1",""
"2437","tissue","lamigas,ugomvi,kisiwa,katika","ugomvi","v","2","html-keyboard-response","255","v","ugomvi","true","",""
"1351.1000000238419","","","","","2","html-slider-response","256","","","","1",""
"4566","bridge","daima,sahani,ngono,panya","sahani","v","2","html-keyboard-response","257","j","ngono","false","",""
"1958.0999999940395","","","","","2","html-slider-response","258","","","","1",""
"2715","berry","abogado,kofia,nogozi,kinywa","kofia","v","2","html-keyboard-response","259","f","abogado","false","",""
"1984.2999999821186","","","","","2","html-slider-response","260","","","","1",""
"6427","triangle","kihozi,bentaha,kasadpan,liog","kasadpan","j","2","html-keyboard-response","261","j","kasadpan","true","",""
"1505.2999999821186","","","","","2","html-slider-response","262","","","","1",""
"2961","door","tena,surali,soko,nyota","surali","v","2","html-keyboard-response","263","n","nyota","false","",""
"1554.2000000178814","","","","","2","html-slider-response","264","","","","1",""
"2508","fish","bala,baho,buli,imani","buli","j","2","html-keyboard-response","265","n","imani","false","",""
"1352.9000000059605","","","","","2","html-slider-response","266","","","","1",""
"4643","curtain","mchanga,lisud,bulwawan,chubani","mchanga","f","2","html-keyboard-response","267","j","bulwawan","false","",""
"2120.300000011921","","","","","2","html-slider-response","268","","","","1",""
"4649","flag","ndege,mkate,trekta,kawa","trekta","j","2","html-keyboard-response","269","f","ndege","false","",""
"1506.6000000238419","","","","","2","html-slider-response","270","","","","1",""
"3527","boat","agalon,hamsi,pombe,kitanda","agalon","f","2","html-keyboard-response","271","n","kitanda","false","",""
"1476.800000011921","","","","","2","html-slider-response","272","","","","1",""
"4312","rose","singizi,paghalad,mwanake,amani","paghalad","v","2","html-keyboard-response","273","j","mwanake","false","",""
"1715.7999999821186","","","","","2","html-slider-response","274","","","","1",""
"3214","lamp","daub,bilaska,mbolea,afya","afya","n","2","html-keyboard-response","275","v","bilaska","false","",""
"1396.4000000059605","","","","","2","html-slider-response","276","","","","1",""
"3703","cigar","ndugu,kuta,mlango,adhabu","adhabu","n","2","html-keyboard-response","277","j","mlango","false","",""
"2124.4000000059605","","","","","2","html-slider-response","278","","","","1",""
"5293","list","wingu,alizeti,kuzama,kaso","wingu","f","2","html-keyboard-response","279","v","alizeti","false","",""
"1528","","","","","2","html-slider-response","280","","","","1",""
"3477","sheet","juuya,watu,kamantis,bililhon","bililhon","n","2","html-keyboard-response","281","n","bililhon","true","",""
"1744","","","","","2","html-slider-response","282","","","","1",""
"2293","picture","silya,chaki,kubwa,asin","kubwa","j","2","html-keyboard-response","283","j","kubwa","true","",""
"1702.6000000238419","","","","","2","html-slider-response","284","","","","1",""
"3841","towel","tembo,funzi,pagpalit,pito","pagpalit","j","2","html-keyboard-response","285","j","pagpalit","true","",""
"1787","","","","","2","html-slider-response","286","","","","1",""
"3700","window","kweli,nanga,kujenga,umaga","kweli","f","2","html-keyboard-response","287","n","umaga","false","",""
"1767.699999988079","","","","","2","html-slider-response","288","","","","1",""
"3526","box","kuacha,adui,rafiki,kitande","adui","v","3","html-keyboard-response","305","f","kuacha","false","","4"
"4338.5","","","","","3","html-slider-response","306","","","","1",""
"null","","","","","3","html-keyboard-response","307","","","","",""
"3749","pants","pintal,haki,chuki,hari","haki","v","3","html-keyboard-response","308","v","haki","true","","4"
"1807.5999999940395","","","","","3","html-slider-response","309","","","","1",""
"null","","","","","3","html-keyboard-response","310","","","","",""
"3297","cup","dagat,matumai,shimoni,jeraha","matumai","v","3","html-keyboard-response","311","v","matumai","true","","4"
"1790.4000000059605","","","","","3","html-slider-response","312","","","","1",""
"null","","","","","3","html-keyboard-response","313","","","","",""
"4305","triangle","kihozi,bentaha,liog,kasadpan","kasadpan","n","3","html-keyboard-response","314","n","kasadpan","true","","4"
"1636.6000000238419","","","","","3","html-slider-response","315","","","","1",""
"null","","","","","3","html-keyboard-response","316","","","","",""
"4711","curtain","mchanga,lisud,bulwawan,chubani","mchanga","f","3","html-keyboard-response","317","n","chubani","false","","4"
"1724","","","","","3","html-slider-response","318","","","","1",""
"null","","","","","3","html-keyboard-response","319","","","","",""
"4867","clock","kartasi,abang,osha,mbwa","mbwa","n","3","html-keyboard-response","320","j","osha","false","","4"
"1566.2999999821186","","","","","3","html-slider-response","321","","","","1",""
"null","","","","","3","html-keyboard-response","322","","","","",""
"4978","mirror","rangi,kanding,sulagma,furaha","sulagma","j","3","html-keyboard-response","323","v","kanding","false","","4"
"1607.699999988079","","","","","3","html-slider-response","324","","","","1",""
"null","","","","","3","html-keyboard-response","325","","","","",""
"2013","coffin","barua,tubag,kioo,hulma","kioo","j","3","html-keyboard-response","326","j","kioo","true","","1"
"1740.5","","","","","3","html-slider-response","327","","","","4",""
"null","","","","","3","html-keyboard-response","328","","","","",""
"4520","magazine","kiti,gundi,mchawi,bahandi","kiti","f","3","html-keyboard-response","329","n","bahandi","false","","4"
"2460","","","","","3","html-slider-response","330","","","","1",""
"null","","","","","3","html-keyboard-response","331","","","","",""
"2239","column","ufagio,pundok,dila,pala","ufagio","f","3","html-keyboard-response","332","f","ufagio","true","","1"
"3266.5999999940395","","","","","3","html-slider-response","333","","","","5",""
"null","","","","","3","html-keyboard-response","334","","","","",""
"4705","number","shule,kengele,choori,mundamo","mundamo","n","3","html-keyboard-response","335","j","choori","false","","4"
"1912.0999999940395","","","","","3","html-slider-response","336","","","","1",""
"null","","","","","3","html-keyboard-response","337","","","","",""
"5688","rose","paghalad,singizi,mwanake,amani","paghalad","f","3","html-keyboard-response","338","j","mwanake","false","","4"
"2753.699999988079","","","","","3","html-slider-response","339","","","","1",""
"null","","","","","3","html-keyboard-response","340","","","","",""
"2958","eel","ishara,kunywa,msumari,kabuang","msumari","j","3","html-keyboard-response","341","j","msumari","true","","4"
"2111.4000000059605","","","","","3","html-slider-response","342","","","","2",""
"null","","","","","3","html-keyboard-response","343","","","","",""
"2757","gift","baba,nyange,baso,pagtawag","pagtawag","n","3","html-keyboard-response","344","j","baso","false","","4"
"1776","","","","","3","html-slider-response","345","","","","2",""
"null","","","","","3","html-keyboard-response","346","","","","",""
"1873","apple","kisu,ukame,estante,edad","kisu","f","3","html-keyboard-response","347","f","kisu","true","","1"
"1417.4000000059605","","","","","3","html-slider-response","348","","","","5",""
"null","","","","","3","html-keyboard-response","349","","","","",""
"1606","wheel","punda,tawo,bafuni,baadaye","bafuni","j","3","html-keyboard-response","350","j","bafuni","true","","1"
"1559.300000011921","","","","","3","html-slider-response","351","","","","5",""
"null","","","","","3","html-keyboard-response","352","","","","",""
"5447","knee","mvuke,kubale,duka,bili","duka","j","3","html-keyboard-response","353","v","kubale","false","","4"
"1519.4000000059605","","","","","3","html-slider-response","354","","","","1",""
"null","","","","","3","html-keyboard-response","355","","","","",""
"1354","basket","kumbuka,kumba,utepe,hasira","kumba","v","3","html-keyboard-response","356","v","kumba","true","","1"
"1791.2999999821186","","","","","3","html-slider-response","357","","","","1",""
"null","","","","","3","html-keyboard-response","358","","","","",""
"8277","park","tambok,pwani,ihalas,bunifu","bunifu","n","3","html-keyboard-response","359","j","ihalas","false","","4"
"2298.9000000059605","","","","","3","html-slider-response","360","","","","1",""
"null","","","","","3","html-keyboard-response","361","","","","",""
"1790","finger","moyo,simu,sufuria,lima","moyo","f","3","html-keyboard-response","362","v","simu","false","","4"
"1608.800000011921","","","","","3","html-slider-response","363","","","","1",""
"null","","","","","3","html-keyboard-response","364","","","","",""
"5860","boat","agalon,hamsi,pombe,kitanda","agalon","f","3","html-keyboard-response","365","n","kitanda","false","","4"
"1685.0999999940395","","","","","3","html-slider-response","366","","","","2",""
"null","","","","","3","html-keyboard-response","367","","","","",""
"7802","hill","kushoto,kukimba,sweta,matumbo","matumbo","n","3","html-keyboard-response","368","v","kukimba","false","","4"
"6401.300000011921","","","","","3","html-slider-response","369","","","","2",""
"null","","","","","3","html-keyboard-response","370","","","","",""
"2316","train","itik,dakika,sayari,mungu","sayari","j","3","html-keyboard-response","371","j","sayari","true","","4"
"82092.19999998808","","","","","3","html-slider-response","372","","","","1",""
"null","","","","","3","html-keyboard-response","373","","","","",""
"4417","wolf","kaburi,ndizi,lugha,mchuzi","lugha","j","3","html-keyboard-response","374","v","ndizi","false","","4"
"2986.2000000178814","","","","","3","html-slider-response","375","","","","1",""
"null","","","","","3","html-keyboard-response","376","","","","",""
"2283","snake","jansa,karon,pagtukod,mvringo","pagtukod","j","3","html-keyboard-response","377","j","pagtukod","true","","4"
"1537.5","","","","","3","html-slider-response","378","","","","1",""
"null","","","","","3","html-keyboard-response","379","","","","",""
"3321","tooth","kijiko,kabalaka,uadui,pahiyum","kabalaka","v","3","html-keyboard-response","380","v","kabalaka","true","","4"
"1490.2000000178814","","","","","3","html-slider-response","381","","","","2",""
"null","","","","","3","html-keyboard-response","382","","","","",""
"3454","notebook","msitu,kila,kemia,mdudu","kemia","j","3","html-keyboard-response","383","f","msitu","false","","4"
"1760.9000000059605","","","","","3","html-slider-response","384","","","","1",""
"null","","","","","3","html-keyboard-response","385","","","","",""
"4458","flag","ndege,trekta,mkate,kawa","trekta","v","3","html-keyboard-response","386","j","mkate","false","","4"
"1685.4000000059605","","","","","3","html-slider-response","387","","","","1",""
"null","","","","","3","html-keyboard-response","388","","","","",""
"2543","squirrel","mahugaw,ukweli,hofu,kichwa","hofu","j","3","html-keyboard-response","389","j","hofu","true","","4"
"1784.199999988079","","","","","3","html-slider-response","390","","","","1",""
"null","","","","","3","html-keyboard-response","391","","","","",""
"3946","door","tena,soko,nyota,surali","surali","n","3","html-keyboard-response","392","j","nyota","false","","4"
"1483","","","","","3","html-slider-response","393","","","","1",""
"null","","","","","3","html-keyboard-response","394","","","","",""
"4929","salmon","mzungu,seri,baharia,sensilyo","sensilyo","n","3","html-keyboard-response","395","v","seri","false","","4"
"1667.699999988079","","","","","3","html-slider-response","396","","","","1",""
"null","","","","","3","html-keyboard-response","397","","","","",""
"7494","shoulder","kelele,mkuu,ndaniya,guruwe","mkuu","v","3","html-keyboard-response","398","n","guruwe","false","","4"
"1678.2999999821186","","","","","3","html-slider-response","399","","","","1",""
"null","","","","","3","html-keyboard-response","400","","","","",""
"2119","lamp","daub,bilaska,afya,mbolea","afya","j","3","html-keyboard-response","401","v","bilaska","false","","4"
"1674.9000000059605","","","","","3","html-slider-response","402","","","","1",""
"null","","","","","3","html-keyboard-response","403","","","","",""
"1470","shelf","bungtod,pamahaw,kadaot,awit","pamahaw","v","3","html-keyboard-response","404","v","pamahaw","true","","1"
"2590.199999988079","","","","","3","html-slider-response","405","","","","5",""
"null","","","","","3","html-keyboard-response","406","","","","",""
"2391","human","bado,kikapu,punguza,tinapay","tinapay","n","3","html-keyboard-response","407","v","kikapu","false","","4"
"1828.5","","","","","3","html-slider-response","408","","","","1",""
"null","","","","","3","html-keyboard-response","409","","","","",""
"4607","towel","tembo,pagpalit,funzi,pito","pagpalit","v","3","html-keyboard-response","410","v","pagpalit","true","","4"
"1918.9000000059605","","","","","3","html-slider-response","411","","","","1",""
"null","","","","","3","html-keyboard-response","412","","","","",""
"6557","cat","neyemba,paghukom,baki,akili","paghukom","v","3","html-keyboard-response","413","j","baki","false","","4"
"2368.9000000059605","","","","","3","html-slider-response","414","","","","1",""
"null","","","","","3","html-keyboard-response","415","","","","",""
"4992","spider","bunyag,kamwe,mkboa,atop","kamwe","v","3","html-keyboard-response","416","v","kamwe","true","","4"
"1845.5999999940395","","","","","3","html-slider-response","417","","","","2",""
"null","","","","","3","html-keyboard-response","418","","","","",""
"2909","window","nanga,kweli,kujenga,umaga","kweli","v","3","html-keyboard-response","419","v","kweli","true","","4"
"2005.699999988079","","","","","3","html-slider-response","420","","","","1",""
"null","","","","","3","html-keyboard-response","421","","","","",""
"1817","woman","pagtabon,bandari,bituin,kovuli","pagtabon","f","3","html-keyboard-response","422","f","pagtabon","true","","1"
"1727.300000011921","","","","","3","html-slider-response","423","","","","5",""
"null","","","","","3","html-keyboard-response","424","","","","",""
"4359","giraffe","mahitabo,daraja,jumatu,hangyo","mahitabo","f","3","html-keyboard-response","425","v","daraja","false","","4"
"3849.5999999940395","","","","","3","html-slider-response","426","","","","2",""
"null","","","","","3","html-keyboard-response","427","","","","",""
"3749","elephant","kito,petye,pagduol,suka","kito","f","3","html-keyboard-response","428","f","kito","true","","4"
"2723.7999999821186","","","","","3","html-slider-response","429","","","","2",""
"null","","","","","3","html-keyboard-response","430","","","","",""
"9075","cave","ganti,kesho,maisha,nyundo","kesho","v","3","html-keyboard-response","431","n","nyundo","false","","4"
"1815.0999999940395","","","","","3","html-slider-response","432","","","","1",""
"null","","","","","3","html-keyboard-response","433","","","","",""
"2583","bread","kaili,dizeli,dari,bugas","dari","j","3","html-keyboard-response","434","j","dari","true","","4"
"2053.7999999821186","","","","","3","html-slider-response","435","","","","1",""
"null","","","","","3","html-keyboard-response","436","","","","",""
"4446","stone","ulimwengu,mkasi,asili,wingi","wingi","n","3","html-keyboard-response","437","v","mkasi","false","","4"
"1715.5999999940395","","","","","3","html-slider-response","438","","","","2",""
"null","","","","","3","html-keyboard-response","439","","","","",""
"3877","donkey","bloke,lalake,elfu,rombus","elfu","j","3","html-keyboard-response","440","j","elfu","true","","4"
"1983.199999988079","","","","","3","html-slider-response","441","","","","4",""
"null","","","","","3","html-keyboard-response","442","","","","",""
"6767","bridge","sahani,daima,ngono,panya","sahani","f","3","html-keyboard-response","443","f","sahani","true","","4"
"1636.4000000059605","","","","","3","html-slider-response","444","","","","1",""
"null","","","","","3","html-keyboard-response","445","","","","",""
"2290","bonfire","mwezi,mfuko,goti,kusanya","goti","j","3","html-keyboard-response","446","j","goti","true","","4"
"1427.2999999821186","","","","","3","html-slider-response","447","","","","2",""
"null","","","","","3","html-keyboard-response","448","","","","",""
"2087","book","kuhesa,mali,picha,mara","mali","v","3","html-keyboard-response","449","j","picha","false","","4"
"2090","","","","","3","html-slider-response","450","","","","2",""
"null","","","","","3","html-keyboard-response","451","","","","",""
"3600","fish","bala,buli,baho,imani","buli","v","3","html-keyboard-response","452","v","buli","true","","4"
"2087.800000011921","","","","","3","html-slider-response","453","","","","2",""
"null","","","","","3","html-keyboard-response","454","","","","",""
"2774","spoon","betri,nzuri,pagsulod,ngazi","pagsulod","j","3","html-keyboard-response","455","n","ngazi","false","","4"
"1747","","","","","3","html-slider-response","456","","","","2",""
"null","","","","","3","html-keyboard-response","457","","","","",""
"3120","scissors","duga,tanuri,mtawa,suga","tanuri","v","3","html-keyboard-response","458","v","tanuri","true","","4"
"1543","","","","","3","html-slider-response","459","","","","2",""
"null","","","","","3","html-keyboard-response","460","","","","",""
"3661","page","wakala,wimbo,ishiri,skina","wimbo","v","3","html-keyboard-response","461","j","ishiri","false","","4"
"1403.5999999940395","","","","","3","html-slider-response","462","","","","2",""
"null","","","","","3","html-keyboard-response","463","","","","",""
"1238","nose","gubat,kopa,kidole,sehemu","sehemu","n","3","html-keyboard-response","464","n","sehemu","true","","1"
"1506.300000011921","","","","","3","html-slider-response","465","","","","5",""
"null","","","","","3","html-keyboard-response","466","","","","",""
"2632","ceiling","kugita,maua,kawaida,rayna","maua","v","3","html-keyboard-response","467","n","rayna","false","","4"
"1688.9000000059605","","","","","3","html-slider-response","468","","","","1",""
"null","","","","","3","html-keyboard-response","469","","","","",""
"5128","bucket","baga,ijayo,init,kiatu","kiatu","n","3","html-keyboard-response","470","n","kiatu","true","","4"
"1393.7000000178814","","","","","3","html-slider-response","471","","","","1",""
"null","","","","","3","html-keyboard-response","472","","","","",""
"1330","berry","abogado,nogozi,kinywa,kofia","kofia","n","3","html-keyboard-response","473","n","kofia","true","","1"
"1683.800000011921","","","","","3","html-slider-response","474","","","","5",""
"null","","","","","3","html-keyboard-response","475","","","","",""
"1580","mother","kahawa,mbuzi,babaye,jokofu","babaye","j","3","html-keyboard-response","476","j","babaye","true","","1"
"2074.5999999940395","","","","","3","html-slider-response","477","","","","5",""
"null","","","","","3","html-keyboard-response","478","","","","",""
"4277","mosquito","isda,taras,gutom,martilyo","martilyo","n","3","html-keyboard-response","479","j","gutom","false","","4"
"1817.2000000178814","","","","","3","html-slider-response","480","","","","1",""
"null","","","","","3","html-keyboard-response","481","","","","",""
"3109","perfume","katuyoan,bino,sungura,ndogo","katuyoan","f","3","html-keyboard-response","482","f","katuyoan","true","","4"
"1555","","","","","3","html-slider-response","483","","","","1",""
"null","","","","","3","html-keyboard-response","484","","","","",""
"2101","sheet","juuya,bililhon,watu,kamantis","bililhon","v","3","html-keyboard-response","485","v","bililhon","true","","4"
"2021.5999999940395","","","","","3","html-slider-response","486","","","","1",""
"null","","","","","3","html-keyboard-response","487","","","","",""
"2576","puppet","mazishi,napulo,lamok,godoro","mazishi","f","3","html-keyboard-response","488","f","mazishi","true","","1"
"2100.7999999821186","","","","","3","html-slider-response","489","","","","1",""
"null","","","","","3","html-keyboard-response","490","","","","",""
"4334","poster","nchi,fedha,madungog,kasuko","madungog","j","3","html-keyboard-response","491","j","madungog","true","","4"
"1689.800000011921","","","","","3","html-slider-response","492","","","","4",""
"null","","","","","3","html-keyboard-response","493","","","","",""
"6473","music","mraba,baiski,mageho,tumbo","baiski","v","3","html-keyboard-response","494","v","baiski","true","","4"
"1623","","","","","3","html-slider-response","495","","","","2",""
"null","","","","","3","html-keyboard-response","496","","","","",""
"3042","key","miaka,goma,ahos,chombo","chombo","n","3","html-keyboard-response","497","n","chombo","true","","4"
"1474.7999999821186","","","","","3","html-slider-response","498","","","","2",""
"null","","","","","3","html-keyboard-response","499","","","","",""
"3510","sock","ndoora,kimysa,mtirka,mamba","mamba","n","3","html-keyboard-response","500","f","ndoora","false","","4"
"1305.800000011921","","","","","3","html-slider-response","501","","","","4",""
"null","","","","","3","html-keyboard-response","502","","","","",""
"5970","marker","maji,mapafu,salita,atay","maji","f","3","html-keyboard-response","503","f","maji","true","","4"
"2485.800000011921","","","","","3","html-slider-response","504","","","","4",""
"null","","","","","3","html-keyboard-response","505","","","","",""
"3879","office","hazini,leso,yatima,kuna","leso","v","3","html-keyboard-response","506","v","leso","true","","4"
"2124.0999999940395","","","","","3","html-slider-response","507","","","","4",""
"null","","","","","3","html-keyboard-response","508","","","","",""
"16581","shoe","nyeusi,hatua,kama,uyoga","uyoga","n","3","html-keyboard-response","509","f","nyeusi","false","","4"
"2262.4000000059605","","","","","3","html-slider-response","510","","","","1",""
"null","","","","","3","html-keyboard-response","511","","","","",""
"3647","cop","mechezo,bustani,jikoni,bakus","mechezo","f","3","html-keyboard-response","512","f","mechezo","true","","4"
"1639.4000000059605","","","","","3","html-slider-response","513","","","","4",""
"null","","","","","3","html-keyboard-response","514","","","","",""
"17248","bank","kudhibi,tualya,silingan,ofisi","silingan","j","3","html-keyboard-response","515","f","kudhibi","false","","4"
"5447.799999982119","","","","","3","html-slider-response","516","","","","1",""
"null","","","","","3","html-keyboard-response","517","","","","",""
"1881","letter","filimbi,chuma,uhuru,kifua","kifua","n","3","html-keyboard-response","518","n","kifua","true","","1"
"2707.0999999940395","","","","","3","html-slider-response","519","","","","5",""
"null","","","","","3","html-keyboard-response","520","","","","",""
"1280","dog","lubi,washia,kalamu,bahari","bahari","n","3","html-keyboard-response","521","n","bahari","true","","1"
"2259.699999988079","","","","","3","html-slider-response","522","","","","5",""
"null","","","","","3","html-keyboard-response","523","","","","",""
"3077","shop","nopya,kerida,ndezu,samaki","samaki","n","3","html-keyboard-response","524","v","kerida","false","","4"
"1640.2999999821186","","","","","3","html-slider-response","525","","","","2",""
"null","","","","","3","html-keyboard-response","526","","","","",""
"5096","flower","tamasha,lobo,bega,usiku","bega","j","3","html-keyboard-response","527","j","bega","true","","4"
"2282.0999999940395","","","","","3","html-slider-response","528","","","","4",""
"null","","","","","3","html-keyboard-response","529","","","","",""
"1323","cigar","ndugu,kuta,mlango,adhabu","adhabu","n","3","html-keyboard-response","530","n","adhabu","true","","1"
"1887.199999988079","","","","","3","html-slider-response","531","","","","5",""
"null","","","","","3","html-keyboard-response","532","","","","",""
"2539","hammer","mekno,napakyas,kitovu,layag","napakyas","v","3","html-keyboard-response","533","n","layag","false","","4"
"1553.5999999940395","","","","","3","html-slider-response","534","","","","2",""
"null","","","","","3","html-keyboard-response","535","","","","",""
"2518","fork","baboy,mgonjwa,paghago,gorisi","mgonjwa","v","3","html-keyboard-response","536","v","mgonjwa","true","","4"
"2231","","","","","3","html-slider-response","537","","","","1",""
"null","","","","","3","html-keyboard-response","538","","","","",""
"1480","sun","basi,bendi,luha,uongo","basi","f","3","html-keyboard-response","539","f","basi","true","","1"
"2089.5999999940395","","","","","3","html-slider-response","540","","","","5",""
"null","","","","","3","html-keyboard-response","541","","","","",""
"11848","ladder","mashua,mwanga,kamba,pangalan","pangalan","n","3","html-keyboard-response","542","n","pangalan","true","","4"
"2300.300000011921","","","","","3","html-slider-response","543","","","","2",""
"null","","","","","3","html-keyboard-response","544","","","","",""
"1444","banana","kazi,kasamok,hagdan,twai","kazi","f","3","html-keyboard-response","545","f","kazi","true","","1"
"2033.699999988079","","","","","3","html-slider-response","546","","","","4",""
"null","","","","","3","html-keyboard-response","547","","","","",""
"3704","pudding","abug,mpishi,iring,aibu","aibu","n","3","html-keyboard-response","548","n","aibu","true","","4"
"1797.0999999940395","","","","","3","html-slider-response","549","","","","2",""
"null","","","","","3","html-keyboard-response","550","","","","",""
"5319","body","nyundu,tindashan,jibini,kununa","tindashan","v","3","html-keyboard-response","551","v","tindashan","true","","4"
"1831.800000011921","","","","","3","html-slider-response","552","","","","2",""
"null","","","","","3","html-keyboard-response","553","","","","",""
"2051","bed","kalipay,haraka,starehe,mapintas","mapintas","n","3","html-keyboard-response","554","v","haraka","false","","4"
"1522.1000000238419","","","","","3","html-slider-response","555","","","","2",""
"null","","","","","3","html-keyboard-response","556","","","","",""
"2504","tissue","lamigas,ugomvi,kisiwa,katika","ugomvi","v","3","html-keyboard-response","557","j","kisiwa","false","","4"
"3431.5999999940395","","","","","3","html-slider-response","558","","","","2",""
"null","","","","","3","html-keyboard-response","559","","","","",""
"2424","candle","geza,gabi,farasi,kupanda","geza","f","3","html-keyboard-response","560","v","gabi","false","","4"
"2152.7000000178814","","","","","3","html-slider-response","561","","","","4",""
"null","","","","","3","html-keyboard-response","562","","","","",""
"1414","tomato","chupi,chupa,takatak,mvua","mvua","n","3","html-keyboard-response","563","n","mvua","true","","1"
"2911.5","","","","","3","html-slider-response","564","","","","5",""
"null","","","","","3","html-keyboard-response","565","","","","",""
"4611","list","alizeti,kuzama,wingu,kaso","wingu","j","3","html-keyboard-response","566","v","kuzama","false","","4"
"2342.699999988079","","","","","3","html-slider-response","567","","","","4",""
"null","","","","","3","html-keyboard-response","568","","","","",""
"9902","olive","bata,siagi,jiwe,welder","jiwe","j","3","html-keyboard-response","569","v","siagi","false","","4"
"3147.800000011921","","","","","3","html-slider-response","570","","","","1",""
"null","","","","","3","html-keyboard-response","571","","","","",""
"2441","picture","silya,chaki,asin,kubwa","kubwa","n","3","html-keyboard-response","572","n","kubwa","true","","1"
"2421.5999999940395","","","","","3","html-slider-response","573","","","","5",""
"null","","","","","3","html-keyboard-response","574","","","","",""
