"rt","en_word","options","swa_word","correct_answer","phase","trial_type","trial_index","input_answer","input_word","accuracy","certainty","amt_choices"
"18122","bonfire","mwezi,goti,mfuko,kusanya","goti","v","2","html-keyboard-response","114","v","goti","true","",""
"3736.800000011921","","","","","2","html-slider-response","115","","","","4",""
"10660","flower","tamasha,lobo,bega,usiku","bega","j","2","html-keyboard-response","116","j","bega","true","",""
"2499.5","","","","","2","html-slider-response","117","","","","4",""
"7749","column","pundok,dila,pala,ufagio","ufagio","n","2","html-keyboard-response","118","n","ufagio","true","",""
"2044.300000011921","","","","","2","html-slider-response","119","","","","4",""
"5465","music","mraba,mageho,baiski,tumbo","baiski","j","2","html-keyboard-response","120","j","baiski","true","",""
"3158.600000023842","","","","","2","html-slider-response","121","","","","5",""
"8048","spider","bunyag,mkboa,atop,kamwe","kamwe","n","2","html-keyboard-response","122","n","kamwe","true","",""
"2128.199999988079","","","","","2","html-slider-response","123","","","","4",""
"4459","fork","baboy,paghago,gorisi,mgonjwa","mgonjwa","n","2","html-keyboard-response","124","n","mgonjwa","true","",""
"2568.199999988079","","","","","2","html-slider-response","125","","","","4",""
"8114","mosquito","martilyo,isda,taras,gutom","martilyo","f","2","html-keyboard-response","126","v","isda","false","",""
"3103.5","","","","","2","html-slider-response","127","","","","2",""
"2899","banana","kasamok,kazi,hagdan,twai","kazi","v","2","html-keyboard-response","128","n","twai","false","",""
"3327.400000035763","","","","","2","html-slider-response","129","","","","2",""
"3011","cup","dagat,shimoni,jeraha,matumai","matumai","n","2","html-keyboard-response","130","j","jeraha","false","",""
"3031.600000023842","","","","","2","html-slider-response","131","","","","2",""
"4843","shop","nopya,samaki,kerida,ndezu","samaki","v","2","html-keyboard-response","132","v","samaki","true","",""
"5603.600000023842","","","","","2","html-slider-response","133","","","","1",""
"3110","elephant","kito,petye,pagduol,suka","kito","f","2","html-keyboard-response","134","j","pagduol","false","",""
"2594.099999964237","","","","","2","html-slider-response","135","","","","2",""
"5070","bucket","kiatu,baga,ijayo,init","kiatu","f","2","html-keyboard-response","136","j","ijayo","false","",""
"3006.7999999523163","","","","","2","html-slider-response","137","","","","3",""
"4457","book","kuhesa,picha,mara,mali","mali","n","2","html-keyboard-response","138","f","kuhesa","false","",""
"3400.100000023842","","","","","2","html-slider-response","139","","","","3",""
"22203","mirror","rangi,kanding,furaha,sulagma","sulagma","n","2","html-keyboard-response","140","n","sulagma","true","",""
"3187.300000011921","","","","","2","html-slider-response","141","","","","5",""
"18592","office","hazini,yatima,leso,kuna","leso","j","2","html-keyboard-response","142","v","yatima","false","",""
"3095","","","","","2","html-slider-response","143","","","","2",""
"57293","body","tindashan,nyundu,jibini,kununa","tindashan","f","2","html-keyboard-response","144","f","tindashan","true","",""
"2778.300000011921","","","","","2","html-slider-response","145","","","","2",""
"4165","perfume","bino,katuyoan,sungura,ndogo","katuyoan","v","2","html-keyboard-response","146","v","katuyoan","true","",""
"2566.199999988079","","","","","2","html-slider-response","147","","","","2",""
"4079","olive","bata,jiwe,siagi,welder","jiwe","v","2","html-keyboard-response","148","f","bata","false","",""
"3747.899999976158","","","","","2","html-slider-response","149","","","","3",""
"7783","magazine","kiti,gundi,mchawi,bahandi","kiti","f","2","html-keyboard-response","150","j","mchawi","false","",""
"2256.5","","","","","2","html-slider-response","151","","","","2",""
"8633","bread","kaili,dizeli,dari,bugas","dari","j","2","html-keyboard-response","152","f","kaili","false","",""
"3062.900000035763","","","","","2","html-slider-response","153","","","","3",""
"3116","cave","kesho,ganti,maisha,nyundo","kesho","f","2","html-keyboard-response","154","n","nyundo","false","",""
"2298.399999976158","","","","","2","html-slider-response","155","","","","2",""
"4996","ladder","pangalan,mashua,mwanga,kamba","pangalan","f","2","html-keyboard-response","156","n","kamba","false","",""
"2332","","","","","2","html-slider-response","157","","","","2",""
"4069","human","bado,kikapu,punguza,tinapay","tinapay","n","2","html-keyboard-response","158","f","bado","false","",""
"6675.900000035763","","","","","2","html-slider-response","159","","","","3",""
"32119","clock","kartasi,abang,osha,mbwa","mbwa","n","2","html-keyboard-response","160","n","mbwa","true","",""
"2294.5","","","","","2","html-slider-response","161","","","","5",""
"32188","shelf","bungtod,pamahaw,kadaot,awit","pamahaw","v","2","html-keyboard-response","162","f","bungtod","false","",""
"2204.199999988079","","","","","2","html-slider-response","163","","","","2",""
"11293","salmon","sensilyo,mzungu,seri,baharia","sensilyo","f","2","html-keyboard-response","164","j","seri","false","",""
"2118.400000035763","","","","","2","html-slider-response","165","","","","2",""
"3299","coffin","barua,tubag,kioo,hulma","kioo","j","2","html-keyboard-response","166","n","hulma","false","",""
"2399","","","","","2","html-slider-response","167","","","","2",""
"3802","notebook","msitu,kila,kemia,mdudu","kemia","j","2","html-keyboard-response","168","j","kemia","true","",""
"3066.800000011921","","","","","2","html-slider-response","169","","","","3",""
"2957","shoulder","kelele,ndaniya,guruwe,mkuu","mkuu","n","2","html-keyboard-response","170","n","mkuu","true","",""
"2319.099999964237","","","","","2","html-slider-response","171","","","","2",""
"4748","park","tambok,pwani,ihalas,bunifu","bunifu","n","2","html-keyboard-response","172","v","pwani","false","",""
"8357.800000011921","","","","","2","html-slider-response","173","","","","2",""
"3863","number","shule,kengele,mundamo,choori","mundamo","j","2","html-keyboard-response","174","j","mundamo","true","",""
"2606.7999999523163","","","","","2","html-slider-response","175","","","","3",""
"6241","apple","ukame,kisu,estante,edad","kisu","v","2","html-keyboard-response","176","v","kisu","true","",""
"3039.599999964237","","","","","2","html-slider-response","177","","","","2",""
"4126","letter","filimbi,chuma,kifua,uhuru","kifua","j","2","html-keyboard-response","178","v","chuma","false","",""
"2360.199999988079","","","","","2","html-slider-response","179","","","","2",""
"2968","eel","ishara,msumari,kunywa,kabuang","msumari","v","2","html-keyboard-response","180","n","kabuang","false","",""
"2594.199999988079","","","","","2","html-slider-response","181","","","","2",""
"7303","cop","mechezo,bustani,jikoni,bakus","mechezo","f","2","html-keyboard-response","182","f","mechezo","true","",""
"3402.100000023842","","","","","2","html-slider-response","183","","","","2",""
"4807","wolf","kaburi,lugha,ndizi,mchuzi","lugha","v","2","html-keyboard-response","184","v","lugha","true","",""
"2930","","","","","2","html-slider-response","185","","","","2",""
"5712","squirrel","mahugaw,ukweli,hofu,kichwa","hofu","j","2","html-keyboard-response","186","n","kichwa","false","",""
"3781","","","","","2","html-slider-response","187","","","","3",""
"3972","nose","gubat,kopa,sehemu,kidole","sehemu","j","2","html-keyboard-response","188","f","gubat","false","",""
"3274.800000011921","","","","","2","html-slider-response","189","","","","3",""
"7165","sock","mamba,ndoora,kimysa,mtirka","mamba","f","2","html-keyboard-response","190","f","mamba","true","",""
"3597.899999976158","","","","","2","html-slider-response","191","","","","3",""
"5109","bank","silingan,kudhibi,tualya,ofisi","silingan","f","2","html-keyboard-response","192","v","kudhibi","false","",""
"2830","","","","","2","html-slider-response","193","","","","3",""
"2676","donkey","bloke,lalake,rombus,elfu","elfu","n","2","html-keyboard-response","194","n","elfu","true","",""
"2595.400000035763","","","","","2","html-slider-response","195","","","","2",""
"5578","poster","nchi,madungog,fedha,kasuko","madungog","v","2","html-keyboard-response","196","v","madungog","true","",""
"2495","","","","","2","html-slider-response","197","","","","3",""
"4101","puppet","napulo,lamok,godoro,mazishi","mazishi","n","2","html-keyboard-response","198","f","napulo","false","",""
"2344.600000023842","","","","","2","html-slider-response","199","","","","2",""
"6221","hill","kushoto,kukimba,sweta,matumbo","matumbo","n","2","html-keyboard-response","200","j","sweta","false","",""
"4920.699999988079","","","","","2","html-slider-response","201","","","","2",""
"3868","tooth","kabalaka,kijiko,uadui,pahiyum","kabalaka","f","2","html-keyboard-response","202","v","kijiko","false","",""
"7959.699999988079","","","","","2","html-slider-response","203","","","","2",""
"2206","woman","bandari,bituin,pagtabon,kovuli","pagtabon","j","2","html-keyboard-response","204","j","pagtabon","true","",""
"2733.7000000476837","","","","","2","html-slider-response","205","","","","2",""
"5258","wheel","bafuni,punda,tawo,baadaye","bafuni","f","2","html-keyboard-response","206","n","baadaye","false","",""
"5009.5","","","","","2","html-slider-response","207","","","","2",""
"3397","mother","kahawa,babaye,mbuzi,jokofu","babaye","v","2","html-keyboard-response","208","v","babaye","true","",""
"5873.600000023842","","","","","2","html-slider-response","209","","","","3",""
"3061","bed","mapintas,kalipay,haraka,starehe","mapintas","f","2","html-keyboard-response","210","n","starehe","false","",""
"2671.899999976158","","","","","2","html-slider-response","211","","","","2",""
"5213","key","miaka,goma,chombo,ahos","chombo","j","2","html-keyboard-response","212","j","chombo","true","",""
"4221.799999952316","","","","","2","html-slider-response","213","","","","2",""
"3690","page","wakala,ishiri,skina,wimbo","wimbo","n","2","html-keyboard-response","214","v","ishiri","false","",""
"3761.099999964237","","","","","2","html-slider-response","215","","","","3",""
"6791","pants","pintal,chuki,haki,hari","haki","j","2","html-keyboard-response","216","j","haki","true","",""
"2690.900000035763","","","","","2","html-slider-response","217","","","","2",""
"6193","sun","bendi,basi,luha,uongo","basi","v","2","html-keyboard-response","218","f","bendi","false","",""
"3870.400000035763","","","","","2","html-slider-response","219","","","","3",""
"5381","finger","simu,moyo,sufuria,lima","moyo","v","2","html-keyboard-response","220","n","lima","false","",""
"3423","","","","","2","html-slider-response","221","","","","3",""
"4760","shoe","nyeusi,hatua,uyoga,kama","uyoga","j","2","html-keyboard-response","222","v","hatua","false","",""
"8335.5","","","","","2","html-slider-response","223","","","","2",""
"4150","giraffe","mahitabo,daraja,jumatu,hangyo","mahitabo","f","2","html-keyboard-response","224","j","jumatu","false","",""
"5666.099999964237","","","","","2","html-slider-response","225","","","","2",""
"4007","dog","bahari,lubi,washia,kalamu","bahari","f","2","html-keyboard-response","226","v","lubi","false","",""
"2803.5","","","","","2","html-slider-response","227","","","","4",""
"8374","box","adui,kuacha,rafiki,kitande","adui","f","2","html-keyboard-response","228","v","kuacha","false","",""
"5521.699999988079","","","","","2","html-slider-response","229","","","","2",""
"4273","scissors","duga,mtawa,tanuri,suga","tanuri","j","2","html-keyboard-response","230","n","suga","false","",""
"1858.199999988079","","","","","2","html-slider-response","231","","","","2",""
"7354","cat","neyemba,paghukom,baki,akili","paghukom","v","2","html-keyboard-response","232","n","akili","false","",""
"2793.5","","","","","2","html-slider-response","233","","","","3",""
"9808","basket","kumbuka,kumba,utepe,hasira","kumba","v","2","html-keyboard-response","234","v","kumba","true","",""
"3032","","","","","2","html-slider-response","235","","","","2",""
"3931","snake","jansa,karon,pagtukod,mvringo","pagtukod","j","2","html-keyboard-response","236","n","mvringo","false","",""
"2432.400000035763","","","","","2","html-slider-response","237","","","","2",""
"4351","gift","pagtawag,baba,nyange,baso","pagtawag","f","2","html-keyboard-response","238","n","baso","false","",""
"2666.699999988079","","","","","2","html-slider-response","239","","","","2",""
"9485","train","itik,dakika,mungu,sayari","sayari","n","2","html-keyboard-response","240","j","mungu","false","",""
"2399.099999964237","","","","","2","html-slider-response","241","","","","2",""
"3204","pudding","abug,aibu,mpishi,iring","aibu","v","2","html-keyboard-response","242","f","abug","false","",""
"3308.800000011921","","","","","2","html-slider-response","243","","","","3",""
"3067","tomato","chupi,mvua,chupa,takatak","mvua","v","2","html-keyboard-response","244","n","takatak","false","",""
"2680.2000000476837","","","","","2","html-slider-response","245","","","","2",""
"7901","stone","ulimwengu,mkasi,asili,wingi","wingi","n","2","html-keyboard-response","246","f","ulimwengu","false","",""
"6124","","","","","2","html-slider-response","247","","","","2",""
"6103","hammer","mekno,kitovu,napakyas,layag","napakyas","j","2","html-keyboard-response","248","v","kitovu","false","",""
"2948.600000023842","","","","","2","html-slider-response","249","","","","3",""
"5853","knee","mvuke,duka,kubale,bili","duka","v","2","html-keyboard-response","250","v","duka","true","",""
"2596.100000023842","","","","","2","html-slider-response","251","","","","3",""
"7054","ceiling","kugita,kawaida,rayna,maua","maua","n","2","html-keyboard-response","252","v","kawaida","false","",""
"1994.699999988079","","","","","2","html-slider-response","253","","","","2",""
"7291","spoon","pagsulod,betri,nzuri,ngazi","pagsulod","f","2","html-keyboard-response","254","n","ngazi","false","",""
"2293.300000011921","","","","","2","html-slider-response","255","","","","2",""
"4670","marker","mapafu,maji,salita,atay","maji","v","2","html-keyboard-response","256","j","salita","false","",""
"3134.800000011921","","","","","2","html-slider-response","257","","","","3",""
"8409","candle","gabi,geza,farasi,kupanda","geza","v","2","html-keyboard-response","258","v","geza","true","",""
"4013.899999976158","","","","","2","html-slider-response","259","","","","1",""
"5816","tissue","ugomvi,lamigas,kisiwa,katika","ugomvi","f","2","html-keyboard-response","260","v","lamigas","false","",""
"2461.300000011921","","","","","2","html-slider-response","261","","","","2",""
"7671","bridge","daima,ngono,sahani,panya","sahani","j","2","html-keyboard-response","262","v","ngono","false","",""
"2211.7999999523163","","","","","2","html-slider-response","263","","","","2",""
"4973","berry","abogado,kofia,nogozi,kinywa","kofia","v","2","html-keyboard-response","264","v","kofia","true","",""
"2856.699999988079","","","","","2","html-slider-response","265","","","","2",""
"5607","triangle","kihozi,bentaha,liog,kasadpan","kasadpan","n","2","html-keyboard-response","266","j","liog","false","",""
"3031.400000035763","","","","","2","html-slider-response","267","","","","2",""
"3817","door","tena,surali,soko,nyota","surali","v","2","html-keyboard-response","268","v","surali","true","",""
"2949.900000035763","","","","","2","html-slider-response","269","","","","1",""
"6299","fish","bala,buli,baho,imani","buli","v","2","html-keyboard-response","270","v","buli","true","",""
"2879.099999964237","","","","","2","html-slider-response","271","","","","2",""
"4422","curtain","mchanga,lisud,bulwawan,chubani","mchanga","f","2","html-keyboard-response","272","j","bulwawan","false","",""
"2176.800000011921","","","","","2","html-slider-response","273","","","","2",""
"3025","flag","ndege,mkate,kawa,trekta","trekta","n","2","html-keyboard-response","274","v","mkate","false","",""
"2532.900000035763","","","","","2","html-slider-response","275","","","","1",""
"5747","boat","hamsi,pombe,agalon,kitanda","agalon","j","2","html-keyboard-response","276","v","pombe","false","",""
"2294.600000023842","","","","","2","html-slider-response","277","","","","2",""
"6470","rose","singizi,mwanake,paghalad,amani","paghalad","j","2","html-keyboard-response","278","j","paghalad","true","",""
"2603.199999988079","","","","","2","html-slider-response","279","","","","2",""
"3970","lamp","daub,afya,bilaska,mbolea","afya","v","2","html-keyboard-response","280","v","afya","true","",""
"4662.300000011921","","","","","2","html-slider-response","281","","","","3",""
"3132","cigar","adhabu,ndugu,kuta,mlango","adhabu","f","2","html-keyboard-response","282","v","ndugu","false","",""
"2300.699999988079","","","","","2","html-slider-response","283","","","","1",""
"4163","list","alizeti,kuzama,kaso,wingu","wingu","n","2","html-keyboard-response","284","v","kuzama","false","",""
"2264.899999976158","","","","","2","html-slider-response","285","","","","2",""
"6346","sheet","juuya,bililhon,watu,kamantis","bililhon","v","2","html-keyboard-response","286","v","bililhon","true","",""
"2756.300000011921","","","","","2","html-slider-response","287","","","","2",""
"3368","picture","silya,chaki,kubwa,asin","kubwa","j","2","html-keyboard-response","288","j","kubwa","true","",""
"3447.800000011921","","","","","2","html-slider-response","289","","","","1",""
"4738","towel","tembo,funzi,pito,pagpalit","pagpalit","n","2","html-keyboard-response","290","n","pagpalit","true","",""
"2498.800000011921","","","","","2","html-slider-response","291","","","","2",""
"4310","window","kweli,nanga,kujenga,umaga","kweli","f","2","html-keyboard-response","292","v","nanga","false","",""
"2506.699999988079","","","","","2","html-slider-response","293","","","","2",""
"2296","box","adui,kuacha,rafiki,kitande","adui","f","3","html-keyboard-response","310","v","kuacha","false","","4"
"2646.300000011921","","","","","3","html-slider-response","311","","","","2",""
"null","","","","","3","html-keyboard-response","312","","","","",""
"3748","pants","pintal,haki,chuki,hari","haki","v","3","html-keyboard-response","313","n","hari","false","","4"
"2590.5","","","","","3","html-slider-response","314","","","","2",""
"null","","","","","3","html-keyboard-response","315","","","","",""
"2763","cup","dagat,shimoni,matumai,jeraha","matumai","j","3","html-keyboard-response","316","j","matumai","true","","4"
"2488.199999988079","","","","","3","html-slider-response","317","","","","2",""
"null","","","","","3","html-keyboard-response","318","","","","",""
"3098","triangle","kihozi,bentaha,liog,kasadpan","kasadpan","n","3","html-keyboard-response","319","v","bentaha","false","","4"
"2353.2000000476837","","","","","3","html-slider-response","320","","","","2",""
"null","","","","","3","html-keyboard-response","321","","","","",""
"2719","curtain","lisud,bulwawan,mchanga,chubani","mchanga","j","3","html-keyboard-response","322","j","mchanga","true","","4"
"3789.2999999523163","","","","","3","html-slider-response","323","","","","2",""
"null","","","","","3","html-keyboard-response","324","","","","",""
"2610","clock","kartasi,abang,mbwa,osha","mbwa","j","3","html-keyboard-response","325","j","mbwa","true","","4"
"2317.600000023842","","","","","3","html-slider-response","326","","","","2",""
"null","","","","","3","html-keyboard-response","327","","","","",""
"2976","mirror","sulagma,rangi,kanding,furaha","sulagma","f","3","html-keyboard-response","328","v","rangi","false","","4"
"2671.800000011921","","","","","3","html-slider-response","329","","","","2",""
"null","","","","","3","html-keyboard-response","330","","","","",""
"2565","coffin","barua,tubag,kioo,hulma","kioo","j","3","html-keyboard-response","331","j","kioo","true","","1"
"2439.199999988079","","","","","3","html-slider-response","332","","","","5",""
"null","","","","","3","html-keyboard-response","333","","","","",""
"2748","magazine","kiti,gundi,mchawi,bahandi","kiti","f","3","html-keyboard-response","334","f","kiti","true","","4"
"2188.899999976158","","","","","3","html-slider-response","335","","","","2",""
"null","","","","","3","html-keyboard-response","336","","","","",""
"1645","column","pundok,dila,pala,ufagio","ufagio","n","3","html-keyboard-response","337","n","ufagio","true","","1"
"2382.900000035763","","","","","3","html-slider-response","338","","","","5",""
"null","","","","","3","html-keyboard-response","339","","","","",""
"2185","number","shule,mundamo,kengele,choori","mundamo","v","3","html-keyboard-response","340","v","mundamo","true","","4"
"2021","","","","","3","html-slider-response","341","","","","2",""
"null","","","","","3","html-keyboard-response","342","","","","",""
"3025","rose","singizi,paghalad,mwanake,amani","paghalad","v","3","html-keyboard-response","343","j","mwanake","false","","4"
"2099.699999988079","","","","","3","html-slider-response","344","","","","2",""
"null","","","","","3","html-keyboard-response","345","","","","",""
"2402","eel","msumari,ishara,kunywa,kabuang","msumari","f","3","html-keyboard-response","346","v","ishara","false","","4"
"2344.399999976158","","","","","3","html-slider-response","347","","","","2",""
"null","","","","","3","html-keyboard-response","348","","","","",""
"2216","gift","baba,nyange,pagtawag,baso","pagtawag","j","3","html-keyboard-response","349","n","baso","false","","4"
"2668","","","","","3","html-slider-response","350","","","","2",""
"null","","","","","3","html-keyboard-response","351","","","","",""
"2830","apple","ukame,estante,edad,kisu","kisu","n","3","html-keyboard-response","352","n","kisu","true","","1"
"3659.400000035763","","","","","3","html-slider-response","353","","","","5",""
"null","","","","","3","html-keyboard-response","354","","","","",""
"1763","wheel","punda,tawo,baadaye,bafuni","bafuni","n","3","html-keyboard-response","355","n","bafuni","true","","1"
"3068.599999964237","","","","","3","html-slider-response","356","","","","5",""
"null","","","","","3","html-keyboard-response","357","","","","",""
"3140","knee","mvuke,kubale,bili,duka","duka","n","3","html-keyboard-response","358","n","duka","true","","4"
"2964.199999988079","","","","","3","html-slider-response","359","","","","3",""
"null","","","","","3","html-keyboard-response","360","","","","",""
"2289","basket","kumbuka,utepe,kumba,hasira","kumba","j","3","html-keyboard-response","361","j","kumba","true","","1"
"3666.900000035763","","","","","3","html-slider-response","362","","","","5",""
"null","","","","","3","html-keyboard-response","363","","","","",""
"3819","park","tambok,bunifu,pwani,ihalas","bunifu","v","3","html-keyboard-response","364","v","bunifu","true","","4"
"2507.699999988079","","","","","3","html-slider-response","365","","","","2",""
"null","","","","","3","html-keyboard-response","366","","","","",""
"2300","finger","moyo,simu,sufuria,lima","moyo","f","3","html-keyboard-response","367","v","simu","false","","4"
"2269.400000035763","","","","","3","html-slider-response","368","","","","2",""
"null","","","","","3","html-keyboard-response","369","","","","",""
"2495","boat","hamsi,pombe,kitanda,agalon","agalon","n","3","html-keyboard-response","370","j","kitanda","false","","4"
"2221.300000011921","","","","","3","html-slider-response","371","","","","2",""
"null","","","","","3","html-keyboard-response","372","","","","",""
"1708","hill","kushoto,kukimba,sweta,matumbo","matumbo","n","3","html-keyboard-response","373","n","matumbo","true","","4"
"1905","","","","","3","html-slider-response","374","","","","2",""
"null","","","","","3","html-keyboard-response","375","","","","",""
"2929","train","itik,dakika,sayari,mungu","sayari","j","3","html-keyboard-response","376","j","sayari","true","","4"
"2243.900000035763","","","","","3","html-slider-response","377","","","","2",""
"null","","","","","3","html-keyboard-response","378","","","","",""
"4832","wolf","kaburi,lugha,ndizi,mchuzi","lugha","v","3","html-keyboard-response","379","v","lugha","true","","4"
"8040.399999976158","","","","","3","html-slider-response","380","","","","3",""
"null","","","","","3","html-keyboard-response","381","","","","",""
"1967","snake","jansa,pagtukod,karon,mvringo","pagtukod","v","3","html-keyboard-response","382","v","pagtukod","true","","4"
"2840.800000011921","","","","","3","html-slider-response","383","","","","2",""
"null","","","","","3","html-keyboard-response","384","","","","",""
"1703","tooth","kabalaka,kijiko,uadui,pahiyum","kabalaka","f","3","html-keyboard-response","385","v","kijiko","false","","4"
"2098.300000011921","","","","","3","html-slider-response","386","","","","2",""
"null","","","","","3","html-keyboard-response","387","","","","",""
"2079","notebook","msitu,kila,kemia,mdudu","kemia","j","3","html-keyboard-response","388","j","kemia","true","","4"
"3379.699999988079","","","","","3","html-slider-response","389","","","","3",""
"null","","","","","3","html-keyboard-response","390","","","","",""
"3557","flag","ndege,trekta,mkate,kawa","trekta","v","3","html-keyboard-response","391","v","trekta","true","","4"
"2569","","","","","3","html-slider-response","392","","","","2",""
"null","","","","","3","html-keyboard-response","393","","","","",""
"2506","squirrel","mahugaw,ukweli,kichwa,hofu","hofu","n","3","html-keyboard-response","394","n","hofu","true","","4"
"1947.1000000238419","","","","","3","html-slider-response","395","","","","2",""
"null","","","","","3","html-keyboard-response","396","","","","",""
"5344","door","tena,surali,soko,nyota","surali","v","3","html-keyboard-response","397","j","soko","false","","4"
"2407.300000011921","","","","","3","html-slider-response","398","","","","2",""
"null","","","","","3","html-keyboard-response","399","","","","",""
"2332","salmon","mzungu,sensilyo,seri,baharia","sensilyo","v","3","html-keyboard-response","400","v","sensilyo","true","","4"
"2795.2000000476837","","","","","3","html-slider-response","401","","","","2",""
"null","","","","","3","html-keyboard-response","402","","","","",""
"2828","shoulder","kelele,ndaniya,mkuu,guruwe","mkuu","j","3","html-keyboard-response","403","j","mkuu","true","","4"
"2838.400000035763","","","","","3","html-slider-response","404","","","","2",""
"null","","","","","3","html-keyboard-response","405","","","","",""
"2578","lamp","daub,bilaska,mbolea,afya","afya","n","3","html-keyboard-response","406","v","bilaska","false","","4"
"2084.699999988079","","","","","3","html-slider-response","407","","","","2",""
"null","","","","","3","html-keyboard-response","408","","","","",""
"2151","shelf","pamahaw,bungtod,kadaot,awit","pamahaw","f","3","html-keyboard-response","409","f","pamahaw","true","","1"
"3034.300000011921","","","","","3","html-slider-response","410","","","","5",""
"null","","","","","3","html-keyboard-response","411","","","","",""
"5649","human","bado,kikapu,punguza,tinapay","tinapay","n","3","html-keyboard-response","412","v","kikapu","false","","4"
"1943.2000000476837","","","","","3","html-slider-response","413","","","","2",""
"null","","","","","3","html-keyboard-response","414","","","","",""
"4684","towel","tembo,funzi,pito,pagpalit","pagpalit","n","3","html-keyboard-response","415","v","funzi","false","","4"
"3416.300000011921","","","","","3","html-slider-response","416","","","","3",""
"null","","","","","3","html-keyboard-response","417","","","","",""
"3075","cat","neyemba,baki,akili,paghukom","paghukom","n","3","html-keyboard-response","418","v","baki","false","","4"
"4064.800000011921","","","","","3","html-slider-response","419","","","","1",""
"null","","","","","3","html-keyboard-response","420","","","","",""
"2729","spider","bunyag,kamwe,mkboa,atop","kamwe","v","3","html-keyboard-response","421","j","mkboa","false","","4"
"1953.300000011921","","","","","3","html-slider-response","422","","","","2",""
"null","","","","","3","html-keyboard-response","423","","","","",""
"2697","window","kweli,nanga,kujenga,umaga","kweli","f","3","html-keyboard-response","424","n","umaga","false","","4"
"2347.5","","","","","3","html-slider-response","425","","","","2",""
"null","","","","","3","html-keyboard-response","426","","","","",""
"1791","woman","bandari,bituin,pagtabon,kovuli","pagtabon","j","3","html-keyboard-response","427","j","pagtabon","true","","1"
"3511","","","","","3","html-slider-response","428","","","","5",""
"null","","","","","3","html-keyboard-response","429","","","","",""
"3050","giraffe","daraja,jumatu,hangyo,mahitabo","mahitabo","n","3","html-keyboard-response","430","f","daraja","false","","4"
"2039.699999988079","","","","","3","html-slider-response","431","","","","2",""
"null","","","","","3","html-keyboard-response","432","","","","",""
"2014","elephant","petye,pagduol,kito,suka","kito","j","3","html-keyboard-response","433","n","suka","false","","4"
"2769.600000023842","","","","","3","html-slider-response","434","","","","3",""
"null","","","","","3","html-keyboard-response","435","","","","",""
"3692","cave","ganti,kesho,maisha,nyundo","kesho","v","3","html-keyboard-response","436","f","ganti","false","","4"
"3672.7000000476837","","","","","3","html-slider-response","437","","","","3",""
"null","","","","","3","html-keyboard-response","438","","","","",""
"3378","bread","kaili,dizeli,bugas,dari","dari","n","3","html-keyboard-response","439","n","dari","true","","4"
"2254","","","","","3","html-slider-response","440","","","","2",""
"null","","","","","3","html-keyboard-response","441","","","","",""
"11442","stone","wingi,ulimwengu,mkasi,asili","wingi","f","3","html-keyboard-response","442","v","ulimwengu","false","","4"
"2137.099999964237","","","","","3","html-slider-response","443","","","","2",""
"null","","","","","3","html-keyboard-response","444","","","","",""
"3432","donkey","bloke,elfu,lalake,rombus","elfu","v","3","html-keyboard-response","445","v","elfu","true","","4"
"2601.599999964237","","","","","3","html-slider-response","446","","","","2",""
"null","","","","","3","html-keyboard-response","447","","","","",""
"2725","bridge","daima,sahani,ngono,panya","sahani","v","3","html-keyboard-response","448","v","sahani","true","","4"
"2746.600000023842","","","","","3","html-slider-response","449","","","","2",""
"null","","","","","3","html-keyboard-response","450","","","","",""
"3018","bonfire","mwezi,goti,mfuko,kusanya","goti","v","3","html-keyboard-response","451","f","mwezi","false","","4"
"2205.399999976158","","","","","3","html-slider-response","452","","","","2",""
"null","","","","","3","html-keyboard-response","453","","","","",""
"2749","book","mali,kuhesa,picha,mara","mali","f","3","html-keyboard-response","454","v","kuhesa","false","","4"
"3843.399999976158","","","","","3","html-slider-response","455","","","","3",""
"null","","","","","3","html-keyboard-response","456","","","","",""
"2877","fish","buli,bala,baho,imani","buli","f","3","html-keyboard-response","457","j","baho","false","","4"
"3022.600000023842","","","","","3","html-slider-response","458","","","","3",""
"null","","","","","3","html-keyboard-response","459","","","","",""
"4936","spoon","betri,pagsulod,nzuri,ngazi","pagsulod","v","3","html-keyboard-response","460","v","pagsulod","true","","4"
"2500.100000023842","","","","","3","html-slider-response","461","","","","2",""
"null","","","","","3","html-keyboard-response","462","","","","",""
"2650","scissors","duga,mtawa,suga,tanuri","tanuri","n","3","html-keyboard-response","463","f","duga","false","","4"
"2455.800000011921","","","","","3","html-slider-response","464","","","","2",""
"null","","","","","3","html-keyboard-response","465","","","","",""
"1920","page","wakala,ishiri,skina,wimbo","wimbo","n","3","html-keyboard-response","466","v","ishiri","false","","4"
"2603.699999988079","","","","","3","html-slider-response","467","","","","3",""
"null","","","","","3","html-keyboard-response","468","","","","",""
"1962","nose","gubat,sehemu,kopa,kidole","sehemu","v","3","html-keyboard-response","469","v","sehemu","true","","1"
"2458.099999964237","","","","","3","html-slider-response","470","","","","5",""
"null","","","","","3","html-keyboard-response","471","","","","",""
"1639","ceiling","kugita,maua,kawaida,rayna","maua","v","3","html-keyboard-response","472","v","maua","true","","4"
"1620.1000000238419","","","","","3","html-slider-response","473","","","","2",""
"null","","","","","3","html-keyboard-response","474","","","","",""
"1853","bucket","baga,ijayo,init,kiatu","kiatu","n","3","html-keyboard-response","475","n","kiatu","true","","4"
"1874.199999988079","","","","","3","html-slider-response","476","","","","2",""
"null","","","","","3","html-keyboard-response","477","","","","",""
"1543","berry","kofia,abogado,nogozi,kinywa","kofia","f","3","html-keyboard-response","478","f","kofia","true","","1"
"3160.5","","","","","3","html-slider-response","479","","","","5",""
"null","","","","","3","html-keyboard-response","480","","","","",""
"1983","mother","kahawa,mbuzi,jokofu,babaye","babaye","n","3","html-keyboard-response","481","n","babaye","true","","1"
"2695","","","","","3","html-slider-response","482","","","","5",""
"null","","","","","3","html-keyboard-response","483","","","","",""
"2660","mosquito","isda,martilyo,taras,gutom","martilyo","v","3","html-keyboard-response","484","j","taras","false","","4"
"2231.7999999523163","","","","","3","html-slider-response","485","","","","2",""
"null","","","","","3","html-keyboard-response","486","","","","",""
"4019","perfume","bino,sungura,ndogo,katuyoan","katuyoan","n","3","html-keyboard-response","487","f","bino","false","","4"
"2293.300000011921","","","","","3","html-slider-response","488","","","","2",""
"null","","","","","3","html-keyboard-response","489","","","","",""
"1925","sheet","juuya,watu,bililhon,kamantis","bililhon","j","3","html-keyboard-response","490","n","kamantis","false","","4"
"3031.399999976158","","","","","3","html-slider-response","491","","","","2",""
"null","","","","","3","html-keyboard-response","492","","","","",""
"1668","puppet","mazishi,napulo,lamok,godoro","mazishi","f","3","html-keyboard-response","493","f","mazishi","true","","1"
"2916.400000035763","","","","","3","html-slider-response","494","","","","5",""
"null","","","","","3","html-keyboard-response","495","","","","",""
"2271","poster","nchi,fedha,madungog,kasuko","madungog","j","3","html-keyboard-response","496","v","fedha","false","","4"
"2203.599999964237","","","","","3","html-slider-response","497","","","","2",""
"null","","","","","3","html-keyboard-response","498","","","","",""
"2403","music","baiski,mraba,mageho,tumbo","baiski","f","3","html-keyboard-response","499","j","mageho","false","","4"
"2221.5","","","","","3","html-slider-response","500","","","","2",""
"null","","","","","3","html-keyboard-response","501","","","","",""
"2315","key","miaka,goma,chombo,ahos","chombo","j","3","html-keyboard-response","502","n","ahos","false","","4"
"9498.699999988079","","","","","3","html-slider-response","503","","","","2",""
"null","","","","","3","html-keyboard-response","504","","","","",""
"2733","sock","ndoora,kimysa,mtirka,mamba","mamba","n","3","html-keyboard-response","505","v","kimysa","false","","4"
"1945.5999999642372","","","","","3","html-slider-response","506","","","","2",""
"null","","","","","3","html-keyboard-response","507","","","","",""
"1931","marker","mapafu,salita,atay,maji","maji","n","3","html-keyboard-response","508","j","atay","false","","4"
"2054.2000000476837","","","","","3","html-slider-response","509","","","","2",""
"null","","","","","3","html-keyboard-response","510","","","","",""
"1966","office","hazini,yatima,kuna,leso","leso","n","3","html-keyboard-response","511","n","leso","true","","4"
"3037.100000023842","","","","","3","html-slider-response","512","","","","2",""
"null","","","","","3","html-keyboard-response","513","","","","",""
"1918","shoe","uyoga,nyeusi,hatua,kama","uyoga","f","3","html-keyboard-response","514","j","hatua","false","","4"
"2233.199999988079","","","","","3","html-slider-response","515","","","","2",""
"null","","","","","3","html-keyboard-response","516","","","","",""
"8537","cop","mechezo,bustani,jikoni,bakus","mechezo","f","3","html-keyboard-response","517","v","bustani","false","","4"
"2653.699999988079","","","","","3","html-slider-response","518","","","","2",""
"null","","","","","3","html-keyboard-response","519","","","","",""
"2973","bank","kudhibi,tualya,silingan,ofisi","silingan","j","3","html-keyboard-response","520","v","tualya","false","","4"
"2017.8999999761581","","","","","3","html-slider-response","521","","","","2",""
"null","","","","","3","html-keyboard-response","522","","","","",""
"2331","letter","filimbi,chuma,uhuru,kifua","kifua","n","3","html-keyboard-response","523","n","kifua","true","","1"
"6016","","","","","3","html-slider-response","524","","","","5",""
"null","","","","","3","html-keyboard-response","525","","","","",""
"1936","dog","bahari,lubi,washia,kalamu","bahari","f","3","html-keyboard-response","526","f","bahari","true","","1"
"2700.100000023842","","","","","3","html-slider-response","527","","","","5",""
"null","","","","","3","html-keyboard-response","528","","","","",""
"2990","shop","nopya,kerida,samaki,ndezu","samaki","j","3","html-keyboard-response","529","v","kerida","false","","4"
"2680.899999976158","","","","","3","html-slider-response","530","","","","5",""
"null","","","","","3","html-keyboard-response","531","","","","",""
"3551","flower","tamasha,bega,lobo,usiku","bega","v","3","html-keyboard-response","532","v","bega","true","","4"
"3354.300000011921","","","","","3","html-slider-response","533","","","","2",""
"null","","","","","3","html-keyboard-response","534","","","","",""
"1619","cigar","ndugu,kuta,adhabu,mlango","adhabu","j","3","html-keyboard-response","535","j","adhabu","true","","1"
"2060.099999964237","","","","","3","html-slider-response","536","","","","5",""
"null","","","","","3","html-keyboard-response","537","","","","",""
"3082","hammer","mekno,kitovu,napakyas,layag","napakyas","j","3","html-keyboard-response","538","n","layag","false","","4"
"2474.199999988079","","","","","3","html-slider-response","539","","","","2",""
"null","","","","","3","html-keyboard-response","540","","","","",""
"2847","fork","mgonjwa,baboy,paghago,gorisi","mgonjwa","f","3","html-keyboard-response","541","v","baboy","false","","4"
"2276.300000011921","","","","","3","html-slider-response","542","","","","2",""
"null","","","","","3","html-keyboard-response","543","","","","",""
"1632","sun","bendi,luha,uongo,basi","basi","n","3","html-keyboard-response","544","n","basi","true","","1"
"2338.300000011921","","","","","3","html-slider-response","545","","","","5",""
"null","","","","","3","html-keyboard-response","546","","","","",""
"2994","ladder","pangalan,mashua,mwanga,kamba","pangalan","f","3","html-keyboard-response","547","v","mashua","false","","4"
"3082.899999976158","","","","","3","html-slider-response","548","","","","2",""
"null","","","","","3","html-keyboard-response","549","","","","",""
"1905","banana","kazi,kasamok,hagdan,twai","kazi","f","3","html-keyboard-response","550","f","kazi","true","","1"
"2458.399999976158","","","","","3","html-slider-response","551","","","","5",""
"null","","","","","3","html-keyboard-response","552","","","","",""
"1916","pudding","abug,mpishi,iring,aibu","aibu","n","3","html-keyboard-response","553","v","mpishi","false","","4"
"2927.400000035763","","","","","3","html-slider-response","554","","","","2",""
"null","","","","","3","html-keyboard-response","555","","","","",""
"3108","body","nyundu,jibini,tindashan,kununa","tindashan","j","3","html-keyboard-response","556","j","tindashan","true","","4"
"1798.6000000238419","","","","","3","html-slider-response","557","","","","2",""
"null","","","","","3","html-keyboard-response","558","","","","",""
"4671","bed","kalipay,mapintas,haraka,starehe","mapintas","v","3","html-keyboard-response","559","j","haraka","false","","4"
"2056.800000011921","","","","","3","html-slider-response","560","","","","2",""
"null","","","","","3","html-keyboard-response","561","","","","",""
"7359","tissue","lamigas,ugomvi,kisiwa,katika","ugomvi","v","3","html-keyboard-response","562","n","katika","false","","4"
"2588.2999999523163","","","","","3","html-slider-response","563","","","","2",""
"null","","","","","3","html-keyboard-response","564","","","","",""
"1962","candle","gabi,farasi,geza,kupanda","geza","j","3","html-keyboard-response","565","j","geza","true","","4"
"1979.3999999761581","","","","","3","html-slider-response","566","","","","2",""
"null","","","","","3","html-keyboard-response","567","","","","",""
"1423","tomato","mvua,chupi,chupa,takatak","mvua","f","3","html-keyboard-response","568","f","mvua","true","","1"
"3208.7000000476837","","","","","3","html-slider-response","569","","","","5",""
"null","","","","","3","html-keyboard-response","570","","","","",""
"1974","list","alizeti,kuzama,kaso,wingu","wingu","n","3","html-keyboard-response","571","j","kaso","false","","4"
"2388.599999964237","","","","","3","html-slider-response","572","","","","2",""
"null","","","","","3","html-keyboard-response","573","","","","",""
"1623","olive","bata,siagi,jiwe,welder","jiwe","j","3","html-keyboard-response","574","j","jiwe","true","","4"
"2207.600000023842","","","","","3","html-slider-response","575","","","","2",""
"null","","","","","3","html-keyboard-response","576","","","","",""
"1303","picture","silya,chaki,kubwa,asin","kubwa","j","3","html-keyboard-response","577","j","kubwa","true","","1"
"3413.899999976158","","","","","3","html-slider-response","578","","","","5",""
"null","","","","","3","html-keyboard-response","579","","","","",""
