"rt","en_word","options","swa_word","correct_answer","phase","trial_type","trial_index","input_answer","input_word","accuracy","certainty","amt_choices"
"3947","bonfire","mwezi,goti,mfuko,kusanya","goti","v","2","html-keyboard-response","114","v","goti","true","",""
"3842.7000000001863","","","","","2","html-slider-response","115","","","","4",""
"48827","flower","tamasha,lobo,bega,usiku","bega","j","2","html-keyboard-response","116","n","usiku","false","",""
"4203.100000000559","","","","","2","html-slider-response","117","","","","2",""
"20459","column","pundok,ufagio,dila,pala","ufagio","v","2","html-keyboard-response","118","j","dila","false","",""
"3734.2999999998137","","","","","2","html-slider-response","119","","","","1",""
"6472","music","mraba,baiski,mageho,tumbo","baiski","v","2","html-keyboard-response","120","n","tumbo","false","",""
"6494.5","","","","","2","html-slider-response","121","","","","3",""
"5088","spider","bunyag,mkboa,atop,kamwe","kamwe","n","2","html-keyboard-response","122","n","kamwe","true","",""
"3527.0999999996275","","","","","2","html-slider-response","123","","","","2",""
"8335","fork","baboy,mgonjwa,paghago,gorisi","mgonjwa","v","2","html-keyboard-response","124","f","baboy","false","",""
"4398.399999999441","","","","","2","html-slider-response","125","","","","1",""
"25593","mosquito","isda,taras,martilyo,gutom","martilyo","j","2","html-keyboard-response","126","v","taras","false","",""
"2974.100000000559","","","","","2","html-slider-response","127","","","","2",""
"4760","banana","kasamok,hagdan,kazi,twai","kazi","j","2","html-keyboard-response","128","j","kazi","true","",""
"4943.700000000186","","","","","2","html-slider-response","129","","","","3",""
"15631","cup","dagat,shimoni,matumai,jeraha","matumai","j","2","html-keyboard-response","130","j","matumai","true","",""
"2420.0999999996275","","","","","2","html-slider-response","131","","","","4",""
"4074","shop","nopya,samaki,kerida,ndezu","samaki","v","2","html-keyboard-response","132","v","samaki","true","",""
"4527.0999999996275","","","","","2","html-slider-response","133","","","","3",""
"4839","elephant","petye,pagduol,kito,suka","kito","j","2","html-keyboard-response","134","j","kito","true","",""
"2485.699999999255","","","","","2","html-slider-response","135","","","","4",""
"4017","bucket","kiatu,baga,ijayo,init","kiatu","f","2","html-keyboard-response","136","f","kiatu","true","",""
"3159.899999999441","","","","","2","html-slider-response","137","","","","3",""
"4014","book","mali,kuhesa,picha,mara","mali","f","2","html-keyboard-response","138","f","mali","true","",""
"2216.7999999998137","","","","","2","html-slider-response","139","","","","4",""
"5190","mirror","rangi,sulagma,kanding,furaha","sulagma","v","2","html-keyboard-response","140","v","sulagma","true","",""
"3365.2999999998137","","","","","2","html-slider-response","141","","","","3",""
"4161","office","hazini,yatima,leso,kuna","leso","j","2","html-keyboard-response","142","j","leso","true","",""
"1447.5999999996275","","","","","2","html-slider-response","143","","","","4",""
"4975","body","nyundu,jibini,kununa,tindashan","tindashan","n","2","html-keyboard-response","144","n","tindashan","true","",""
"3086","","","","","2","html-slider-response","145","","","","4",""
"4553","perfume","bino,sungura,ndogo,katuyoan","katuyoan","n","2","html-keyboard-response","146","n","katuyoan","true","",""
"1768.7999999998137","","","","","2","html-slider-response","147","","","","2",""
"4070","olive","jiwe,bata,siagi,welder","jiwe","f","2","html-keyboard-response","148","f","jiwe","true","",""
"1696.7999999998137","","","","","2","html-slider-response","149","","","","2",""
"10238","magazine","gundi,kiti,mchawi,bahandi","kiti","v","2","html-keyboard-response","150","v","kiti","true","",""
"3027.7999999998137","","","","","2","html-slider-response","151","","","","4",""
"4843","bread","kaili,dari,dizeli,bugas","dari","v","2","html-keyboard-response","152","v","dari","true","",""
"2461.4000000003725","","","","","2","html-slider-response","153","","","","3",""
"4841","cave","ganti,kesho,maisha,nyundo","kesho","v","2","html-keyboard-response","154","v","kesho","true","",""
"1892.3999999994412","","","","","2","html-slider-response","155","","","","2",""
"4746","ladder","mashua,mwanga,pangalan,kamba","pangalan","j","2","html-keyboard-response","156","j","pangalan","true","",""
"3757.0999999996275","","","","","2","html-slider-response","157","","","","1",""
"3178","human","bado,kikapu,tinapay,punguza","tinapay","j","2","html-keyboard-response","158","n","punguza","false","",""
"2034.0999999996275","","","","","2","html-slider-response","159","","","","2",""
"2484","clock","kartasi,mbwa,abang,osha","mbwa","v","2","html-keyboard-response","160","v","mbwa","true","",""
"1947.0999999996275","","","","","2","html-slider-response","161","","","","1",""
"4980","shelf","bungtod,kadaot,awit,pamahaw","pamahaw","n","2","html-keyboard-response","162","n","pamahaw","true","",""
"1340.5999999996275","","","","","2","html-slider-response","163","","","","4",""
"5266","salmon","mzungu,seri,sensilyo,baharia","sensilyo","j","2","html-keyboard-response","164","j","sensilyo","true","",""
"1887.7000000001863","","","","","2","html-slider-response","165","","","","2",""
"3343","coffin","barua,kioo,tubag,hulma","kioo","v","2","html-keyboard-response","166","v","kioo","true","",""
"1336.7999999998137","","","","","2","html-slider-response","167","","","","2",""
"4350","notebook","msitu,kila,kemia,mdudu","kemia","j","2","html-keyboard-response","168","v","kila","false","",""
"2465.899999999441","","","","","2","html-slider-response","169","","","","2",""
"6629","shoulder","kelele,mkuu,ndaniya,guruwe","mkuu","v","2","html-keyboard-response","170","v","mkuu","true","",""
"2505.9000000003725","","","","","2","html-slider-response","171","","","","4",""
"7221","park","bunifu,tambok,pwani,ihalas","bunifu","f","2","html-keyboard-response","172","f","bunifu","true","",""
"2331.600000000559","","","","","2","html-slider-response","173","","","","2",""
"4746","number","shule,mundamo,kengele,choori","mundamo","v","2","html-keyboard-response","174","v","mundamo","true","",""
"1709.9000000003725","","","","","2","html-slider-response","175","","","","4",""
"3872","apple","ukame,estante,edad,kisu","kisu","n","2","html-keyboard-response","176","n","kisu","true","",""
"1675.0999999996275","","","","","2","html-slider-response","177","","","","2",""
"6379","letter","filimbi,chuma,kifua,uhuru","kifua","j","2","html-keyboard-response","178","j","kifua","true","",""
"2320.100000000559","","","","","2","html-slider-response","179","","","","3",""
"6735","eel","msumari,ishara,kunywa,kabuang","msumari","f","2","html-keyboard-response","180","f","msumari","true","",""
"3065.9000000003725","","","","","2","html-slider-response","181","","","","4",""
"9668","cop","bustani,jikoni,bakus,mechezo","mechezo","n","2","html-keyboard-response","182","n","mechezo","true","",""
"4880.600000000559","","","","","2","html-slider-response","183","","","","3",""
"4455","wolf","lugha,kaburi,ndizi,mchuzi","lugha","f","2","html-keyboard-response","184","f","lugha","true","",""
"2834.4000000003725","","","","","2","html-slider-response","185","","","","4",""
"4500","squirrel","mahugaw,ukweli,hofu,kichwa","hofu","j","2","html-keyboard-response","186","j","hofu","true","",""
"2953.600000000559","","","","","2","html-slider-response","187","","","","2",""
"5717","nose","gubat,kopa,sehemu,kidole","sehemu","j","2","html-keyboard-response","188","j","sehemu","true","",""
"2448.7000000001863","","","","","2","html-slider-response","189","","","","3",""
"3893","sock","ndoora,mamba,kimysa,mtirka","mamba","v","2","html-keyboard-response","190","v","mamba","true","",""
"2178.899999999441","","","","","2","html-slider-response","191","","","","4",""
"4468","bank","kudhibi,tualya,ofisi,silingan","silingan","n","2","html-keyboard-response","192","n","silingan","true","",""
"3092.2999999998137","","","","","2","html-slider-response","193","","","","3",""
"6051","donkey","bloke,lalake,rombus,elfu","elfu","n","2","html-keyboard-response","194","v","lalake","false","",""
"2250.699999999255","","","","","2","html-slider-response","195","","","","2",""
"5188","poster","nchi,madungog,fedha,kasuko","madungog","v","2","html-keyboard-response","196","n","kasuko","false","",""
"1927.7000000001863","","","","","2","html-slider-response","197","","","","1",""
"2823","puppet","napulo,mazishi,lamok,godoro","mazishi","v","2","html-keyboard-response","198","v","mazishi","true","",""
"1676.3999999994412","","","","","2","html-slider-response","199","","","","4",""
"3875","hill","matumbo,kushoto,kukimba,sweta","matumbo","f","2","html-keyboard-response","200","f","matumbo","true","",""
"1982.0999999996275","","","","","2","html-slider-response","201","","","","2",""
"3913","tooth","kijiko,uadui,pahiyum,kabalaka","kabalaka","n","2","html-keyboard-response","202","n","kabalaka","true","",""
"2333.0999999996275","","","","","2","html-slider-response","203","","","","2",""
"4544","woman","bandari,bituin,pagtabon,kovuli","pagtabon","j","2","html-keyboard-response","204","f","bandari","false","",""
"3899.2999999998137","","","","","2","html-slider-response","205","","","","3",""
"8956","wheel","punda,tawo,bafuni,baadaye","bafuni","j","2","html-keyboard-response","206","v","tawo","false","",""
"2899.5999999996275","","","","","2","html-slider-response","207","","","","2",""
"4499","mother","kahawa,mbuzi,babaye,jokofu","babaye","j","2","html-keyboard-response","208","j","babaye","true","",""
"3299.899999999441","","","","","2","html-slider-response","209","","","","5",""
"6867","bed","mapintas,kalipay,haraka,starehe","mapintas","f","2","html-keyboard-response","210","f","mapintas","true","",""
"2131.7000000001863","","","","","2","html-slider-response","211","","","","4",""
"5482","key","miaka,goma,chombo,ahos","chombo","j","2","html-keyboard-response","212","j","chombo","true","",""
"1881.0999999996275","","","","","2","html-slider-response","213","","","","4",""
"3941","page","wimbo,wakala,ishiri,skina","wimbo","f","2","html-keyboard-response","214","f","wimbo","true","",""
"2140.0999999996275","","","","","2","html-slider-response","215","","","","3",""
"5243","pants","pintal,chuki,hari,haki","haki","n","2","html-keyboard-response","216","v","chuki","false","",""
"2165","","","","","2","html-slider-response","217","","","","2",""
"6026","sun","basi,bendi,luha,uongo","basi","f","2","html-keyboard-response","218","f","basi","true","",""
"2082.0999999996275","","","","","2","html-slider-response","219","","","","4",""
"9869","finger","simu,sufuria,lima,moyo","moyo","n","2","html-keyboard-response","220","n","moyo","true","",""
"2781","","","","","2","html-slider-response","221","","","","3",""
"5329","shoe","nyeusi,hatua,kama,uyoga","uyoga","n","2","html-keyboard-response","222","n","uyoga","true","",""
"4929.799999999814","","","","","2","html-slider-response","223","","","","3",""
"7229","giraffe","mahitabo,daraja,jumatu,hangyo","mahitabo","f","2","html-keyboard-response","224","v","daraja","false","",""
"2715.0999999996275","","","","","2","html-slider-response","225","","","","1",""
"4819","dog","bahari,lubi,washia,kalamu","bahari","f","2","html-keyboard-response","226","f","bahari","true","",""
"1629.5","","","","","2","html-slider-response","227","","","","4",""
"4873","box","adui,kuacha,rafiki,kitande","adui","f","2","html-keyboard-response","228","f","adui","true","",""
"2308.9000000003725","","","","","2","html-slider-response","229","","","","2",""
"4649","scissors","duga,tanuri,mtawa,suga","tanuri","v","2","html-keyboard-response","230","v","tanuri","true","",""
"4207.0999999996275","","","","","2","html-slider-response","231","","","","3",""
"3215","cat","neyemba,baki,paghukom,akili","paghukom","j","2","html-keyboard-response","232","f","neyemba","false","",""
"2859.100000000559","","","","","2","html-slider-response","233","","","","2",""
"4604","basket","kumbuka,utepe,hasira,kumba","kumba","n","2","html-keyboard-response","234","n","kumba","true","",""
"1852.7999999998137","","","","","2","html-slider-response","235","","","","4",""
"4841","snake","jansa,pagtukod,karon,mvringo","pagtukod","v","2","html-keyboard-response","236","v","pagtukod","true","",""
"2904.9000000003725","","","","","2","html-slider-response","237","","","","3",""
"4541","gift","baba,pagtawag,nyange,baso","pagtawag","v","2","html-keyboard-response","238","v","pagtawag","true","",""
"1493.300000000745","","","","","2","html-slider-response","239","","","","2",""
"4577","train","sayari,itik,dakika,mungu","sayari","f","2","html-keyboard-response","240","f","sayari","true","",""
"2209.100000000559","","","","","2","html-slider-response","241","","","","4",""
"6262","pudding","abug,mpishi,iring,aibu","aibu","n","2","html-keyboard-response","242","n","aibu","true","",""
"4535.799999999814","","","","","2","html-slider-response","243","","","","3",""
"4166","tomato","chupi,mvua,chupa,takatak","mvua","v","2","html-keyboard-response","244","v","mvua","true","",""
"3386","","","","","2","html-slider-response","245","","","","2",""
"4252","stone","ulimwengu,wingi,mkasi,asili","wingi","v","2","html-keyboard-response","246","v","wingi","true","",""
"1881","","","","","2","html-slider-response","247","","","","4",""
"5685","hammer","mekno,kitovu,napakyas,layag","napakyas","j","2","html-keyboard-response","248","j","napakyas","true","",""
"4392.700000000186","","","","","2","html-slider-response","249","","","","3",""
"3855","knee","mvuke,kubale,duka,bili","duka","j","2","html-keyboard-response","250","j","duka","true","",""
"2503.600000000559","","","","","2","html-slider-response","251","","","","4",""
"4430","ceiling","kugita,kawaida,maua,rayna","maua","j","2","html-keyboard-response","252","j","maua","true","",""
"3549","","","","","2","html-slider-response","253","","","","3",""
"4721","spoon","betri,nzuri,ngazi,pagsulod","pagsulod","n","2","html-keyboard-response","254","n","pagsulod","true","",""
"2124.4000000003725","","","","","2","html-slider-response","255","","","","4",""
"4130","marker","mapafu,salita,atay,maji","maji","n","2","html-keyboard-response","256","n","maji","true","",""
"1726.2000000001863","","","","","2","html-slider-response","257","","","","2",""
"5120","candle","gabi,geza,farasi,kupanda","geza","v","2","html-keyboard-response","258","v","geza","true","",""
"3487.2000000001863","","","","","2","html-slider-response","259","","","","3",""
"5679","tissue","lamigas,ugomvi,kisiwa,katika","ugomvi","v","2","html-keyboard-response","260","v","ugomvi","true","",""
"2352.7000000001863","","","","","2","html-slider-response","261","","","","3",""
"3598","bridge","sahani,daima,ngono,panya","sahani","f","2","html-keyboard-response","262","n","panya","false","",""
"11497.899999999441","","","","","2","html-slider-response","263","","","","3",""
"972","berry","kofia,abogado,nogozi,kinywa","kofia","f","2","html-keyboard-response","264","n","kinywa","false","",""
"2063.2999999998137","","","","","2","html-slider-response","265","","","","2",""
"303","triangle","kasadpan,kihozi,bentaha,liog","kasadpan","f","2","html-keyboard-response","266","v","kihozi","false","",""
"1729.1000000005588","","","","","2","html-slider-response","267","","","","2",""
"3806","door","tena,surali,soko,nyota","surali","v","2","html-keyboard-response","268","j","soko","false","",""
"1990.5","","","","","2","html-slider-response","269","","","","1",""
"7425","fish","bala,baho,imani,buli","buli","n","2","html-keyboard-response","270","f","bala","false","",""
"3058.0999999996275","","","","","2","html-slider-response","271","","","","3",""
"2795","curtain","lisud,mchanga,bulwawan,chubani","mchanga","v","2","html-keyboard-response","272","v","mchanga","true","",""
"2092.7000000001863","","","","","2","html-slider-response","273","","","","2",""
"3178","flag","ndege,mkate,kawa,trekta","trekta","n","2","html-keyboard-response","274","n","trekta","true","",""
"1673.1000000005588","","","","","2","html-slider-response","275","","","","2",""
"2061","boat","hamsi,agalon,pombe,kitanda","agalon","v","2","html-keyboard-response","276","v","agalon","true","",""
"1771.300000000745","","","","","2","html-slider-response","277","","","","4",""
"3851","rose","singizi,paghalad,mwanake,amani","paghalad","v","2","html-keyboard-response","278","n","amani","false","",""
"3698.2000000001863","","","","","2","html-slider-response","279","","","","3",""
"10316","lamp","daub,afya,bilaska,mbolea","afya","v","2","html-keyboard-response","280","v","afya","true","",""
"1975.5","","","","","2","html-slider-response","281","","","","2",""
"13136","cigar","ndugu,kuta,mlango,adhabu","adhabu","n","2","html-keyboard-response","282","v","kuta","false","",""
"3205.5999999996275","","","","","2","html-slider-response","283","","","","2",""
"5345","list","alizeti,kuzama,kaso,wingu","wingu","n","2","html-keyboard-response","284","j","kaso","false","",""
"3030.9000000003725","","","","","2","html-slider-response","285","","","","2",""
"1359","sheet","juuya,bililhon,watu,kamantis","bililhon","v","2","html-keyboard-response","286","f","juuya","false","",""
"5472.0999999996275","","","","","2","html-slider-response","287","","","","3",""
"3511","picture","silya,kubwa,chaki,asin","kubwa","v","2","html-keyboard-response","288","n","asin","false","",""
"2218.300000000745","","","","","2","html-slider-response","289","","","","2",""
"3004","towel","tembo,funzi,pagpalit,pito","pagpalit","j","2","html-keyboard-response","290","f","tembo","false","",""
"1674.1000000005588","","","","","2","html-slider-response","291","","","","2",""
"3916","window","kweli,nanga,kujenga,umaga","kweli","f","2","html-keyboard-response","292","v","nanga","false","",""
"1572.4000000003725","","","","","2","html-slider-response","293","","","","2",""
"3211","box","adui,kuacha,rafiki,kitande","adui","f","3","html-keyboard-response","310","j","rafiki","false","","4"
"3278.7000000001863","","","","","3","html-slider-response","311","","","","2",""
"null","","","","","3","html-keyboard-response","312","","","","",""
"22523","pants","haki,pintal,chuki,hari","haki","f","3","html-keyboard-response","313","n","hari","false","","4"
"4236.600000000559","","","","","3","html-slider-response","314","","","","4",""
"null","","","","","3","html-keyboard-response","315","","","","",""
"17217","cup","dagat,matumai,shimoni,jeraha","matumai","v","3","html-keyboard-response","316","v","matumai","true","","4"
"2269","","","","","3","html-slider-response","317","","","","4",""
"null","","","","","3","html-keyboard-response","318","","","","",""
"5854","triangle","kihozi,kasadpan,bentaha,liog","kasadpan","v","3","html-keyboard-response","319","f","kihozi","false","","4"
"3956.199999999255","","","","","3","html-slider-response","320","","","","3",""
"null","","","","","3","html-keyboard-response","321","","","","",""
"7482","curtain","mchanga,lisud,bulwawan,chubani","mchanga","f","3","html-keyboard-response","322","v","lisud","false","","4"
"2330.100000000559","","","","","3","html-slider-response","323","","","","2",""
"null","","","","","3","html-keyboard-response","324","","","","",""
"19169","clock","kartasi,abang,mbwa,osha","mbwa","j","3","html-keyboard-response","325","j","mbwa","true","","4"
"6285","","","","","3","html-slider-response","326","","","","4",""
"null","","","","","3","html-keyboard-response","327","","","","",""
"35037","mirror","rangi,sulagma,kanding,furaha","sulagma","v","3","html-keyboard-response","328","v","sulagma","true","","4"
"5139.9000000003725","","","","","3","html-slider-response","329","","","","2",""
"null","","","","","3","html-keyboard-response","330","","","","",""
"4386","coffin","kioo,barua,tubag,hulma","kioo","f","3","html-keyboard-response","331","f","kioo","true","","1"
"2524.2000000001863","","","","","3","html-slider-response","332","","","","4",""
"null","","","","","3","html-keyboard-response","333","","","","",""
"28288","magazine","kiti,gundi,mchawi,bahandi","kiti","f","3","html-keyboard-response","334","f","kiti","true","","4"
"5920.5","","","","","3","html-slider-response","335","","","","4",""
"null","","","","","3","html-keyboard-response","336","","","","",""
"2625","column","ufagio,pundok,dila,pala","ufagio","f","3","html-keyboard-response","337","f","ufagio","true","","1"
"3194.100000000559","","","","","3","html-slider-response","338","","","","4",""
"null","","","","","3","html-keyboard-response","339","","","","",""
"34086","number","shule,kengele,choori,mundamo","mundamo","n","3","html-keyboard-response","340","n","mundamo","true","","4"
"3041.7999999998137","","","","","3","html-slider-response","341","","","","1",""
"null","","","","","3","html-keyboard-response","342","","","","",""
"4273","rose","singizi,paghalad,mwanake,amani","paghalad","v","3","html-keyboard-response","343","n","amani","false","","4"
"2762.699999999255","","","","","3","html-slider-response","344","","","","3",""
"null","","","","","3","html-keyboard-response","345","","","","",""
"5725","eel","ishara,kunywa,msumari,kabuang","msumari","j","3","html-keyboard-response","346","n","kabuang","false","","4"
"3660.7999999998137","","","","","3","html-slider-response","347","","","","2",""
"null","","","","","3","html-keyboard-response","348","","","","",""
"14815","gift","baba,nyange,pagtawag,baso","pagtawag","j","3","html-keyboard-response","349","v","nyange","false","","4"
"1821.7000000001863","","","","","3","html-slider-response","350","","","","2",""
"null","","","","","3","html-keyboard-response","351","","","","",""
"2425","apple","ukame,estante,kisu,edad","kisu","j","3","html-keyboard-response","352","j","kisu","true","","1"
"2041.300000000745","","","","","3","html-slider-response","353","","","","5",""
"null","","","","","3","html-keyboard-response","354","","","","",""
"2558","wheel","bafuni,punda,tawo,baadaye","bafuni","f","3","html-keyboard-response","355","f","bafuni","true","","1"
"2215.2999999998137","","","","","3","html-slider-response","356","","","","5",""
"null","","","","","3","html-keyboard-response","357","","","","",""
"17929","knee","mvuke,kubale,bili,duka","duka","n","3","html-keyboard-response","358","n","duka","true","","4"
"2723.0999999996275","","","","","3","html-slider-response","359","","","","2",""
"null","","","","","3","html-keyboard-response","360","","","","",""
"5021","basket","kumbuka,utepe,hasira,kumba","kumba","n","3","html-keyboard-response","361","n","kumba","true","","1"
"1771","","","","","3","html-slider-response","362","","","","5",""
"null","","","","","3","html-keyboard-response","363","","","","",""
"17217","park","tambok,pwani,ihalas,bunifu","bunifu","n","3","html-keyboard-response","364","n","bunifu","true","","4"
"2981.699999999255","","","","","3","html-slider-response","365","","","","4",""
"null","","","","","3","html-keyboard-response","366","","","","",""
"7273","finger","simu,sufuria,moyo,lima","moyo","j","3","html-keyboard-response","367","j","moyo","true","","4"
"2893.2000000001863","","","","","3","html-slider-response","368","","","","4",""
"null","","","","","3","html-keyboard-response","369","","","","",""
"5666","boat","hamsi,pombe,agalon,kitanda","agalon","j","3","html-keyboard-response","370","v","pombe","false","","4"
"3337.5","","","","","3","html-slider-response","371","","","","2",""
"null","","","","","3","html-keyboard-response","372","","","","",""
"4593","hill","kushoto,kukimba,matumbo,sweta","matumbo","j","3","html-keyboard-response","373","n","sweta","false","","4"
"3828.2000000001863","","","","","3","html-slider-response","374","","","","3",""
"null","","","","","3","html-keyboard-response","375","","","","",""
"6282","train","itik,sayari,dakika,mungu","sayari","v","3","html-keyboard-response","376","f","itik","false","","4"
"2098","","","","","3","html-slider-response","377","","","","2",""
"null","","","","","3","html-keyboard-response","378","","","","",""
"47605","wolf","kaburi,ndizi,mchuzi,lugha","lugha","n","3","html-keyboard-response","379","n","lugha","true","","4"
"1605.9000000003725","","","","","3","html-slider-response","380","","","","4",""
"null","","","","","3","html-keyboard-response","381","","","","",""
"5762","snake","jansa,karon,pagtukod,mvringo","pagtukod","j","3","html-keyboard-response","382","j","pagtukod","true","","4"
"2545.9000000003725","","","","","3","html-slider-response","383","","","","2",""
"null","","","","","3","html-keyboard-response","384","","","","",""
"6257","tooth","kijiko,kabalaka,uadui,pahiyum","kabalaka","v","3","html-keyboard-response","385","v","kabalaka","true","","4"
"1804.4000000003725","","","","","3","html-slider-response","386","","","","2",""
"null","","","","","3","html-keyboard-response","387","","","","",""
"9018","notebook","msitu,kemia,kila,mdudu","kemia","v","3","html-keyboard-response","388","f","msitu","false","","4"
"3075.4000000003725","","","","","3","html-slider-response","389","","","","2",""
"null","","","","","3","html-keyboard-response","390","","","","",""
"8162","flag","ndege,mkate,trekta,kawa","trekta","j","3","html-keyboard-response","391","j","trekta","true","","4"
"2587.9000000003725","","","","","3","html-slider-response","392","","","","3",""
"null","","","","","3","html-keyboard-response","393","","","","",""
"6346","squirrel","mahugaw,ukweli,kichwa,hofu","hofu","n","3","html-keyboard-response","394","f","mahugaw","false","","4"
"2071.600000000559","","","","","3","html-slider-response","395","","","","2",""
"null","","","","","3","html-keyboard-response","396","","","","",""
"7681","door","tena,surali,soko,nyota","surali","v","3","html-keyboard-response","397","j","soko","false","","4"
"2163.7999999998137","","","","","3","html-slider-response","398","","","","2",""
"null","","","","","3","html-keyboard-response","399","","","","",""
"6889","salmon","sensilyo,mzungu,seri,baharia","sensilyo","f","3","html-keyboard-response","400","f","sensilyo","true","","4"
"3281.800000000745","","","","","3","html-slider-response","401","","","","4",""
"null","","","","","3","html-keyboard-response","402","","","","",""
"7005","shoulder","kelele,ndaniya,guruwe,mkuu","mkuu","n","3","html-keyboard-response","403","f","kelele","false","","4"
"2854.2999999998137","","","","","3","html-slider-response","404","","","","3",""
"null","","","","","3","html-keyboard-response","405","","","","",""
"5747","lamp","daub,bilaska,afya,mbolea","afya","j","3","html-keyboard-response","406","f","daub","false","","4"
"1848","","","","","3","html-slider-response","407","","","","2",""
"null","","","","","3","html-keyboard-response","408","","","","",""
"1849","shelf","bungtod,kadaot,pamahaw,awit","pamahaw","j","3","html-keyboard-response","409","j","pamahaw","true","","1"
"1742","","","","","3","html-slider-response","410","","","","5",""
"null","","","","","3","html-keyboard-response","411","","","","",""
"2722","human","bado,kikapu,tinapay,punguza","tinapay","j","3","html-keyboard-response","412","n","punguza","false","","4"
"1872.0999999996275","","","","","3","html-slider-response","413","","","","2",""
"null","","","","","3","html-keyboard-response","414","","","","",""
"2265","towel","tembo,funzi,pito,pagpalit","pagpalit","n","3","html-keyboard-response","415","j","pito","false","","4"
"1970.6000000005588","","","","","3","html-slider-response","416","","","","2",""
"null","","","","","3","html-keyboard-response","417","","","","",""
"5726","cat","neyemba,paghukom,baki,akili","paghukom","v","3","html-keyboard-response","418","n","akili","false","","4"
"1651.0999999996275","","","","","3","html-slider-response","419","","","","2",""
"null","","","","","3","html-keyboard-response","420","","","","",""
"34191","spider","bunyag,kamwe,mkboa,atop","kamwe","v","3","html-keyboard-response","421","v","kamwe","true","","4"
"2348.5","","","","","3","html-slider-response","422","","","","4",""
"null","","","","","3","html-keyboard-response","423","","","","",""
"7937","window","nanga,kujenga,umaga,kweli","kweli","n","3","html-keyboard-response","424","n","kweli","true","","4"
"1919.5","","","","","3","html-slider-response","425","","","","2",""
"null","","","","","3","html-keyboard-response","426","","","","",""
"6513","woman","bandari,pagtabon,bituin,kovuli","pagtabon","v","3","html-keyboard-response","427","v","pagtabon","true","","1"
"2455.4000000003725","","","","","3","html-slider-response","428","","","","5",""
"null","","","","","3","html-keyboard-response","429","","","","",""
"3313","giraffe","daraja,jumatu,mahitabo,hangyo","mahitabo","j","3","html-keyboard-response","430","j","mahitabo","true","","4"
"2578.699999999255","","","","","3","html-slider-response","431","","","","3",""
"null","","","","","3","html-keyboard-response","432","","","","",""
"19555","elephant","petye,pagduol,kito,suka","kito","j","3","html-keyboard-response","433","j","kito","true","","4"
"2160.7000000001863","","","","","3","html-slider-response","434","","","","4",""
"null","","","","","3","html-keyboard-response","435","","","","",""
"4753","cave","ganti,maisha,nyundo,kesho","kesho","n","3","html-keyboard-response","436","v","maisha","false","","4"
"1741.2000000001863","","","","","3","html-slider-response","437","","","","2",""
"null","","","","","3","html-keyboard-response","438","","","","",""
"6785","bread","kaili,dizeli,dari,bugas","dari","j","3","html-keyboard-response","439","n","bugas","false","","4"
"2976.399999999441","","","","","3","html-slider-response","440","","","","3",""
"null","","","","","3","html-keyboard-response","441","","","","",""
"7191","stone","ulimwengu,mkasi,asili,wingi","wingi","n","3","html-keyboard-response","442","v","mkasi","false","","4"
"1624.2999999998137","","","","","3","html-slider-response","443","","","","4",""
"null","","","","","3","html-keyboard-response","444","","","","",""
"9887","donkey","bloke,lalake,elfu,rombus","elfu","j","3","html-keyboard-response","445","v","lalake","false","","4"
"1546.9000000003725","","","","","3","html-slider-response","446","","","","2",""
"null","","","","","3","html-keyboard-response","447","","","","",""
"9031","bridge","daima,ngono,panya,sahani","sahani","n","3","html-keyboard-response","448","v","ngono","false","","4"
"1962","","","","","3","html-slider-response","449","","","","2",""
"null","","","","","3","html-keyboard-response","450","","","","",""
"4353","bonfire","mwezi,mfuko,kusanya,goti","goti","n","3","html-keyboard-response","451","n","goti","true","","4"
"1536.1000000005588","","","","","3","html-slider-response","452","","","","4",""
"null","","","","","3","html-keyboard-response","453","","","","",""
"5113","book","kuhesa,picha,mali,mara","mali","j","3","html-keyboard-response","454","j","mali","true","","4"
"2008.5","","","","","3","html-slider-response","455","","","","1",""
"null","","","","","3","html-keyboard-response","456","","","","",""
"3826","fish","buli,bala,baho,imani","buli","f","3","html-keyboard-response","457","v","bala","false","","4"
"2052.899999999441","","","","","3","html-slider-response","458","","","","2",""
"null","","","","","3","html-keyboard-response","459","","","","",""
"14137","spoon","betri,pagsulod,nzuri,ngazi","pagsulod","v","3","html-keyboard-response","460","f","betri","false","","4"
"2133.0999999996275","","","","","3","html-slider-response","461","","","","2",""
"null","","","","","3","html-keyboard-response","462","","","","",""
"41406","scissors","tanuri,duga,mtawa,suga","tanuri","f","3","html-keyboard-response","463","f","tanuri","true","","4"
"2049.4000000003725","","","","","3","html-slider-response","464","","","","4",""
"null","","","","","3","html-keyboard-response","465","","","","",""
"4089","page","wakala,wimbo,ishiri,skina","wimbo","v","3","html-keyboard-response","466","j","ishiri","false","","4"
"2106.7000000001863","","","","","3","html-slider-response","467","","","","2",""
"null","","","","","3","html-keyboard-response","468","","","","",""
"1876","nose","gubat,sehemu,kopa,kidole","sehemu","v","3","html-keyboard-response","469","v","sehemu","true","","1"
"2055.7999999998137","","","","","3","html-slider-response","470","","","","5",""
"null","","","","","3","html-keyboard-response","471","","","","",""
"16178","ceiling","maua,kugita,kawaida,rayna","maua","f","3","html-keyboard-response","472","f","maua","true","","4"
"2143","","","","","3","html-slider-response","473","","","","4",""
"null","","","","","3","html-keyboard-response","474","","","","",""
"5616","bucket","baga,kiatu,ijayo,init","kiatu","v","3","html-keyboard-response","475","n","init","false","","4"
"4152.799999999814","","","","","3","html-slider-response","476","","","","2",""
"null","","","","","3","html-keyboard-response","477","","","","",""
"2161","berry","abogado,nogozi,kinywa,kofia","kofia","n","3","html-keyboard-response","478","n","kofia","true","","1"
"1955.7000000001863","","","","","3","html-slider-response","479","","","","5",""
"null","","","","","3","html-keyboard-response","480","","","","",""
"2871","mother","kahawa,babaye,mbuzi,jokofu","babaye","v","3","html-keyboard-response","481","v","babaye","true","","1"
"2151.0999999996275","","","","","3","html-slider-response","482","","","","5",""
"null","","","","","3","html-keyboard-response","483","","","","",""
"80159","mosquito","isda,taras,martilyo,gutom","martilyo","j","3","html-keyboard-response","484","n","gutom","false","","4"
"3020","","","","","3","html-slider-response","485","","","","2",""
"null","","","","","3","html-keyboard-response","486","","","","",""
"3175","perfume","bino,katuyoan,sungura,ndogo","katuyoan","v","3","html-keyboard-response","487","j","sungura","false","","4"
"2209.2000000001863","","","","","3","html-slider-response","488","","","","2",""
"null","","","","","3","html-keyboard-response","489","","","","",""
"13042","sheet","juuya,watu,bililhon,kamantis","bililhon","j","3","html-keyboard-response","490","f","juuya","false","","4"
"1756.1000000005588","","","","","3","html-slider-response","491","","","","2",""
"null","","","","","3","html-keyboard-response","492","","","","",""
"3181","puppet","mazishi,napulo,lamok,godoro","mazishi","f","3","html-keyboard-response","493","f","mazishi","true","","1"
"1880.5999999996275","","","","","3","html-slider-response","494","","","","5",""
"null","","","","","3","html-keyboard-response","495","","","","",""
"2113","poster","madungog,nchi,fedha,kasuko","madungog","f","3","html-keyboard-response","496","v","nchi","false","","4"
"2437.7000000001863","","","","","3","html-slider-response","497","","","","3",""
"null","","","","","3","html-keyboard-response","498","","","","",""
"3552","music","mraba,mageho,baiski,tumbo","baiski","j","3","html-keyboard-response","499","n","tumbo","false","","4"
"2712","","","","","3","html-slider-response","500","","","","3",""
"null","","","","","3","html-keyboard-response","501","","","","",""
"1468","key","miaka,chombo,goma,ahos","chombo","v","3","html-keyboard-response","502","f","miaka","false","","4"
"2118.399999999441","","","","","3","html-slider-response","503","","","","2",""
"null","","","","","3","html-keyboard-response","504","","","","",""
"1049","sock","ndoora,mamba,kimysa,mtirka","mamba","v","3","html-keyboard-response","505","f","ndoora","false","","4"
"2307","","","","","3","html-slider-response","506","","","","3",""
"null","","","","","3","html-keyboard-response","507","","","","",""
"6456","marker","mapafu,salita,atay,maji","maji","n","3","html-keyboard-response","508","v","salita","false","","4"
"2034.0999999996275","","","","","3","html-slider-response","509","","","","2",""
"null","","","","","3","html-keyboard-response","510","","","","",""
"3200","office","leso,hazini,yatima,kuna","leso","f","3","html-keyboard-response","511","n","kuna","false","","4"
"1727.2999999998137","","","","","3","html-slider-response","512","","","","2",""
"null","","","","","3","html-keyboard-response","513","","","","",""
"15025","shoe","nyeusi,hatua,kama,uyoga","uyoga","n","3","html-keyboard-response","514","j","kama","false","","4"
"2934.5","","","","","3","html-slider-response","515","","","","3",""
"null","","","","","3","html-keyboard-response","516","","","","",""
"4566","cop","bustani,jikoni,bakus,mechezo","mechezo","n","3","html-keyboard-response","517","n","mechezo","true","","4"
"3602.2999999998137","","","","","3","html-slider-response","518","","","","4",""
"null","","","","","3","html-keyboard-response","519","","","","",""
"14945","bank","kudhibi,tualya,ofisi,silingan","silingan","n","3","html-keyboard-response","520","n","silingan","true","","4"
"3497.9000000003725","","","","","3","html-slider-response","521","","","","3",""
"null","","","","","3","html-keyboard-response","522","","","","",""
"2196","letter","kifua,filimbi,chuma,uhuru","kifua","f","3","html-keyboard-response","523","f","kifua","true","","1"
"1498.2000000001863","","","","","3","html-slider-response","524","","","","5",""
"null","","","","","3","html-keyboard-response","525","","","","",""
"2169","dog","bahari,lubi,washia,kalamu","bahari","f","3","html-keyboard-response","526","f","bahari","true","","1"
"1969.5999999996275","","","","","3","html-slider-response","527","","","","5",""
"null","","","","","3","html-keyboard-response","528","","","","",""
"6361","shop","nopya,kerida,ndezu,samaki","samaki","n","3","html-keyboard-response","529","n","samaki","true","","4"
"4573.700000000186","","","","","3","html-slider-response","530","","","","2",""
"null","","","","","3","html-keyboard-response","531","","","","",""
"10564","flower","tamasha,bega,lobo,usiku","bega","v","3","html-keyboard-response","532","f","tamasha","false","","4"
"4005.7999999998137","","","","","3","html-slider-response","533","","","","3",""
"null","","","","","3","html-keyboard-response","534","","","","",""
"3246","cigar","ndugu,kuta,adhabu,mlango","adhabu","j","3","html-keyboard-response","535","j","adhabu","true","","1"
"2386.7999999998137","","","","","3","html-slider-response","536","","","","5",""
"null","","","","","3","html-keyboard-response","537","","","","",""
"14648","hammer","mekno,kitovu,napakyas,layag","napakyas","j","3","html-keyboard-response","538","j","napakyas","true","","4"
"2084.699999999255","","","","","3","html-slider-response","539","","","","1",""
"null","","","","","3","html-keyboard-response","540","","","","",""
"2778","fork","baboy,mgonjwa,paghago,gorisi","mgonjwa","v","3","html-keyboard-response","541","j","paghago","false","","4"
"2594.100000000559","","","","","3","html-slider-response","542","","","","2",""
"null","","","","","3","html-keyboard-response","543","","","","",""
"2850","sun","basi,bendi,luha,uongo","basi","f","3","html-keyboard-response","544","f","basi","true","","1"
"1981.5999999996275","","","","","3","html-slider-response","545","","","","5",""
"null","","","","","3","html-keyboard-response","546","","","","",""
"32908","ladder","mashua,pangalan,mwanga,kamba","pangalan","v","3","html-keyboard-response","547","n","kamba","false","","4"
"1753.7000000001863","","","","","3","html-slider-response","548","","","","2",""
"null","","","","","3","html-keyboard-response","549","","","","",""
"1800","banana","kasamok,kazi,hagdan,twai","kazi","v","3","html-keyboard-response","550","v","kazi","true","","1"
"1326.5","","","","","3","html-slider-response","551","","","","5",""
"null","","","","","3","html-keyboard-response","552","","","","",""
"3032","pudding","abug,mpishi,aibu,iring","aibu","j","3","html-keyboard-response","553","v","mpishi","false","","4"
"1606.2000000001863","","","","","3","html-slider-response","554","","","","2",""
"null","","","","","3","html-keyboard-response","555","","","","",""
"4283","body","nyundu,jibini,kununa,tindashan","tindashan","n","3","html-keyboard-response","556","n","tindashan","true","","4"
"2119.600000000559","","","","","3","html-slider-response","557","","","","4",""
"null","","","","","3","html-keyboard-response","558","","","","",""
"5665","bed","kalipay,mapintas,haraka,starehe","mapintas","v","3","html-keyboard-response","559","v","mapintas","true","","4"
"1518.2000000001863","","","","","3","html-slider-response","560","","","","2",""
"null","","","","","3","html-keyboard-response","561","","","","",""
"2341","tissue","lamigas,kisiwa,katika,ugomvi","ugomvi","n","3","html-keyboard-response","562","j","katika","false","","4"
"1512.9000000003725","","","","","3","html-slider-response","563","","","","2",""
"null","","","","","3","html-keyboard-response","564","","","","",""
"1278","candle","gabi,geza,farasi,kupanda","geza","v","3","html-keyboard-response","565","f","gabi","false","","4"
"1807.5999999996275","","","","","3","html-slider-response","566","","","","2",""
"null","","","","","3","html-keyboard-response","567","","","","",""
"2182","tomato","mvua,chupi,chupa,takatak","mvua","f","3","html-keyboard-response","568","f","mvua","true","","1"
"1705.2000000001863","","","","","3","html-slider-response","569","","","","5",""
"null","","","","","3","html-keyboard-response","570","","","","",""
"15450","list","wingu,alizeti,kuzama,kaso","wingu","f","3","html-keyboard-response","571","f","wingu","true","","4"
"2339.2999999998137","","","","","3","html-slider-response","572","","","","4",""
"null","","","","","3","html-keyboard-response","573","","","","",""
"2448","olive","bata,siagi,welder,jiwe","jiwe","n","3","html-keyboard-response","574","v","siagi","false","","4"
"1633.8999999994412","","","","","3","html-slider-response","575","","","","2",""
"null","","","","","3","html-keyboard-response","576","","","","",""
"2249","picture","silya,chaki,asin,kubwa","kubwa","n","3","html-keyboard-response","577","n","kubwa","true","","1"
"1942.2999999998137","","","","","3","html-slider-response","578","","","","5",""
"null","","","","","3","html-keyboard-response","579","","","","",""
