"rt","en_word","options","swa_word","correct_answer","phase","trial_type","trial_index","input_answer","input_word","accuracy","certainty","amt_choices"
"4394","bonfire","mwezi,mfuko,goti,kusanya","goti","j","2","html-keyboard-response","114","v","mfuko","false","",""
"2722.5","","","","","2","html-slider-response","115","","","","1",""
"2620","flower","tamasha,bega,lobo,usiku","bega","v","2","html-keyboard-response","116","v","bega","true","",""
"2050.0999999046326","","","","","2","html-slider-response","117","","","","4",""
"3380","column","ufagio,pundok,dila,pala","ufagio","f","2","html-keyboard-response","118","j","dila","false","",""
"1916.5999999046326","","","","","2","html-slider-response","119","","","","1",""
"18035","music","baiski,mraba,mageho,tumbo","baiski","f","2","html-keyboard-response","120","n","tumbo","false","",""
"2690.9000000953674","","","","","2","html-slider-response","121","","","","2",""
"7193","spider","bunyag,mkboa,kamwe,atop","kamwe","j","2","html-keyboard-response","122","v","mkboa","false","",""
"2001.2999999523163","","","","","2","html-slider-response","123","","","","1",""
"5980","fork","mgonjwa,baboy,paghago,gorisi","mgonjwa","f","2","html-keyboard-response","124","f","mgonjwa","true","",""
"2856.2999999523163","","","","","2","html-slider-response","125","","","","2",""
"3642","mosquito","martilyo,isda,taras,gutom","martilyo","f","2","html-keyboard-response","126","f","martilyo","true","",""
"2092.699999809265","","","","","2","html-slider-response","127","","","","5",""
"2656","banana","kasamok,hagdan,twai,kazi","kazi","n","2","html-keyboard-response","128","n","kazi","true","",""
"2323.2000000476837","","","","","2","html-slider-response","129","","","","5",""
"3107","cup","matumai,dagat,shimoni,jeraha","matumai","f","2","html-keyboard-response","130","v","dagat","false","",""
"2304.100000143051","","","","","2","html-slider-response","131","","","","1",""
"4250","shop","samaki,nopya,kerida,ndezu","samaki","f","2","html-keyboard-response","132","j","kerida","false","",""
"1990.2999999523163","","","","","2","html-slider-response","133","","","","2",""
"4429","elephant","petye,kito,pagduol,suka","kito","v","2","html-keyboard-response","134","n","suka","false","",""
"2730.9000000953674","","","","","2","html-slider-response","135","","","","3",""
"14657","bucket","baga,kiatu,ijayo,init","kiatu","v","2","html-keyboard-response","136","f","baga","false","",""
"3275.2999999523163","","","","","2","html-slider-response","137","","","","2",""
"29916","book","kuhesa,picha,mali,mara","mali","j","2","html-keyboard-response","138","n","mara","false","",""
"3060.7999999523163","","","","","2","html-slider-response","139","","","","2",""
"3850","mirror","sulagma,rangi,kanding,furaha","sulagma","f","2","html-keyboard-response","140","n","furaha","false","",""
"2009.7000000476837","","","","","2","html-slider-response","141","","","","1",""
"2277","office","leso,hazini,yatima,kuna","leso","f","2","html-keyboard-response","142","n","kuna","false","",""
"2438.0999999046326","","","","","2","html-slider-response","143","","","","2",""
"3292","body","nyundu,jibini,kununa,tindashan","tindashan","n","2","html-keyboard-response","144","j","kununa","false","",""
"1860.0999999046326","","","","","2","html-slider-response","145","","","","4",""
"31773","perfume","bino,sungura,ndogo,katuyoan","katuyoan","n","2","html-keyboard-response","146","v","sungura","false","",""
"1836.5999999046326","","","","","2","html-slider-response","147","","","","2",""
"12169","olive","jiwe,bata,siagi,welder","jiwe","f","2","html-keyboard-response","148","n","welder","false","",""
"3737.2000000476837","","","","","2","html-slider-response","149","","","","1",""
"3166","magazine","gundi,kiti,mchawi,bahandi","kiti","v","2","html-keyboard-response","150","v","kiti","true","",""
"2372.7999999523163","","","","","2","html-slider-response","151","","","","4",""
"5519","bread","kaili,dizeli,bugas,dari","dari","n","2","html-keyboard-response","152","v","dizeli","false","",""
"2371.4000000953674","","","","","2","html-slider-response","153","","","","1",""
"10647","cave","ganti,maisha,nyundo,kesho","kesho","n","2","html-keyboard-response","154","n","kesho","true","",""
"1937.0999999046326","","","","","2","html-slider-response","155","","","","2",""
"5970","ladder","mashua,mwanga,kamba,pangalan","pangalan","n","2","html-keyboard-response","156","n","pangalan","true","",""
"1874.5","","","","","2","html-slider-response","157","","","","5",""
"4439","human","bado,kikapu,punguza,tinapay","tinapay","n","2","html-keyboard-response","158","n","tinapay","true","",""
"1994.1999998092651","","","","","2","html-slider-response","159","","","","5",""
"29029","clock","kartasi,abang,osha,mbwa","mbwa","n","2","html-keyboard-response","160","v","abang","false","",""
"2611.7999999523163","","","","","2","html-slider-response","161","","","","1",""
"9825","shelf","bungtod,pamahaw,kadaot,awit","pamahaw","v","2","html-keyboard-response","162","v","pamahaw","true","",""
"2286.7999999523163","","","","","2","html-slider-response","163","","","","4",""
"4272","salmon","sensilyo,mzungu,seri,baharia","sensilyo","f","2","html-keyboard-response","164","f","sensilyo","true","",""
"1523.8999998569489","","","","","2","html-slider-response","165","","","","4",""
"2632","coffin","barua,tubag,hulma,kioo","kioo","n","2","html-keyboard-response","166","n","kioo","true","",""
"1909.2999999523163","","","","","2","html-slider-response","167","","","","5",""
"5426","notebook","msitu,kemia,kila,mdudu","kemia","v","2","html-keyboard-response","168","f","msitu","false","",""
"2273.2000000476837","","","","","2","html-slider-response","169","","","","2",""
"3445","shoulder","mkuu,kelele,ndaniya,guruwe","mkuu","f","2","html-keyboard-response","170","f","mkuu","true","",""
"4289","","","","","2","html-slider-response","171","","","","3",""
"4486","park","tambok,pwani,ihalas,bunifu","bunifu","n","2","html-keyboard-response","172","f","tambok","false","",""
"2305.600000143051","","","","","2","html-slider-response","173","","","","2",""
"3642","number","mundamo,shule,kengele,choori","mundamo","f","2","html-keyboard-response","174","f","mundamo","true","",""
"2041.7000000476837","","","","","2","html-slider-response","175","","","","5",""
"6715","apple","ukame,estante,edad,kisu","kisu","n","2","html-keyboard-response","176","f","ukame","false","",""
"2643.7999999523163","","","","","2","html-slider-response","177","","","","3",""
"15541","letter","filimbi,kifua,chuma,uhuru","kifua","v","2","html-keyboard-response","178","j","chuma","false","",""
"1926.7000000476837","","","","","2","html-slider-response","179","","","","1",""
"6219","eel","ishara,kunywa,kabuang,msumari","msumari","n","2","html-keyboard-response","180","v","kunywa","false","",""
"1742.6000001430511","","","","","2","html-slider-response","181","","","","4",""
"2096","cop","bustani,jikoni,bakus,mechezo","mechezo","n","2","html-keyboard-response","182","n","mechezo","true","",""
"1997.8000001907349","","","","","2","html-slider-response","183","","","","4",""
"2708","wolf","lugha,kaburi,ndizi,mchuzi","lugha","f","2","html-keyboard-response","184","j","ndizi","false","",""
"1884.5999999046326","","","","","2","html-slider-response","185","","","","1",""
"6330","squirrel","mahugaw,ukweli,hofu,kichwa","hofu","j","2","html-keyboard-response","186","j","hofu","true","",""
"2101.7999999523163","","","","","2","html-slider-response","187","","","","5",""
"7393","nose","gubat,kopa,kidole,sehemu","sehemu","n","2","html-keyboard-response","188","v","kopa","false","",""
"2323.2999999523163","","","","","2","html-slider-response","189","","","","2",""
"4946","sock","ndoora,kimysa,mtirka,mamba","mamba","n","2","html-keyboard-response","190","n","mamba","true","",""
"1607.5","","","","","2","html-slider-response","191","","","","5",""
"9902","bank","kudhibi,tualya,silingan,ofisi","silingan","j","2","html-keyboard-response","192","v","tualya","false","",""
"1741.7999999523163","","","","","2","html-slider-response","193","","","","1",""
"4524","donkey","bloke,lalake,elfu,rombus","elfu","j","2","html-keyboard-response","194","n","rombus","false","",""
"3228","","","","","2","html-slider-response","195","","","","4",""
"6901","poster","nchi,fedha,madungog,kasuko","madungog","j","2","html-keyboard-response","196","v","fedha","false","",""
"2000","","","","","2","html-slider-response","197","","","","2",""
"11411","puppet","mazishi,napulo,lamok,godoro","mazishi","f","2","html-keyboard-response","198","j","lamok","false","",""
"3471.4000000953674","","","","","2","html-slider-response","199","","","","4",""
"9038","hill","kushoto,kukimba,matumbo,sweta","matumbo","j","2","html-keyboard-response","200","v","kukimba","false","",""
"2293.7999999523163","","","","","2","html-slider-response","201","","","","2",""
"26112","tooth","kabalaka,kijiko,uadui,pahiyum","kabalaka","f","2","html-keyboard-response","202","n","pahiyum","false","",""
"3570.7000000476837","","","","","2","html-slider-response","203","","","","2",""
"10042","woman","bandari,bituin,pagtabon,kovuli","pagtabon","j","2","html-keyboard-response","204","j","pagtabon","true","",""
"1967.5999999046326","","","","","2","html-slider-response","205","","","","2",""
"3070","wheel","punda,tawo,bafuni,baadaye","bafuni","j","2","html-keyboard-response","206","j","bafuni","true","",""
"1647.6000001430511","","","","","2","html-slider-response","207","","","","2",""
"3150","mother","babaye,kahawa,mbuzi,jokofu","babaye","f","2","html-keyboard-response","208","v","kahawa","false","",""
"3615.899999856949","","","","","2","html-slider-response","209","","","","3",""
"11799","bed","kalipay,haraka,starehe,mapintas","mapintas","n","2","html-keyboard-response","210","f","kalipay","false","",""
"2530.699999809265","","","","","2","html-slider-response","211","","","","1",""
"5510","key","miaka,goma,chombo,ahos","chombo","j","2","html-keyboard-response","212","v","goma","false","",""
"1786.5","","","","","2","html-slider-response","213","","","","2",""
"32386","page","wakala,wimbo,ishiri,skina","wimbo","v","2","html-keyboard-response","214","n","skina","false","",""
"2013.1000001430511","","","","","2","html-slider-response","215","","","","2",""
"3452","pants","pintal,chuki,hari,haki","haki","n","2","html-keyboard-response","216","n","haki","true","",""
"2738.4000000953674","","","","","2","html-slider-response","217","","","","2",""
"2762","sun","basi,bendi,luha,uongo","basi","f","2","html-keyboard-response","218","j","luha","false","",""
"9831.600000143051","","","","","2","html-slider-response","219","","","","3",""
"2918","finger","simu,moyo,sufuria,lima","moyo","v","2","html-keyboard-response","220","n","lima","false","",""
"1714.8000001907349","","","","","2","html-slider-response","221","","","","2",""
"6298","shoe","uyoga,nyeusi,hatua,kama","uyoga","f","2","html-keyboard-response","222","f","uyoga","true","",""
"1590.2000000476837","","","","","2","html-slider-response","223","","","","2",""
"6480","giraffe","daraja,jumatu,mahitabo,hangyo","mahitabo","j","2","html-keyboard-response","224","j","mahitabo","true","",""
"1837.4000000953674","","","","","2","html-slider-response","225","","","","2",""
"6982","dog","lubi,bahari,washia,kalamu","bahari","v","2","html-keyboard-response","226","f","lubi","false","",""
"2247.7999999523163","","","","","2","html-slider-response","227","","","","1",""
"2779","box","kuacha,rafiki,adui,kitande","adui","j","2","html-keyboard-response","228","v","rafiki","false","",""
"2620.9000000953674","","","","","2","html-slider-response","229","","","","3",""
"2822","scissors","duga,tanuri,mtawa,suga","tanuri","v","2","html-keyboard-response","230","n","suga","false","",""
"2427.4000000953674","","","","","2","html-slider-response","231","","","","2",""
"29285","cat","neyemba,baki,akili,paghukom","paghukom","n","2","html-keyboard-response","232","j","akili","false","",""
"1507.2999999523163","","","","","2","html-slider-response","233","","","","1",""
"6386","basket","kumbuka,utepe,kumba,hasira","kumba","j","2","html-keyboard-response","234","n","hasira","false","",""
"3610.2999999523163","","","","","2","html-slider-response","235","","","","3",""
"5177","snake","jansa,pagtukod,karon,mvringo","pagtukod","v","2","html-keyboard-response","236","f","jansa","false","",""
"1694.5","","","","","2","html-slider-response","237","","","","2",""
"8310","gift","baba,pagtawag,nyange,baso","pagtawag","v","2","html-keyboard-response","238","j","nyange","false","",""
"2127.7000000476837","","","","","2","html-slider-response","239","","","","4",""
"2944","train","sayari,itik,dakika,mungu","sayari","f","2","html-keyboard-response","240","n","mungu","false","",""
"2572.9000000953674","","","","","2","html-slider-response","241","","","","2",""
"4403","pudding","aibu,abug,mpishi,iring","aibu","f","2","html-keyboard-response","242","f","aibu","true","",""
"1800.9000000953674","","","","","2","html-slider-response","243","","","","1",""
"2784","tomato","chupi,chupa,takatak,mvua","mvua","n","2","html-keyboard-response","244","v","chupa","false","",""
"3014.2999999523163","","","","","2","html-slider-response","245","","","","3",""
"7153","stone","ulimwengu,wingi,mkasi,asili","wingi","v","2","html-keyboard-response","246","n","asili","false","",""
"1635.6999998092651","","","","","2","html-slider-response","247","","","","2",""
"28109","hammer","mekno,kitovu,napakyas,layag","napakyas","j","2","html-keyboard-response","248","j","napakyas","true","",""
"4256.700000047684","","","","","2","html-slider-response","249","","","","4",""
"2314","knee","mvuke,kubale,bili,duka","duka","n","2","html-keyboard-response","250","f","mvuke","false","",""
"448132.7999999523","","","","","2","html-slider-response","251","","","","2",""
"3765","ceiling","kugita,maua,kawaida,rayna","maua","v","2","html-keyboard-response","252","j","kawaida","false","",""
"2748.2999999523163","","","","","2","html-slider-response","253","","","","4",""
"8599","spoon","pagsulod,betri,nzuri,ngazi","pagsulod","f","2","html-keyboard-response","254","n","ngazi","false","",""
"1646.5","","","","","2","html-slider-response","255","","","","2",""
"11662","marker","mapafu,salita,maji,atay","maji","j","2","html-keyboard-response","256","v","salita","false","",""
"2730.600000143051","","","","","2","html-slider-response","257","","","","3",""
"8484","candle","gabi,farasi,geza,kupanda","geza","j","2","html-keyboard-response","258","j","geza","true","",""
"2938.5999999046326","","","","","2","html-slider-response","259","","","","2",""
"16055","tissue","lamigas,kisiwa,katika,ugomvi","ugomvi","n","2","html-keyboard-response","260","j","katika","false","",""
"3929.100000143051","","","","","2","html-slider-response","261","","","","3",""
"4514","bridge","daima,ngono,sahani,panya","sahani","j","2","html-keyboard-response","262","v","ngono","false","",""
"1733.7999999523163","","","","","2","html-slider-response","263","","","","2",""
"19514","berry","abogado,nogozi,kinywa,kofia","kofia","n","2","html-keyboard-response","264","v","nogozi","false","",""
"1571.4000000953674","","","","","2","html-slider-response","265","","","","2",""
"3001","triangle","kihozi,bentaha,liog,kasadpan","kasadpan","n","2","html-keyboard-response","266","v","bentaha","false","",""
"2013.2999999523163","","","","","2","html-slider-response","267","","","","1",""
"8321","door","tena,soko,surali,nyota","surali","j","2","html-keyboard-response","268","v","soko","false","",""
"2288.5999999046326","","","","","2","html-slider-response","269","","","","4",""
"2730","fish","bala,baho,imani,buli","buli","n","2","html-keyboard-response","270","n","buli","true","",""
"3159.5","","","","","2","html-slider-response","271","","","","3",""
"7047","curtain","lisud,bulwawan,chubani,mchanga","mchanga","n","2","html-keyboard-response","272","n","mchanga","true","",""
"1650.0999999046326","","","","","2","html-slider-response","273","","","","4",""
"2948","flag","trekta,ndege,mkate,kawa","trekta","f","2","html-keyboard-response","274","v","ndege","false","",""
"4430.200000047684","","","","","2","html-slider-response","275","","","","3",""
"9509","boat","hamsi,pombe,agalon,kitanda","agalon","j","2","html-keyboard-response","276","f","hamsi","false","",""
"12547.200000047684","","","","","2","html-slider-response","277","","","","2",""
"23545","rose","singizi,paghalad,mwanake,amani","paghalad","v","2","html-keyboard-response","278","j","mwanake","false","",""
"1879.5999999046326","","","","","2","html-slider-response","279","","","","2",""
"5504","lamp","afya,daub,bilaska,mbolea","afya","f","2","html-keyboard-response","280","n","mbolea","false","",""
"1738.2999999523163","","","","","2","html-slider-response","281","","","","4",""
"17417","cigar","adhabu,ndugu,kuta,mlango","adhabu","f","2","html-keyboard-response","282","n","mlango","false","",""
"2900.7000000476837","","","","","2","html-slider-response","283","","","","3",""
"8520","list","alizeti,wingu,kuzama,kaso","wingu","v","2","html-keyboard-response","284","n","kaso","false","",""
"2360.2999999523163","","","","","2","html-slider-response","285","","","","2",""
"6818","sheet","juuya,watu,bililhon,kamantis","bililhon","j","2","html-keyboard-response","286","n","kamantis","false","",""
"3883.7000000476837","","","","","2","html-slider-response","287","","","","4",""
"14495","picture","silya,kubwa,chaki,asin","kubwa","v","2","html-keyboard-response","288","v","kubwa","true","",""
"1733.7000000476837","","","","","2","html-slider-response","289","","","","2",""
"2820","towel","pagpalit,tembo,funzi,pito","pagpalit","f","2","html-keyboard-response","290","n","pito","false","",""
"1721.8000001907349","","","","","2","html-slider-response","291","","","","4",""
"2409","window","nanga,kweli,kujenga,umaga","kweli","v","2","html-keyboard-response","292","n","umaga","false","",""
"2140.7000000476837","","","","","2","html-slider-response","293","","","","2",""
"2257","box","adui,kuacha,rafiki,kitande","adui","f","3","html-keyboard-response","310","f","adui","true","","4"
"2879.100000143051","","","","","3","html-slider-response","311","","","","2",""
"null","","","","","3","html-keyboard-response","312","","","","",""
"3049","pants","pintal,chuki,haki,hari","haki","j","3","html-keyboard-response","313","j","haki","true","","4"
"3503.9000000953674","","","","","3","html-slider-response","314","","","","3",""
"null","","","","","3","html-keyboard-response","315","","","","",""
"9441","cup","dagat,matumai,shimoni,jeraha","matumai","v","3","html-keyboard-response","316","v","matumai","true","","4"
"1864","","","","","3","html-slider-response","317","","","","1",""
"null","","","","","3","html-keyboard-response","318","","","","",""
"3505","triangle","kasadpan,kihozi,bentaha,liog","kasadpan","f","3","html-keyboard-response","319","j","bentaha","false","","4"
"2404.899999856949","","","","","3","html-slider-response","320","","","","2",""
"null","","","","","3","html-keyboard-response","321","","","","",""
"4221","curtain","lisud,bulwawan,chubani,mchanga","mchanga","n","3","html-keyboard-response","322","n","mchanga","true","","4"
"2967.100000143051","","","","","3","html-slider-response","323","","","","3",""
"null","","","","","3","html-keyboard-response","324","","","","",""
"3187","clock","kartasi,abang,osha,mbwa","mbwa","n","3","html-keyboard-response","325","j","osha","false","","4"
"2639.199999809265","","","","","3","html-slider-response","326","","","","2",""
"null","","","","","3","html-keyboard-response","327","","","","",""
"4602","mirror","rangi,sulagma,kanding,furaha","sulagma","v","3","html-keyboard-response","328","v","sulagma","true","","4"
"1548.1000001430511","","","","","3","html-slider-response","329","","","","2",""
"null","","","","","3","html-keyboard-response","330","","","","",""
"1917","coffin","barua,tubag,hulma,kioo","kioo","n","3","html-keyboard-response","331","n","kioo","true","","1"
"1851.3999998569489","","","","","3","html-slider-response","332","","","","5",""
"null","","","","","3","html-keyboard-response","333","","","","",""
"2869","magazine","gundi,mchawi,kiti,bahandi","kiti","j","3","html-keyboard-response","334","j","kiti","true","","4"
"5108.5","","","","","3","html-slider-response","335","","","","3",""
"null","","","","","3","html-keyboard-response","336","","","","",""
"1412","column","pundok,ufagio,dila,pala","ufagio","v","3","html-keyboard-response","337","v","ufagio","true","","1"
"1954.4000000953674","","","","","3","html-slider-response","338","","","","5",""
"null","","","","","3","html-keyboard-response","339","","","","",""
"2710","number","shule,mundamo,kengele,choori","mundamo","v","3","html-keyboard-response","340","v","mundamo","true","","4"
"2052.2000000476837","","","","","3","html-slider-response","341","","","","5",""
"null","","","","","3","html-keyboard-response","342","","","","",""
"6888","rose","paghalad,singizi,mwanake,amani","paghalad","f","3","html-keyboard-response","343","j","mwanake","false","","4"
"2564","","","","","3","html-slider-response","344","","","","2",""
"null","","","","","3","html-keyboard-response","345","","","","",""
"3754","eel","ishara,msumari,kunywa,kabuang","msumari","v","3","html-keyboard-response","346","j","kunywa","false","","4"
"1543.2000000476837","","","","","3","html-slider-response","347","","","","4",""
"null","","","","","3","html-keyboard-response","348","","","","",""
"4810","gift","baba,pagtawag,nyange,baso","pagtawag","v","3","html-keyboard-response","349","j","nyange","false","","4"
"2159.2000000476837","","","","","3","html-slider-response","350","","","","2",""
"null","","","","","3","html-keyboard-response","351","","","","",""
"1425","apple","ukame,estante,edad,kisu","kisu","n","3","html-keyboard-response","352","n","kisu","true","","1"
"2344.2000000476837","","","","","3","html-slider-response","353","","","","5",""
"null","","","","","3","html-keyboard-response","354","","","","",""
"1722","wheel","punda,tawo,bafuni,baadaye","bafuni","j","3","html-keyboard-response","355","j","bafuni","true","","1"
"2837.0999999046326","","","","","3","html-slider-response","356","","","","5",""
"null","","","","","3","html-keyboard-response","357","","","","",""
"3609","knee","mvuke,kubale,duka,bili","duka","j","3","html-keyboard-response","358","v","kubale","false","","4"
"2042.7000000476837","","","","","3","html-slider-response","359","","","","4",""
"null","","","","","3","html-keyboard-response","360","","","","",""
"2145","basket","kumba,kumbuka,utepe,hasira","kumba","f","3","html-keyboard-response","361","f","kumba","true","","1"
"2564.5","","","","","3","html-slider-response","362","","","","5",""
"null","","","","","3","html-keyboard-response","363","","","","",""
"4423","park","bunifu,tambok,pwani,ihalas","bunifu","f","3","html-keyboard-response","364","n","ihalas","false","","4"
"19667.700000047684","","","","","3","html-slider-response","365","","","","2",""
"null","","","","","3","html-keyboard-response","366","","","","",""
"4143","finger","simu,moyo,sufuria,lima","moyo","v","3","html-keyboard-response","367","j","sufuria","false","","4"
"2261.800000190735","","","","","3","html-slider-response","368","","","","1",""
"null","","","","","3","html-keyboard-response","369","","","","",""
"5797","boat","hamsi,pombe,agalon,kitanda","agalon","j","3","html-keyboard-response","370","n","kitanda","false","","4"
"2198.7999999523163","","","","","3","html-slider-response","371","","","","5",""
"null","","","","","3","html-keyboard-response","372","","","","",""
"3497","hill","matumbo,kushoto,kukimba,sweta","matumbo","f","3","html-keyboard-response","373","f","matumbo","true","","4"
"1656.5","","","","","3","html-slider-response","374","","","","2",""
"null","","","","","3","html-keyboard-response","375","","","","",""
"3122","train","itik,dakika,sayari,mungu","sayari","j","3","html-keyboard-response","376","n","mungu","false","","4"
"2747.7000000476837","","","","","3","html-slider-response","377","","","","2",""
"null","","","","","3","html-keyboard-response","378","","","","",""
"3898","wolf","kaburi,ndizi,mchuzi,lugha","lugha","n","3","html-keyboard-response","379","f","kaburi","false","","4"
"1678.1000001430511","","","","","3","html-slider-response","380","","","","2",""
"null","","","","","3","html-keyboard-response","381","","","","",""
"7749","snake","pagtukod,jansa,karon,mvringo","pagtukod","f","3","html-keyboard-response","382","f","pagtukod","true","","4"
"2523.7999999523163","","","","","3","html-slider-response","383","","","","4",""
"null","","","","","3","html-keyboard-response","384","","","","",""
"3336","tooth","kijiko,uadui,pahiyum,kabalaka","kabalaka","n","3","html-keyboard-response","385","n","kabalaka","true","","4"
"2487.100000143051","","","","","3","html-slider-response","386","","","","3",""
"null","","","","","3","html-keyboard-response","387","","","","",""
"3747","notebook","msitu,kila,kemia,mdudu","kemia","j","3","html-keyboard-response","388","v","kila","false","","4"
"2045.0999999046326","","","","","3","html-slider-response","389","","","","2",""
"null","","","","","3","html-keyboard-response","390","","","","",""
"3754","flag","trekta,ndege,mkate,kawa","trekta","f","3","html-keyboard-response","391","n","kawa","false","","4"
"2104.5","","","","","3","html-slider-response","392","","","","2",""
"null","","","","","3","html-keyboard-response","393","","","","",""
"2413","squirrel","hofu,mahugaw,ukweli,kichwa","hofu","f","3","html-keyboard-response","394","f","hofu","true","","4"
"2040.7999999523163","","","","","3","html-slider-response","395","","","","5",""
"null","","","","","3","html-keyboard-response","396","","","","",""
"2039","door","tena,soko,surali,nyota","surali","j","3","html-keyboard-response","397","n","nyota","false","","4"
"1956.7999999523163","","","","","3","html-slider-response","398","","","","4",""
"null","","","","","3","html-keyboard-response","399","","","","",""
"3943","salmon","mzungu,sensilyo,seri,baharia","sensilyo","v","3","html-keyboard-response","400","n","baharia","false","","4"
"1864.9000000953674","","","","","3","html-slider-response","401","","","","4",""
"null","","","","","3","html-keyboard-response","402","","","","",""
"2587","shoulder","kelele,mkuu,ndaniya,guruwe","mkuu","v","3","html-keyboard-response","403","f","kelele","false","","4"
"1663.9000000953674","","","","","3","html-slider-response","404","","","","2",""
"null","","","","","3","html-keyboard-response","405","","","","",""
"16518","lamp","daub,bilaska,mbolea,afya","afya","n","3","html-keyboard-response","406","v","bilaska","false","","4"
"3694.7000000476837","","","","","3","html-slider-response","407","","","","2",""
"null","","","","","3","html-keyboard-response","408","","","","",""
"1586","shelf","pamahaw,bungtod,kadaot,awit","pamahaw","f","3","html-keyboard-response","409","f","pamahaw","true","","1"
"2852.9000000953674","","","","","3","html-slider-response","410","","","","5",""
"null","","","","","3","html-keyboard-response","411","","","","",""
"3915","human","bado,kikapu,tinapay,punguza","tinapay","j","3","html-keyboard-response","412","j","tinapay","true","","4"
"1861.2999999523163","","","","","3","html-slider-response","413","","","","5",""
"null","","","","","3","html-keyboard-response","414","","","","",""
"3581","towel","tembo,funzi,pagpalit,pito","pagpalit","j","3","html-keyboard-response","415","n","pito","false","","4"
"3277.600000143051","","","","","3","html-slider-response","416","","","","2",""
"null","","","","","3","html-keyboard-response","417","","","","",""
"3289","cat","neyemba,baki,akili,paghukom","paghukom","n","3","html-keyboard-response","418","v","baki","false","","4"
"1545.9000000953674","","","","","3","html-slider-response","419","","","","2",""
"null","","","","","3","html-keyboard-response","420","","","","",""
"2312","spider","kamwe,bunyag,mkboa,atop","kamwe","f","3","html-keyboard-response","421","j","mkboa","false","","4"
"1452.9000000953674","","","","","3","html-slider-response","422","","","","2",""
"null","","","","","3","html-keyboard-response","423","","","","",""
"2417","window","nanga,kweli,kujenga,umaga","kweli","v","3","html-keyboard-response","424","j","kujenga","false","","4"
"3230.7000000476837","","","","","3","html-slider-response","425","","","","2",""
"null","","","","","3","html-keyboard-response","426","","","","",""
"1643","woman","bandari,bituin,kovuli,pagtabon","pagtabon","n","3","html-keyboard-response","427","n","pagtabon","true","","1"
"2164.100000143051","","","","","3","html-slider-response","428","","","","5",""
"null","","","","","3","html-keyboard-response","429","","","","",""
"4253","giraffe","daraja,jumatu,mahitabo,hangyo","mahitabo","j","3","html-keyboard-response","430","n","hangyo","false","","4"
"2219.600000143051","","","","","3","html-slider-response","431","","","","2",""
"null","","","","","3","html-keyboard-response","432","","","","",""
"2859","elephant","petye,pagduol,kito,suka","kito","j","3","html-keyboard-response","433","v","pagduol","false","","4"
"2426.4000000953674","","","","","3","html-slider-response","434","","","","4",""
"null","","","","","3","html-keyboard-response","435","","","","",""
"4161","cave","ganti,kesho,maisha,nyundo","kesho","v","3","html-keyboard-response","436","v","kesho","true","","4"
"1610.5","","","","","3","html-slider-response","437","","","","2",""
"null","","","","","3","html-keyboard-response","438","","","","",""
"3857","bread","dari,kaili,dizeli,bugas","dari","f","3","html-keyboard-response","439","v","kaili","false","","4"
"1799.4000000953674","","","","","3","html-slider-response","440","","","","2",""
"null","","","","","3","html-keyboard-response","441","","","","",""
"2853","stone","ulimwengu,wingi,mkasi,asili","wingi","v","3","html-keyboard-response","442","j","mkasi","false","","4"
"1921.7000000476837","","","","","3","html-slider-response","443","","","","2",""
"null","","","","","3","html-keyboard-response","444","","","","",""
"4222","donkey","bloke,elfu,lalake,rombus","elfu","v","3","html-keyboard-response","445","n","rombus","false","","4"
"2703.899999856949","","","","","3","html-slider-response","446","","","","4",""
"null","","","","","3","html-keyboard-response","447","","","","",""
"4760","bridge","sahani,daima,ngono,panya","sahani","f","3","html-keyboard-response","448","v","daima","false","","4"
"2692.7000000476837","","","","","3","html-slider-response","449","","","","2",""
"null","","","","","3","html-keyboard-response","450","","","","",""
"3197","bonfire","goti,mwezi,mfuko,kusanya","goti","f","3","html-keyboard-response","451","j","mfuko","false","","4"
"2670.2999999523163","","","","","3","html-slider-response","452","","","","4",""
"null","","","","","3","html-keyboard-response","453","","","","",""
"2926","book","kuhesa,picha,mali,mara","mali","j","3","html-keyboard-response","454","j","mali","true","","4"
"1734.2000000476837","","","","","3","html-slider-response","455","","","","4",""
"null","","","","","3","html-keyboard-response","456","","","","",""
"3049","fish","bala,buli,baho,imani","buli","v","3","html-keyboard-response","457","v","buli","true","","4"
"2011.9000000953674","","","","","3","html-slider-response","458","","","","4",""
"null","","","","","3","html-keyboard-response","459","","","","",""
"3065","spoon","betri,nzuri,pagsulod,ngazi","pagsulod","j","3","html-keyboard-response","460","n","ngazi","false","","4"
"2376.399999856949","","","","","3","html-slider-response","461","","","","1",""
"null","","","","","3","html-keyboard-response","462","","","","",""
"2825","scissors","duga,tanuri,mtawa,suga","tanuri","v","3","html-keyboard-response","463","j","mtawa","false","","4"
"2287.5","","","","","3","html-slider-response","464","","","","2",""
"null","","","","","3","html-keyboard-response","465","","","","",""
"4813","page","wimbo,wakala,ishiri,skina","wimbo","f","3","html-keyboard-response","466","v","wakala","false","","4"
"1893.6000001430511","","","","","3","html-slider-response","467","","","","1",""
"null","","","","","3","html-keyboard-response","468","","","","",""
"1710","nose","gubat,sehemu,kopa,kidole","sehemu","v","3","html-keyboard-response","469","v","sehemu","true","","1"
"2368.7999999523163","","","","","3","html-slider-response","470","","","","5",""
"null","","","","","3","html-keyboard-response","471","","","","",""
"4470","ceiling","kugita,kawaida,rayna,maua","maua","n","3","html-keyboard-response","472","j","rayna","false","","4"
"2041.2000000476837","","","","","3","html-slider-response","473","","","","2",""
"null","","","","","3","html-keyboard-response","474","","","","",""
"3841","bucket","baga,ijayo,kiatu,init","kiatu","j","3","html-keyboard-response","475","j","kiatu","true","","4"
"1705.5","","","","","3","html-slider-response","476","","","","4",""
"null","","","","","3","html-keyboard-response","477","","","","",""
"1777","berry","kofia,abogado,nogozi,kinywa","kofia","f","3","html-keyboard-response","478","f","kofia","true","","1"
"1840.7999999523163","","","","","3","html-slider-response","479","","","","5",""
"null","","","","","3","html-keyboard-response","480","","","","",""
"1340","mother","babaye,kahawa,mbuzi,jokofu","babaye","f","3","html-keyboard-response","481","f","babaye","true","","1"
"1696.8000001907349","","","","","3","html-slider-response","482","","","","5",""
"null","","","","","3","html-keyboard-response","483","","","","",""
"2670","mosquito","isda,martilyo,taras,gutom","martilyo","v","3","html-keyboard-response","484","v","martilyo","true","","4"
"1703.7999999523163","","","","","3","html-slider-response","485","","","","5",""
"null","","","","","3","html-keyboard-response","486","","","","",""
"3728","perfume","bino,sungura,ndogo,katuyoan","katuyoan","n","3","html-keyboard-response","487","n","katuyoan","true","","4"
"4308.200000047684","","","","","3","html-slider-response","488","","","","3",""
"null","","","","","3","html-keyboard-response","489","","","","",""
"4150","sheet","juuya,watu,kamantis,bililhon","bililhon","n","3","html-keyboard-response","490","v","watu","false","","4"
"2137.399999856949","","","","","3","html-slider-response","491","","","","2",""
"null","","","","","3","html-keyboard-response","492","","","","",""
"1263","puppet","napulo,mazishi,lamok,godoro","mazishi","v","3","html-keyboard-response","493","v","mazishi","true","","1"
"2269.2999999523163","","","","","3","html-slider-response","494","","","","5",""
"null","","","","","3","html-keyboard-response","495","","","","",""
"5045","poster","nchi,fedha,madungog,kasuko","madungog","j","3","html-keyboard-response","496","n","kasuko","false","","4"
"2030.2999999523163","","","","","3","html-slider-response","497","","","","4",""
"null","","","","","3","html-keyboard-response","498","","","","",""
"3965","music","mraba,mageho,baiski,tumbo","baiski","j","3","html-keyboard-response","499","j","baiski","true","","4"
"2052.0999999046326","","","","","3","html-slider-response","500","","","","2",""
"null","","","","","3","html-keyboard-response","501","","","","",""
"7265","key","miaka,goma,chombo,ahos","chombo","j","3","html-keyboard-response","502","j","chombo","true","","4"
"1935.6000001430511","","","","","3","html-slider-response","503","","","","2",""
"null","","","","","3","html-keyboard-response","504","","","","",""
"4405","sock","ndoora,kimysa,mtirka,mamba","mamba","n","3","html-keyboard-response","505","n","mamba","true","","4"
"1767.7000000476837","","","","","3","html-slider-response","506","","","","5",""
"null","","","","","3","html-keyboard-response","507","","","","",""
"2681","marker","mapafu,maji,salita,atay","maji","v","3","html-keyboard-response","508","j","salita","false","","4"
"1459.2000000476837","","","","","3","html-slider-response","509","","","","4",""
"null","","","","","3","html-keyboard-response","510","","","","",""
"4006","office","hazini,yatima,leso,kuna","leso","j","3","html-keyboard-response","511","n","kuna","false","","4"
"2761.100000143051","","","","","3","html-slider-response","512","","","","4",""
"null","","","","","3","html-keyboard-response","513","","","","",""
"2980","shoe","uyoga,nyeusi,hatua,kama","uyoga","f","3","html-keyboard-response","514","v","nyeusi","false","","4"
"1742.7999999523163","","","","","3","html-slider-response","515","","","","4",""
"null","","","","","3","html-keyboard-response","516","","","","",""
"2657","cop","bustani,mechezo,jikoni,bakus","mechezo","v","3","html-keyboard-response","517","v","mechezo","true","","4"
"3136.600000143051","","","","","3","html-slider-response","518","","","","5",""
"null","","","","","3","html-keyboard-response","519","","","","",""
"7194","bank","silingan,kudhibi,tualya,ofisi","silingan","f","3","html-keyboard-response","520","f","silingan","true","","4"
"2746.0999999046326","","","","","3","html-slider-response","521","","","","2",""
"null","","","","","3","html-keyboard-response","522","","","","",""
"7507","letter","filimbi,chuma,uhuru,kifua","kifua","n","3","html-keyboard-response","523","n","kifua","true","","1"
"2041.4000000953674","","","","","3","html-slider-response","524","","","","5",""
"null","","","","","3","html-keyboard-response","525","","","","",""
"1683","dog","lubi,washia,bahari,kalamu","bahari","j","3","html-keyboard-response","526","j","bahari","true","","1"
"2009.8000001907349","","","","","3","html-slider-response","527","","","","5",""
"null","","","","","3","html-keyboard-response","528","","","","",""
"4394","shop","nopya,kerida,ndezu,samaki","samaki","n","3","html-keyboard-response","529","n","samaki","true","","4"
"2840","","","","","3","html-slider-response","530","","","","4",""
"null","","","","","3","html-keyboard-response","531","","","","",""
"4893","flower","tamasha,bega,lobo,usiku","bega","v","3","html-keyboard-response","532","j","lobo","false","","4"
"2844.2000000476837","","","","","3","html-slider-response","533","","","","4",""
"null","","","","","3","html-keyboard-response","534","","","","",""
"1332","cigar","ndugu,kuta,adhabu,mlango","adhabu","j","3","html-keyboard-response","535","j","adhabu","true","","1"
"2412.5","","","","","3","html-slider-response","536","","","","5",""
"null","","","","","3","html-keyboard-response","537","","","","",""
"4977","hammer","mekno,kitovu,napakyas,layag","napakyas","j","3","html-keyboard-response","538","v","kitovu","false","","4"
"4444.799999952316","","","","","3","html-slider-response","539","","","","4",""
"null","","","","","3","html-keyboard-response","540","","","","",""
"4275","fork","baboy,paghago,mgonjwa,gorisi","mgonjwa","j","3","html-keyboard-response","541","j","mgonjwa","true","","4"
"3501.5","","","","","3","html-slider-response","542","","","","4",""
"null","","","","","3","html-keyboard-response","543","","","","",""
"1695","sun","basi,bendi,luha,uongo","basi","f","3","html-keyboard-response","544","f","basi","true","","1"
"1874","","","","","3","html-slider-response","545","","","","5",""
"null","","","","","3","html-keyboard-response","546","","","","",""
"3661","ladder","mashua,mwanga,kamba,pangalan","pangalan","n","3","html-keyboard-response","547","n","pangalan","true","","4"
"2285.399999856949","","","","","3","html-slider-response","548","","","","5",""
"null","","","","","3","html-keyboard-response","549","","","","",""
"1343","banana","kasamok,hagdan,twai,kazi","kazi","n","3","html-keyboard-response","550","n","kazi","true","","1"
"2762.5","","","","","3","html-slider-response","551","","","","5",""
"null","","","","","3","html-keyboard-response","552","","","","",""
"5519","pudding","abug,mpishi,iring,aibu","aibu","n","3","html-keyboard-response","553","j","iring","false","","4"
"1872.7000000476837","","","","","3","html-slider-response","554","","","","5",""
"null","","","","","3","html-keyboard-response","555","","","","",""
"3273","body","tindashan,nyundu,jibini,kununa","tindashan","f","3","html-keyboard-response","556","v","nyundu","false","","4"
"1652.5","","","","","3","html-slider-response","557","","","","4",""
"null","","","","","3","html-keyboard-response","558","","","","",""
"3660","bed","kalipay,haraka,mapintas,starehe","mapintas","j","3","html-keyboard-response","559","v","haraka","false","","4"
"2532.2000000476837","","","","","3","html-slider-response","560","","","","2",""
"null","","","","","3","html-keyboard-response","561","","","","",""
"2487","tissue","lamigas,ugomvi,kisiwa,katika","ugomvi","v","3","html-keyboard-response","562","n","katika","false","","4"
"6338.299999952316","","","","","3","html-slider-response","563","","","","3",""
"null","","","","","3","html-keyboard-response","564","","","","",""
"7666","candle","gabi,farasi,geza,kupanda","geza","j","3","html-keyboard-response","565","v","farasi","false","","4"
"3848.4000000953674","","","","","3","html-slider-response","566","","","","2",""
"null","","","","","3","html-keyboard-response","567","","","","",""
"1702","tomato","chupi,mvua,chupa,takatak","mvua","v","3","html-keyboard-response","568","v","mvua","true","","1"
"2655.5999999046326","","","","","3","html-slider-response","569","","","","5",""
"null","","","","","3","html-keyboard-response","570","","","","",""
"3198","list","alizeti,wingu,kuzama,kaso","wingu","v","3","html-keyboard-response","571","n","kaso","false","","4"
"2623.7000000476837","","","","","3","html-slider-response","572","","","","4",""
"null","","","","","3","html-keyboard-response","573","","","","",""
"3413","olive","bata,jiwe,siagi,welder","jiwe","v","3","html-keyboard-response","574","f","bata","false","","4"
"1515.7000000476837","","","","","3","html-slider-response","575","","","","4",""
"null","","","","","3","html-keyboard-response","576","","","","",""
"1709","picture","kubwa,silya,chaki,asin","kubwa","f","3","html-keyboard-response","577","f","kubwa","true","","1"
"2949.7000000476837","","","","","3","html-slider-response","578","","","","5",""
"null","","","","","3","html-keyboard-response","579","","","","",""
