"rt","en_word","options","swa_word","correct_answer","phase","trial_type","trial_index","input_answer","input_word","accuracy","certainty","amt_choices"
"3273","bonfire","mwezi,mfuko,kusanya,goti","goti","n","2","html-keyboard-response","114","n","goti","true","",""
"2892.699999988079","","","","","2","html-slider-response","115","","","","4",""
"6173","flower","tamasha,lobo,bega,usiku","bega","j","2","html-keyboard-response","116","v","lobo","false","",""
"1972.800000011921","","","","","2","html-slider-response","117","","","","4",""
"4648","column","ufagio,pundok,dila,pala","ufagio","f","2","html-keyboard-response","118","j","dila","false","",""
"1930.6000000238419","","","","","2","html-slider-response","119","","","","2",""
"5625","music","mraba,baiski,mageho,tumbo","baiski","v","2","html-keyboard-response","120","v","baiski","true","",""
"10467.300000011921","","","","","2","html-slider-response","121","","","","3",""
"6322","spider","bunyag,kamwe,mkboa,atop","kamwe","v","2","html-keyboard-response","122","v","kamwe","true","",""
"2524.899999976158","","","","","2","html-slider-response","123","","","","4",""
"5324","fork","mgonjwa,baboy,paghago,gorisi","mgonjwa","f","2","html-keyboard-response","124","f","mgonjwa","true","",""
"1962","","","","","2","html-slider-response","125","","","","4",""
"8208","mosquito","martilyo,isda,taras,gutom","martilyo","f","2","html-keyboard-response","126","f","martilyo","true","",""
"2153","","","","","2","html-slider-response","127","","","","4",""
"9966","banana","kasamok,hagdan,twai,kazi","kazi","n","2","html-keyboard-response","128","n","kazi","true","",""
"4279.600000023842","","","","","2","html-slider-response","129","","","","3",""
"4726","cup","dagat,shimoni,matumai,jeraha","matumai","j","2","html-keyboard-response","130","j","matumai","true","",""
"1846.699999988079","","","","","2","html-slider-response","131","","","","4",""
"6136","shop","samaki,nopya,kerida,ndezu","samaki","f","2","html-keyboard-response","132","f","samaki","true","",""
"2608.399999976158","","","","","2","html-slider-response","133","","","","4",""
"3120","elephant","petye,pagduol,kito,suka","kito","j","2","html-keyboard-response","134","v","pagduol","false","",""
"1685.2000000476837","","","","","2","html-slider-response","135","","","","2",""
"18067","bucket","baga,ijayo,init,kiatu","kiatu","n","2","html-keyboard-response","136","j","init","false","",""
"11201.299999952316","","","","","2","html-slider-response","137","","","","2",""
"28213","book","kuhesa,mali,picha,mara","mali","v","2","html-keyboard-response","138","v","mali","true","",""
"1876.6000000238419","","","","","2","html-slider-response","139","","","","5",""
"2652","mirror","sulagma,rangi,kanding,furaha","sulagma","f","2","html-keyboard-response","140","v","rangi","false","",""
"2129.2000000476837","","","","","2","html-slider-response","141","","","","2",""
"6019","office","leso,hazini,yatima,kuna","leso","f","2","html-keyboard-response","142","v","hazini","false","",""
"4595.699999988079","","","","","2","html-slider-response","143","","","","1",""
"7184","body","nyundu,jibini,kununa,tindashan","tindashan","n","2","html-keyboard-response","144","n","tindashan","true","",""
"4699","","","","","2","html-slider-response","145","","","","3",""
"20051","perfume","bino,katuyoan,sungura,ndogo","katuyoan","v","2","html-keyboard-response","146","v","katuyoan","true","",""
"2025.1000000238419","","","","","2","html-slider-response","147","","","","4",""
"7805","olive","bata,jiwe,siagi,welder","jiwe","v","2","html-keyboard-response","148","v","jiwe","true","",""
"1825.1000000238419","","","","","2","html-slider-response","149","","","","4",""
"6607","magazine","gundi,kiti,mchawi,bahandi","kiti","v","2","html-keyboard-response","150","j","mchawi","false","",""
"2219.800000011921","","","","","2","html-slider-response","151","","","","3",""
"5816","bread","kaili,dari,dizeli,bugas","dari","v","2","html-keyboard-response","152","j","dizeli","false","",""
"2140.099999964237","","","","","2","html-slider-response","153","","","","4",""
"2209","cave","ganti,maisha,nyundo,kesho","kesho","n","2","html-keyboard-response","154","v","maisha","false","",""
"1646.7999999523163","","","","","2","html-slider-response","155","","","","2",""
"6421","ladder","mashua,mwanga,pangalan,kamba","pangalan","j","2","html-keyboard-response","156","f","mashua","false","",""
"2728.599999964237","","","","","2","html-slider-response","157","","","","2",""
"8536","human","bado,tinapay,kikapu,punguza","tinapay","v","2","html-keyboard-response","158","n","punguza","false","",""
"6227.399999976158","","","","","2","html-slider-response","159","","","","2",""
"4582","clock","mbwa,kartasi,abang,osha","mbwa","f","2","html-keyboard-response","160","f","mbwa","true","",""
"2274.100000023842","","","","","2","html-slider-response","161","","","","5",""
"5690","shelf","bungtod,kadaot,awit,pamahaw","pamahaw","n","2","html-keyboard-response","162","j","awit","false","",""
"3998.099999964237","","","","","2","html-slider-response","163","","","","2",""
"4553","salmon","mzungu,seri,sensilyo,baharia","sensilyo","j","2","html-keyboard-response","164","v","seri","false","",""
"2388","","","","","2","html-slider-response","165","","","","4",""
"2956","coffin","kioo,barua,tubag,hulma","kioo","f","2","html-keyboard-response","166","f","kioo","true","",""
"2728.100000023842","","","","","2","html-slider-response","167","","","","4",""
"3500","notebook","kemia,msitu,kila,mdudu","kemia","f","2","html-keyboard-response","168","j","kila","false","",""
"2154.900000035763","","","","","2","html-slider-response","169","","","","2",""
"3792","shoulder","kelele,ndaniya,mkuu,guruwe","mkuu","j","2","html-keyboard-response","170","f","kelele","false","",""
"2649.800000011921","","","","","2","html-slider-response","171","","","","4",""
"2477","park","tambok,pwani,bunifu,ihalas","bunifu","j","2","html-keyboard-response","172","n","ihalas","false","",""
"2572.100000023842","","","","","2","html-slider-response","173","","","","2",""
"8929","number","shule,kengele,mundamo,choori","mundamo","j","2","html-keyboard-response","174","v","kengele","false","",""
"2351.7000000476837","","","","","2","html-slider-response","175","","","","2",""
"2720","apple","ukame,estante,edad,kisu","kisu","n","2","html-keyboard-response","176","n","kisu","true","",""
"2312.5","","","","","2","html-slider-response","177","","","","4",""
"1869","letter","filimbi,kifua,chuma,uhuru","kifua","v","2","html-keyboard-response","178","n","uhuru","false","",""
"2376.300000011921","","","","","2","html-slider-response","179","","","","1",""
"2403","eel","ishara,kunywa,kabuang,msumari","msumari","n","2","html-keyboard-response","180","n","msumari","true","",""
"1680.0999999642372","","","","","2","html-slider-response","181","","","","4",""
"3520","cop","bustani,jikoni,bakus,mechezo","mechezo","n","2","html-keyboard-response","182","f","bustani","false","",""
"1842.5999999642372","","","","","2","html-slider-response","183","","","","2",""
"5868","wolf","kaburi,ndizi,mchuzi,lugha","lugha","n","2","html-keyboard-response","184","n","lugha","true","",""
"2613.100000023842","","","","","2","html-slider-response","185","","","","4",""
"2658","squirrel","mahugaw,ukweli,hofu,kichwa","hofu","j","2","html-keyboard-response","186","v","ukweli","false","",""
"3277.5","","","","","2","html-slider-response","187","","","","2",""
"4319","nose","sehemu,gubat,kopa,kidole","sehemu","f","2","html-keyboard-response","188","f","sehemu","true","",""
"3860.699999988079","","","","","2","html-slider-response","189","","","","3",""
"2476","sock","ndoora,kimysa,mamba,mtirka","mamba","j","2","html-keyboard-response","190","j","mamba","true","",""
"1677.7000000476837","","","","","2","html-slider-response","191","","","","4",""
"2358","bank","kudhibi,silingan,tualya,ofisi","silingan","v","2","html-keyboard-response","192","n","ofisi","false","",""
"2597.899999976158","","","","","2","html-slider-response","193","","","","1",""
"9579","donkey","elfu,bloke,lalake,rombus","elfu","f","2","html-keyboard-response","194","j","lalake","false","",""
"2011","","","","","2","html-slider-response","195","","","","2",""
"5513","poster","madungog,nchi,fedha,kasuko","madungog","f","2","html-keyboard-response","196","f","madungog","true","",""
"1896.5","","","","","2","html-slider-response","197","","","","4",""
"3806","puppet","mazishi,napulo,lamok,godoro","mazishi","f","2","html-keyboard-response","198","f","mazishi","true","",""
"1701.5999999642372","","","","","2","html-slider-response","199","","","","2",""
"3431","hill","kushoto,matumbo,kukimba,sweta","matumbo","v","2","html-keyboard-response","200","v","matumbo","true","",""
"1717.199999988079","","","","","2","html-slider-response","201","","","","4",""
"1777","tooth","kijiko,kabalaka,uadui,pahiyum","kabalaka","v","2","html-keyboard-response","202","n","pahiyum","false","",""
"1957.8999999761581","","","","","2","html-slider-response","203","","","","1",""
"4100","woman","bandari,pagtabon,bituin,kovuli","pagtabon","v","2","html-keyboard-response","204","v","pagtabon","true","",""
"2729.800000011921","","","","","2","html-slider-response","205","","","","4",""
"2918","wheel","punda,bafuni,tawo,baadaye","bafuni","v","2","html-keyboard-response","206","v","bafuni","true","",""
"2225.600000023842","","","","","2","html-slider-response","207","","","","4",""
"3459","mother","kahawa,babaye,mbuzi,jokofu","babaye","v","2","html-keyboard-response","208","v","babaye","true","",""
"3077.100000023842","","","","","2","html-slider-response","209","","","","1",""
"4917","bed","kalipay,haraka,starehe,mapintas","mapintas","n","2","html-keyboard-response","210","n","mapintas","true","",""
"1908.300000011921","","","","","2","html-slider-response","211","","","","4",""
"13723","key","miaka,chombo,goma,ahos","chombo","v","2","html-keyboard-response","212","n","ahos","false","",""
"3274","","","","","2","html-slider-response","213","","","","1",""
"7264","page","wakala,ishiri,skina,wimbo","wimbo","n","2","html-keyboard-response","214","v","ishiri","false","",""
"2057","","","","","2","html-slider-response","215","","","","2",""
"2116","pants","pintal,haki,chuki,hari","haki","v","2","html-keyboard-response","216","n","hari","false","",""
"2461.800000011921","","","","","2","html-slider-response","217","","","","1",""
"21906","sun","bendi,basi,luha,uongo","basi","v","2","html-keyboard-response","218","v","basi","true","",""
"2280.099999964237","","","","","2","html-slider-response","219","","","","2",""
"1459","finger","moyo,simu,sufuria,lima","moyo","f","2","html-keyboard-response","220","v","simu","false","",""
"3979.7999999523163","","","","","2","html-slider-response","221","","","","2",""
"4413","shoe","nyeusi,hatua,kama,uyoga","uyoga","n","2","html-keyboard-response","222","f","nyeusi","false","",""
"1808","","","","","2","html-slider-response","223","","","","2",""
"10294","giraffe","daraja,mahitabo,jumatu,hangyo","mahitabo","v","2","html-keyboard-response","224","n","hangyo","false","",""
"3403.199999988079","","","","","2","html-slider-response","225","","","","2",""
"6844","dog","lubi,washia,bahari,kalamu","bahari","j","2","html-keyboard-response","226","v","washia","false","",""
"2662.199999988079","","","","","2","html-slider-response","227","","","","2",""
"9106","box","kuacha,adui,rafiki,kitande","adui","v","2","html-keyboard-response","228","n","kitande","false","",""
"2316.699999988079","","","","","2","html-slider-response","229","","","","2",""
"3230","scissors","duga,tanuri,mtawa,suga","tanuri","v","2","html-keyboard-response","230","v","tanuri","true","",""
"2470.599999964237","","","","","2","html-slider-response","231","","","","1",""
"3868","cat","paghukom,neyemba,baki,akili","paghukom","f","2","html-keyboard-response","232","f","paghukom","true","",""
"1939.8999999761581","","","","","2","html-slider-response","233","","","","4",""
"4248","basket","kumbuka,utepe,hasira,kumba","kumba","n","2","html-keyboard-response","234","f","kumbuka","false","",""
"1788.9000000357628","","","","","2","html-slider-response","235","","","","4",""
"2818","snake","jansa,pagtukod,karon,mvringo","pagtukod","v","2","html-keyboard-response","236","f","jansa","false","",""
"1870.300000011921","","","","","2","html-slider-response","237","","","","1",""
"3655","gift","baba,pagtawag,nyange,baso","pagtawag","v","2","html-keyboard-response","238","f","baba","false","",""
"2018","","","","","2","html-slider-response","239","","","","1",""
"4169","train","sayari,itik,dakika,mungu","sayari","f","2","html-keyboard-response","240","j","dakika","false","",""
"2279.300000011921","","","","","2","html-slider-response","241","","","","2",""
"3348","pudding","abug,mpishi,aibu,iring","aibu","j","2","html-keyboard-response","242","f","abug","false","",""
"2008.199999988079","","","","","2","html-slider-response","243","","","","2",""
"3749","tomato","chupi,chupa,takatak,mvua","mvua","n","2","html-keyboard-response","244","f","chupi","false","",""
"2334.400000035763","","","","","2","html-slider-response","245","","","","1",""
"4805","stone","ulimwengu,mkasi,asili,wingi","wingi","n","2","html-keyboard-response","246","j","asili","false","",""
"2330.899999976158","","","","","2","html-slider-response","247","","","","2",""
"5044","hammer","mekno,napakyas,kitovu,layag","napakyas","v","2","html-keyboard-response","248","v","napakyas","true","",""
"2743.300000011921","","","","","2","html-slider-response","249","","","","4",""
"4475","knee","duka,mvuke,kubale,bili","duka","f","2","html-keyboard-response","250","f","duka","true","",""
"2116.300000011921","","","","","2","html-slider-response","251","","","","4",""
"4721","ceiling","maua,kugita,kawaida,rayna","maua","f","2","html-keyboard-response","252","f","maua","true","",""
"3656","","","","","2","html-slider-response","253","","","","4",""
"103568","spoon","pagsulod,betri,nzuri,ngazi","pagsulod","f","2","html-keyboard-response","254","v","betri","false","",""
"2472.399999976158","","","","","2","html-slider-response","255","","","","1",""
"8496","marker","mapafu,salita,atay,maji","maji","n","2","html-keyboard-response","256","n","maji","true","",""
"2139.199999988079","","","","","2","html-slider-response","257","","","","5",""
"3689","candle","gabi,geza,farasi,kupanda","geza","v","2","html-keyboard-response","258","n","kupanda","false","",""
"2632.5","","","","","2","html-slider-response","259","","","","2",""
"2157","tissue","lamigas,ugomvi,kisiwa,katika","ugomvi","v","2","html-keyboard-response","260","n","katika","false","",""
"4863.599999964237","","","","","2","html-slider-response","261","","","","2",""
"2286","bridge","sahani,daima,ngono,panya","sahani","f","2","html-keyboard-response","262","f","sahani","true","",""
"2067.800000011921","","","","","2","html-slider-response","263","","","","2",""
"7060","berry","abogado,nogozi,kofia,kinywa","kofia","j","2","html-keyboard-response","264","n","kinywa","false","",""
"2206.199999988079","","","","","2","html-slider-response","265","","","","4",""
"4971","triangle","kihozi,kasadpan,bentaha,liog","kasadpan","v","2","html-keyboard-response","266","n","liog","false","",""
"2014.3999999761581","","","","","2","html-slider-response","267","","","","1",""
"6564","door","surali,tena,soko,nyota","surali","f","2","html-keyboard-response","268","v","tena","false","",""
"2770.699999988079","","","","","2","html-slider-response","269","","","","2",""
"4867","fish","buli,bala,baho,imani","buli","f","2","html-keyboard-response","270","f","buli","true","",""
"3247.199999988079","","","","","2","html-slider-response","271","","","","5",""
"2880","curtain","lisud,mchanga,bulwawan,chubani","mchanga","v","2","html-keyboard-response","272","f","lisud","false","",""
"1823.8999999761581","","","","","2","html-slider-response","273","","","","1",""
"7100","flag","ndege,mkate,trekta,kawa","trekta","j","2","html-keyboard-response","274","n","kawa","false","",""
"2294.199999988079","","","","","2","html-slider-response","275","","","","2",""
"2275","boat","agalon,hamsi,pombe,kitanda","agalon","f","2","html-keyboard-response","276","v","hamsi","false","",""
"2011.9000000357628","","","","","2","html-slider-response","277","","","","1",""
"3788","rose","singizi,mwanake,paghalad,amani","paghalad","j","2","html-keyboard-response","278","n","amani","false","",""
"1900.6000000238419","","","","","2","html-slider-response","279","","","","2",""
"3877","lamp","daub,bilaska,afya,mbolea","afya","j","2","html-keyboard-response","280","j","afya","true","",""
"1796.699999988079","","","","","2","html-slider-response","281","","","","5",""
"2887","cigar","ndugu,kuta,mlango,adhabu","adhabu","n","2","html-keyboard-response","282","v","kuta","false","",""
"1828.5999999642372","","","","","2","html-slider-response","283","","","","1",""
"9408","list","alizeti,kuzama,kaso,wingu","wingu","n","2","html-keyboard-response","284","n","wingu","true","",""
"1721.800000011921","","","","","2","html-slider-response","285","","","","4",""
"3267","sheet","juuya,bililhon,watu,kamantis","bililhon","v","2","html-keyboard-response","286","v","bililhon","true","",""
"2070.800000011921","","","","","2","html-slider-response","287","","","","4",""
"13530","picture","kubwa,silya,chaki,asin","kubwa","f","2","html-keyboard-response","288","n","asin","false","",""
"3167.699999988079","","","","","2","html-slider-response","289","","","","1",""
"11289","towel","tembo,pagpalit,funzi,pito","pagpalit","v","2","html-keyboard-response","290","n","pito","false","",""
"2150.7000000476837","","","","","2","html-slider-response","291","","","","1",""
"3046","window","nanga,kujenga,umaga,kweli","kweli","n","2","html-keyboard-response","292","n","kweli","true","",""
"3488.800000011921","","","","","2","html-slider-response","293","","","","5",""
"4292","box","kuacha,rafiki,kitande,adui","adui","n","3","html-keyboard-response","310","n","adui","true","","4"
"2091.800000011921","","","","","3","html-slider-response","311","","","","2",""
"null","","","","","3","html-keyboard-response","312","","","","",""
"2822","pants","pintal,chuki,haki,hari","haki","j","3","html-keyboard-response","313","j","haki","true","","4"
"5515.299999952316","","","","","3","html-slider-response","314","","","","3",""
"null","","","","","3","html-keyboard-response","315","","","","",""
"3779","cup","dagat,matumai,shimoni,jeraha","matumai","v","3","html-keyboard-response","316","f","dagat","false","","4"
"1906.800000011921","","","","","3","html-slider-response","317","","","","2",""
"null","","","","","3","html-keyboard-response","318","","","","",""
"2689","triangle","kihozi,bentaha,liog,kasadpan","kasadpan","n","3","html-keyboard-response","319","n","kasadpan","true","","4"
"2042.2000000476837","","","","","3","html-slider-response","320","","","","2",""
"null","","","","","3","html-keyboard-response","321","","","","",""
"2379","curtain","mchanga,lisud,bulwawan,chubani","mchanga","f","3","html-keyboard-response","322","v","lisud","false","","4"
"1952.800000011921","","","","","3","html-slider-response","323","","","","2",""
"null","","","","","3","html-keyboard-response","324","","","","",""
"2010","clock","kartasi,abang,osha,mbwa","mbwa","n","3","html-keyboard-response","325","n","mbwa","true","","4"
"1865.699999988079","","","","","3","html-slider-response","326","","","","5",""
"null","","","","","3","html-keyboard-response","327","","","","",""
"3187","mirror","rangi,kanding,sulagma,furaha","sulagma","j","3","html-keyboard-response","328","n","furaha","false","","4"
"1992.8999999761581","","","","","3","html-slider-response","329","","","","2",""
"null","","","","","3","html-keyboard-response","330","","","","",""
"1628","coffin","barua,tubag,hulma,kioo","kioo","n","3","html-keyboard-response","331","n","kioo","true","","1"
"1867.5","","","","","3","html-slider-response","332","","","","5",""
"null","","","","","3","html-keyboard-response","333","","","","",""
"4011","magazine","gundi,kiti,mchawi,bahandi","kiti","v","3","html-keyboard-response","334","j","mchawi","false","","4"
"3460.5","","","","","3","html-slider-response","335","","","","3",""
"null","","","","","3","html-keyboard-response","336","","","","",""
"2187","column","pundok,dila,ufagio,pala","ufagio","j","3","html-keyboard-response","337","j","ufagio","true","","1"
"1863.800000011921","","","","","3","html-slider-response","338","","","","5",""
"null","","","","","3","html-keyboard-response","339","","","","",""
"2644","number","mundamo,shule,kengele,choori","mundamo","f","3","html-keyboard-response","340","v","shule","false","","4"
"2028.3999999761581","","","","","3","html-slider-response","341","","","","2",""
"null","","","","","3","html-keyboard-response","342","","","","",""
"3369","rose","singizi,mwanake,amani,paghalad","paghalad","n","3","html-keyboard-response","343","j","amani","false","","4"
"3213.699999988079","","","","","3","html-slider-response","344","","","","3",""
"null","","","","","3","html-keyboard-response","345","","","","",""
"3464","eel","ishara,kunywa,msumari,kabuang","msumari","j","3","html-keyboard-response","346","j","msumari","true","","4"
"2063.199999988079","","","","","3","html-slider-response","347","","","","4",""
"null","","","","","3","html-keyboard-response","348","","","","",""
"5911","gift","pagtawag,baba,nyange,baso","pagtawag","f","3","html-keyboard-response","349","v","baba","false","","4"
"5659","","","","","3","html-slider-response","350","","","","3",""
"null","","","","","3","html-keyboard-response","351","","","","",""
"2460","apple","kisu,ukame,estante,edad","kisu","f","3","html-keyboard-response","352","f","kisu","true","","1"
"5307.300000011921","","","","","3","html-slider-response","353","","","","5",""
"null","","","","","3","html-keyboard-response","354","","","","",""
"1551","wheel","punda,tawo,baadaye,bafuni","bafuni","n","3","html-keyboard-response","355","n","bafuni","true","","1"
"1781.800000011921","","","","","3","html-slider-response","356","","","","5",""
"null","","","","","3","html-keyboard-response","357","","","","",""
"7541","knee","duka,mvuke,kubale,bili","duka","f","3","html-keyboard-response","358","f","duka","true","","4"
"2263.600000023842","","","","","3","html-slider-response","359","","","","4",""
"null","","","","","3","html-keyboard-response","360","","","","",""
"1301","basket","kumbuka,kumba,utepe,hasira","kumba","v","3","html-keyboard-response","361","v","kumba","true","","1"
"1786.699999988079","","","","","3","html-slider-response","362","","","","5",""
"null","","","","","3","html-keyboard-response","363","","","","",""
"7520","park","tambok,pwani,ihalas,bunifu","bunifu","n","3","html-keyboard-response","364","f","tambok","false","","4"
"1815.199999988079","","","","","3","html-slider-response","365","","","","2",""
"null","","","","","3","html-keyboard-response","366","","","","",""
"2830","finger","simu,sufuria,lima,moyo","moyo","n","3","html-keyboard-response","367","j","lima","false","","4"
"2414.300000011921","","","","","3","html-slider-response","368","","","","3",""
"null","","","","","3","html-keyboard-response","369","","","","",""
"2908","boat","hamsi,pombe,agalon,kitanda","agalon","j","3","html-keyboard-response","370","j","agalon","true","","4"
"1945.199999988079","","","","","3","html-slider-response","371","","","","2",""
"null","","","","","3","html-keyboard-response","372","","","","",""
"12856","hill","kushoto,kukimba,sweta,matumbo","matumbo","n","3","html-keyboard-response","373","n","matumbo","true","","4"
"1899.4000000357628","","","","","3","html-slider-response","374","","","","4",""
"null","","","","","3","html-keyboard-response","375","","","","",""
"4693","train","itik,dakika,mungu,sayari","sayari","n","3","html-keyboard-response","376","n","sayari","true","","4"
"1546.6000000238419","","","","","3","html-slider-response","377","","","","2",""
"null","","","","","3","html-keyboard-response","378","","","","",""
"13258","wolf","kaburi,lugha,ndizi,mchuzi","lugha","v","3","html-keyboard-response","379","v","lugha","true","","4"
"2267.600000023842","","","","","3","html-slider-response","380","","","","4",""
"null","","","","","3","html-keyboard-response","381","","","","",""
"27510","snake","jansa,karon,mvringo,pagtukod","pagtukod","n","3","html-keyboard-response","382","v","karon","false","","4"
"2041.9000000357628","","","","","3","html-slider-response","383","","","","2",""
"null","","","","","3","html-keyboard-response","384","","","","",""
"6913","tooth","kijiko,uadui,kabalaka,pahiyum","kabalaka","j","3","html-keyboard-response","385","j","kabalaka","true","","4"
"2437.399999976158","","","","","3","html-slider-response","386","","","","2",""
"null","","","","","3","html-keyboard-response","387","","","","",""
"5393","notebook","msitu,kemia,kila,mdudu","kemia","v","3","html-keyboard-response","388","j","kila","false","","4"
"2944.699999988079","","","","","3","html-slider-response","389","","","","2",""
"null","","","","","3","html-keyboard-response","390","","","","",""
"2771","flag","ndege,trekta,mkate,kawa","trekta","v","3","html-keyboard-response","391","n","kawa","false","","4"
"1692.2000000476837","","","","","3","html-slider-response","392","","","","2",""
"null","","","","","3","html-keyboard-response","393","","","","",""
"3684","squirrel","mahugaw,ukweli,kichwa,hofu","hofu","n","3","html-keyboard-response","394","j","kichwa","false","","4"
"2169.800000011921","","","","","3","html-slider-response","395","","","","3",""
"null","","","","","3","html-keyboard-response","396","","","","",""
"8056","door","tena,surali,soko,nyota","surali","v","3","html-keyboard-response","397","j","soko","false","","4"
"2358.400000035763","","","","","3","html-slider-response","398","","","","2",""
"null","","","","","3","html-keyboard-response","399","","","","",""
"6248","salmon","mzungu,sensilyo,seri,baharia","sensilyo","v","3","html-keyboard-response","400","v","sensilyo","true","","4"
"1610.699999988079","","","","","3","html-slider-response","401","","","","4",""
"null","","","","","3","html-keyboard-response","402","","","","",""
"2630","shoulder","kelele,ndaniya,guruwe,mkuu","mkuu","n","3","html-keyboard-response","403","f","kelele","false","","4"
"1889","","","","","3","html-slider-response","404","","","","5",""
"null","","","","","3","html-keyboard-response","405","","","","",""
"3662","lamp","daub,bilaska,mbolea,afya","afya","n","3","html-keyboard-response","406","f","daub","false","","4"
"2759.699999988079","","","","","3","html-slider-response","407","","","","2",""
"null","","","","","3","html-keyboard-response","408","","","","",""
"8936","shelf","bungtod,kadaot,pamahaw,awit","pamahaw","j","3","html-keyboard-response","409","j","pamahaw","true","","1"
"2728.900000035763","","","","","3","html-slider-response","410","","","","5",""
"null","","","","","3","html-keyboard-response","411","","","","",""
"4949","human","bado,kikapu,punguza,tinapay","tinapay","n","3","html-keyboard-response","412","j","punguza","false","","4"
"2699.199999988079","","","","","3","html-slider-response","413","","","","4",""
"null","","","","","3","html-keyboard-response","414","","","","",""
"5872","towel","tembo,funzi,pagpalit,pito","pagpalit","j","3","html-keyboard-response","415","n","pito","false","","4"
"2196.300000011921","","","","","3","html-slider-response","416","","","","2",""
"null","","","","","3","html-keyboard-response","417","","","","",""
"2842","cat","neyemba,baki,paghukom,akili","paghukom","j","3","html-keyboard-response","418","v","baki","false","","4"
"1868.199999988079","","","","","3","html-slider-response","419","","","","2",""
"null","","","","","3","html-keyboard-response","420","","","","",""
"9142","spider","bunyag,mkboa,kamwe,atop","kamwe","j","3","html-keyboard-response","421","j","kamwe","true","","4"
"1858","","","","","3","html-slider-response","422","","","","5",""
"null","","","","","3","html-keyboard-response","423","","","","",""
"7939","window","nanga,kweli,kujenga,umaga","kweli","v","3","html-keyboard-response","424","v","kweli","true","","4"
"1892.6000000238419","","","","","3","html-slider-response","425","","","","2",""
"null","","","","","3","html-keyboard-response","426","","","","",""
"2048","woman","pagtabon,bandari,bituin,kovuli","pagtabon","f","3","html-keyboard-response","427","f","pagtabon","true","","1"
"1925.800000011921","","","","","3","html-slider-response","428","","","","5",""
"null","","","","","3","html-keyboard-response","429","","","","",""
"2854","giraffe","daraja,mahitabo,jumatu,hangyo","mahitabo","v","3","html-keyboard-response","430","f","daraja","false","","4"
"1792.7999999523163","","","","","3","html-slider-response","431","","","","2",""
"null","","","","","3","html-keyboard-response","432","","","","",""
"5232","elephant","petye,kito,pagduol,suka","kito","v","3","html-keyboard-response","433","j","pagduol","false","","4"
"2130.399999976158","","","","","3","html-slider-response","434","","","","2",""
"null","","","","","3","html-keyboard-response","435","","","","",""
"2982","cave","kesho,ganti,maisha,nyundo","kesho","f","3","html-keyboard-response","436","v","ganti","false","","4"
"2460.100000023842","","","","","3","html-slider-response","437","","","","2",""
"null","","","","","3","html-keyboard-response","438","","","","",""
"10910","bread","kaili,dizeli,bugas,dari","dari","n","3","html-keyboard-response","439","f","kaili","false","","4"
"2378","","","","","3","html-slider-response","440","","","","4",""
"null","","","","","3","html-keyboard-response","441","","","","",""
"6002","stone","ulimwengu,mkasi,asili,wingi","wingi","n","3","html-keyboard-response","442","n","wingi","true","","4"
"1929.1000000238419","","","","","3","html-slider-response","443","","","","2",""
"null","","","","","3","html-keyboard-response","444","","","","",""
"28296","donkey","elfu,bloke,lalake,rombus","elfu","f","3","html-keyboard-response","445","n","rombus","false","","4"
"2067.5","","","","","3","html-slider-response","446","","","","2",""
"null","","","","","3","html-keyboard-response","447","","","","",""
"2772","bridge","daima,sahani,ngono,panya","sahani","v","3","html-keyboard-response","448","n","panya","false","","4"
"1817","","","","","3","html-slider-response","449","","","","2",""
"null","","","","","3","html-keyboard-response","450","","","","",""
"3591","bonfire","mwezi,mfuko,kusanya,goti","goti","n","3","html-keyboard-response","451","n","goti","true","","4"
"2951.699999988079","","","","","3","html-slider-response","452","","","","5",""
"null","","","","","3","html-keyboard-response","453","","","","",""
"7414","book","mali,kuhesa,picha,mara","mali","f","3","html-keyboard-response","454","f","mali","true","","4"
"2135","","","","","3","html-slider-response","455","","","","5",""
"null","","","","","3","html-keyboard-response","456","","","","",""
"4923","fish","buli,bala,baho,imani","buli","f","3","html-keyboard-response","457","f","buli","true","","4"
"1966.6000000238419","","","","","3","html-slider-response","458","","","","5",""
"null","","","","","3","html-keyboard-response","459","","","","",""
"2448","spoon","pagsulod,betri,nzuri,ngazi","pagsulod","f","3","html-keyboard-response","460","f","pagsulod","true","","4"
"2052.900000035763","","","","","3","html-slider-response","461","","","","2",""
"null","","","","","3","html-keyboard-response","462","","","","",""
"3419","scissors","duga,tanuri,mtawa,suga","tanuri","v","3","html-keyboard-response","463","f","duga","false","","4"
"1612.8999999761581","","","","","3","html-slider-response","464","","","","2",""
"null","","","","","3","html-keyboard-response","465","","","","",""
"2970","page","wakala,wimbo,ishiri,skina","wimbo","v","3","html-keyboard-response","466","j","ishiri","false","","4"
"2030.300000011921","","","","","3","html-slider-response","467","","","","2",""
"null","","","","","3","html-keyboard-response","468","","","","",""
"2096","nose","gubat,sehemu,kopa,kidole","sehemu","v","3","html-keyboard-response","469","v","sehemu","true","","1"
"2042.3999999761581","","","","","3","html-slider-response","470","","","","5",""
"null","","","","","3","html-keyboard-response","471","","","","",""
"9064","ceiling","kugita,kawaida,rayna,maua","maua","n","3","html-keyboard-response","472","j","rayna","false","","4"
"2015.7000000476837","","","","","3","html-slider-response","473","","","","1",""
"null","","","","","3","html-keyboard-response","474","","","","",""
"9656","bucket","baga,ijayo,kiatu,init","kiatu","j","3","html-keyboard-response","475","n","init","false","","4"
"2563.800000011921","","","","","3","html-slider-response","476","","","","2",""
"null","","","","","3","html-keyboard-response","477","","","","",""
"1872","berry","abogado,nogozi,kofia,kinywa","kofia","j","3","html-keyboard-response","478","j","kofia","true","","1"
"2243.599999964237","","","","","3","html-slider-response","479","","","","5",""
"null","","","","","3","html-keyboard-response","480","","","","",""
"1331","mother","kahawa,mbuzi,babaye,jokofu","babaye","j","3","html-keyboard-response","481","j","babaye","true","","1"
"1806.6000000238419","","","","","3","html-slider-response","482","","","","5",""
"null","","","","","3","html-keyboard-response","483","","","","",""
"2561","mosquito","isda,martilyo,taras,gutom","martilyo","v","3","html-keyboard-response","484","v","martilyo","true","","4"
"1940.5","","","","","3","html-slider-response","485","","","","2",""
"null","","","","","3","html-keyboard-response","486","","","","",""
"2607","perfume","katuyoan,bino,sungura,ndogo","katuyoan","f","3","html-keyboard-response","487","f","katuyoan","true","","4"
"2277.400000035763","","","","","3","html-slider-response","488","","","","2",""
"null","","","","","3","html-keyboard-response","489","","","","",""
"12740","sheet","bililhon,juuya,watu,kamantis","bililhon","f","3","html-keyboard-response","490","v","juuya","false","","4"
"2085.600000023842","","","","","3","html-slider-response","491","","","","2",""
"null","","","","","3","html-keyboard-response","492","","","","",""
"3861","puppet","napulo,lamok,mazishi,godoro","mazishi","j","3","html-keyboard-response","493","j","mazishi","true","","1"
"1743.199999988079","","","","","3","html-slider-response","494","","","","5",""
"null","","","","","3","html-keyboard-response","495","","","","",""
"2895","poster","nchi,fedha,kasuko,madungog","madungog","n","3","html-keyboard-response","496","n","madungog","true","","4"
"2330.300000011921","","","","","3","html-slider-response","497","","","","2",""
"null","","","","","3","html-keyboard-response","498","","","","",""
"2456","music","mraba,mageho,baiski,tumbo","baiski","j","3","html-keyboard-response","499","v","mageho","false","","4"
"2290.699999988079","","","","","3","html-slider-response","500","","","","2",""
"null","","","","","3","html-keyboard-response","501","","","","",""
"2515","key","miaka,goma,ahos,chombo","chombo","n","3","html-keyboard-response","502","n","chombo","true","","4"
"5159.100000023842","","","","","3","html-slider-response","503","","","","3",""
"null","","","","","3","html-keyboard-response","504","","","","",""
"2552","sock","ndoora,kimysa,mamba,mtirka","mamba","j","3","html-keyboard-response","505","j","mamba","true","","4"
"2484.2000000476837","","","","","3","html-slider-response","506","","","","4",""
"null","","","","","3","html-keyboard-response","507","","","","",""
"2721","marker","mapafu,maji,salita,atay","maji","v","3","html-keyboard-response","508","v","maji","true","","4"
"1926.7999999523163","","","","","3","html-slider-response","509","","","","5",""
"null","","","","","3","html-keyboard-response","510","","","","",""
"2597","office","leso,hazini,yatima,kuna","leso","f","3","html-keyboard-response","511","f","leso","true","","4"
"2590.900000035763","","","","","3","html-slider-response","512","","","","2",""
"null","","","","","3","html-keyboard-response","513","","","","",""
"3857","shoe","nyeusi,hatua,uyoga,kama","uyoga","j","3","html-keyboard-response","514","n","kama","false","","4"
"1895.1000000238419","","","","","3","html-slider-response","515","","","","2",""
"null","","","","","3","html-keyboard-response","516","","","","",""
"2544","cop","bustani,jikoni,mechezo,bakus","mechezo","j","3","html-keyboard-response","517","j","mechezo","true","","4"
"8621.900000035763","","","","","3","html-slider-response","518","","","","2",""
"null","","","","","3","html-keyboard-response","519","","","","",""
"3074","bank","kudhibi,tualya,ofisi,silingan","silingan","n","3","html-keyboard-response","520","f","kudhibi","false","","4"
"1814.5999999642372","","","","","3","html-slider-response","521","","","","2",""
"null","","","","","3","html-keyboard-response","522","","","","",""
"1858","letter","filimbi,chuma,uhuru,kifua","kifua","n","3","html-keyboard-response","523","n","kifua","true","","1"
"1855.2999999523163","","","","","3","html-slider-response","524","","","","5",""
"null","","","","","3","html-keyboard-response","525","","","","",""
"1493","dog","lubi,bahari,washia,kalamu","bahari","v","3","html-keyboard-response","526","v","bahari","true","","1"
"2922.399999976158","","","","","3","html-slider-response","527","","","","5",""
"null","","","","","3","html-keyboard-response","528","","","","",""
"2686","shop","nopya,kerida,samaki,ndezu","samaki","j","3","html-keyboard-response","529","f","nopya","false","","4"
"2224.899999976158","","","","","3","html-slider-response","530","","","","2",""
"null","","","","","3","html-keyboard-response","531","","","","",""
"3016","flower","tamasha,bega,lobo,usiku","bega","v","3","html-keyboard-response","532","j","lobo","false","","4"
"1972.1000000238419","","","","","3","html-slider-response","533","","","","4",""
"null","","","","","3","html-keyboard-response","534","","","","",""
"1462","cigar","ndugu,kuta,mlango,adhabu","adhabu","n","3","html-keyboard-response","535","n","adhabu","true","","1"
"1878.300000011921","","","","","3","html-slider-response","536","","","","5",""
"null","","","","","3","html-keyboard-response","537","","","","",""
"2365","hammer","napakyas,mekno,kitovu,layag","napakyas","f","3","html-keyboard-response","538","j","kitovu","false","","4"
"2738.100000023842","","","","","3","html-slider-response","539","","","","2",""
"null","","","","","3","html-keyboard-response","540","","","","",""
"2977","fork","baboy,mgonjwa,paghago,gorisi","mgonjwa","v","3","html-keyboard-response","541","v","mgonjwa","true","","4"
"1646.2000000476837","","","","","3","html-slider-response","542","","","","4",""
"null","","","","","3","html-keyboard-response","543","","","","",""
"1368","sun","bendi,luha,uongo,basi","basi","n","3","html-keyboard-response","544","n","basi","true","","1"
"3556.199999988079","","","","","3","html-slider-response","545","","","","5",""
"null","","","","","3","html-keyboard-response","546","","","","",""
"1677","ladder","mashua,mwanga,pangalan,kamba","pangalan","j","3","html-keyboard-response","547","v","mwanga","false","","4"
"2150.5","","","","","3","html-slider-response","548","","","","2",""
"null","","","","","3","html-keyboard-response","549","","","","",""
"1448","banana","kasamok,kazi,hagdan,twai","kazi","v","3","html-keyboard-response","550","v","kazi","true","","1"
"2078.5","","","","","3","html-slider-response","551","","","","5",""
"null","","","","","3","html-keyboard-response","552","","","","",""
"4204","pudding","aibu,abug,mpishi,iring","aibu","f","3","html-keyboard-response","553","v","abug","false","","4"
"1941","","","","","3","html-slider-response","554","","","","2",""
"null","","","","","3","html-keyboard-response","555","","","","",""
"8094","body","nyundu,jibini,kununa,tindashan","tindashan","n","3","html-keyboard-response","556","n","tindashan","true","","4"
"3544.5","","","","","3","html-slider-response","557","","","","4",""
"null","","","","","3","html-keyboard-response","558","","","","",""
"11550","bed","kalipay,haraka,starehe,mapintas","mapintas","n","3","html-keyboard-response","559","v","haraka","false","","4"
"1858.5999999642372","","","","","3","html-slider-response","560","","","","2",""
"null","","","","","3","html-keyboard-response","561","","","","",""
"3075","tissue","lamigas,kisiwa,ugomvi,katika","ugomvi","j","3","html-keyboard-response","562","v","kisiwa","false","","4"
"3827.199999988079","","","","","3","html-slider-response","563","","","","3",""
"null","","","","","3","html-keyboard-response","564","","","","",""
"16129","candle","gabi,geza,farasi,kupanda","geza","v","3","html-keyboard-response","565","n","kupanda","false","","4"
"2004.1000000238419","","","","","3","html-slider-response","566","","","","2",""
"null","","","","","3","html-keyboard-response","567","","","","",""
"13946","tomato","chupi,chupa,mvua,takatak","mvua","j","3","html-keyboard-response","568","j","mvua","true","","1"
"4260.400000035763","","","","","3","html-slider-response","569","","","","5",""
"null","","","","","3","html-keyboard-response","570","","","","",""
"4169","list","wingu,alizeti,kuzama,kaso","wingu","f","3","html-keyboard-response","571","n","kaso","false","","4"
"2067.599999964237","","","","","3","html-slider-response","572","","","","2",""
"null","","","","","3","html-keyboard-response","573","","","","",""
"7960","olive","bata,siagi,welder,jiwe","jiwe","n","3","html-keyboard-response","574","n","jiwe","true","","4"
"2086.599999964237","","","","","3","html-slider-response","575","","","","5",""
"null","","","","","3","html-keyboard-response","576","","","","",""
"1391","picture","silya,kubwa,chaki,asin","kubwa","v","3","html-keyboard-response","577","v","kubwa","true","","1"
"1908.7000000476837","","","","","3","html-slider-response","578","","","","5",""
"null","","","","","3","html-keyboard-response","579","","","","",""
