"rt","en_word","options","swa_word","correct_answer","phase","trial_type","trial_index","input_answer","input_word","accuracy","certainty","amt_choices"
"6061","bonfire","mwezi,mfuko,goti,kusanya","goti","j","2","html-keyboard-response","114","f","mwezi","false","",""
"7375","","","","","2","html-slider-response","115","","","","3",""
"2968","flower","bega,tamasha,lobo,usiku","bega","f","2","html-keyboard-response","116","j","lobo","false","",""
"5822","","","","","2","html-slider-response","117","","","","2",""
"4222","column","pundok,ufagio,dila,pala","ufagio","v","2","html-keyboard-response","118","n","pala","false","",""
"1616","","","","","2","html-slider-response","119","","","","2",""
"3078","music","mraba,mageho,tumbo,baiski","baiski","n","2","html-keyboard-response","120","j","tumbo","false","",""
"1775","","","","","2","html-slider-response","121","","","","2",""
"3661","spider","kamwe,bunyag,mkboa,atop","kamwe","f","2","html-keyboard-response","122","v","bunyag","false","",""
"2439","","","","","2","html-slider-response","123","","","","2",""
"5031","fork","baboy,mgonjwa,paghago,gorisi","mgonjwa","v","2","html-keyboard-response","124","f","baboy","false","",""
"1766","","","","","2","html-slider-response","125","","","","2",""
"2464","mosquito","isda,martilyo,taras,gutom","martilyo","v","2","html-keyboard-response","126","v","martilyo","true","",""
"2183","","","","","2","html-slider-response","127","","","","2",""
"3015","banana","kasamok,kazi,hagdan,twai","kazi","v","2","html-keyboard-response","128","v","kazi","true","",""
"3911","","","","","2","html-slider-response","129","","","","2",""
"4446","cup","dagat,matumai,shimoni,jeraha","matumai","v","2","html-keyboard-response","130","v","matumai","true","",""
"1855","","","","","2","html-slider-response","131","","","","2",""
"3463","shop","samaki,nopya,kerida,ndezu","samaki","f","2","html-keyboard-response","132","n","ndezu","false","",""
"1896","","","","","2","html-slider-response","133","","","","2",""
"3614","elephant","kito,petye,pagduol,suka","kito","f","2","html-keyboard-response","134","f","kito","true","",""
"2910","","","","","2","html-slider-response","135","","","","4",""
"4704","bucket","baga,ijayo,init,kiatu","kiatu","n","2","html-keyboard-response","136","n","kiatu","true","",""
"2023","","","","","2","html-slider-response","137","","","","2",""
"3639","book","kuhesa,mali,picha,mara","mali","v","2","html-keyboard-response","138","j","picha","false","",""
"1271","","","","","2","html-slider-response","139","","","","2",""
"4982","mirror","rangi,sulagma,kanding,furaha","sulagma","v","2","html-keyboard-response","140","v","sulagma","true","",""
"1800","","","","","2","html-slider-response","141","","","","4",""
"2167","office","hazini,yatima,leso,kuna","leso","j","2","html-keyboard-response","142","f","hazini","false","",""
"1566","","","","","2","html-slider-response","143","","","","2",""
"2831","body","nyundu,tindashan,jibini,kununa","tindashan","v","2","html-keyboard-response","144","f","nyundu","false","",""
"1688","","","","","2","html-slider-response","145","","","","2",""
"4054","perfume","bino,sungura,katuyoan,ndogo","katuyoan","j","2","html-keyboard-response","146","n","ndogo","false","",""
"1855","","","","","2","html-slider-response","147","","","","2",""
"2927","olive","bata,siagi,jiwe,welder","jiwe","j","2","html-keyboard-response","148","f","bata","false","",""
"1863","","","","","2","html-slider-response","149","","","","2",""
"3807","magazine","gundi,kiti,mchawi,bahandi","kiti","v","2","html-keyboard-response","150","n","bahandi","false","",""
"2087","","","","","2","html-slider-response","151","","","","4",""
"2951","bread","kaili,dizeli,dari,bugas","dari","j","2","html-keyboard-response","152","n","bugas","false","",""
"2127","","","","","2","html-slider-response","153","","","","2",""
"2542","cave","ganti,maisha,kesho,nyundo","kesho","j","2","html-keyboard-response","154","f","ganti","false","",""
"1191","","","","","2","html-slider-response","155","","","","2",""
"2256","ladder","mashua,mwanga,pangalan,kamba","pangalan","j","2","html-keyboard-response","156","v","mwanga","false","",""
"1560","","","","","2","html-slider-response","157","","","","2",""
"3814","human","bado,tinapay,kikapu,punguza","tinapay","v","2","html-keyboard-response","158","n","punguza","false","",""
"1311","","","","","2","html-slider-response","159","","","","2",""
"2967","clock","kartasi,mbwa,abang,osha","mbwa","v","2","html-keyboard-response","160","j","abang","false","",""
"1583","","","","","2","html-slider-response","161","","","","2",""
"3047","shelf","pamahaw,bungtod,kadaot,awit","pamahaw","f","2","html-keyboard-response","162","n","awit","false","",""
"1975","","","","","2","html-slider-response","163","","","","2",""
"2879","salmon","mzungu,seri,baharia,sensilyo","sensilyo","n","2","html-keyboard-response","164","v","seri","false","",""
"1423","","","","","2","html-slider-response","165","","","","2",""
"3614","coffin","barua,kioo,tubag,hulma","kioo","v","2","html-keyboard-response","166","v","kioo","true","",""
"1647","","","","","2","html-slider-response","167","","","","2",""
"2574","notebook","msitu,kemia,kila,mdudu","kemia","v","2","html-keyboard-response","168","n","mdudu","false","",""
"1927","","","","","2","html-slider-response","169","","","","2",""
"3782","shoulder","kelele,ndaniya,guruwe,mkuu","mkuu","n","2","html-keyboard-response","170","v","ndaniya","false","",""
"1623","","","","","2","html-slider-response","171","","","","2",""
"2295","park","tambok,bunifu,pwani,ihalas","bunifu","v","2","html-keyboard-response","172","n","ihalas","false","",""
"1183","","","","","2","html-slider-response","173","","","","2",""
"2351","number","shule,mundamo,kengele,choori","mundamo","v","2","html-keyboard-response","174","j","kengele","false","",""
"1647","","","","","2","html-slider-response","175","","","","2",""
"4407","apple","kisu,ukame,estante,edad","kisu","f","2","html-keyboard-response","176","n","edad","false","",""
"1879","","","","","2","html-slider-response","177","","","","2",""
"5142","letter","kifua,filimbi,chuma,uhuru","kifua","f","2","html-keyboard-response","178","n","uhuru","false","",""
"2142","","","","","2","html-slider-response","179","","","","2",""
"5823","eel","ishara,msumari,kunywa,kabuang","msumari","v","2","html-keyboard-response","180","f","ishara","false","",""
"1537","","","","","2","html-slider-response","181","","","","4",""
"5518","cop","bustani,jikoni,mechezo,bakus","mechezo","j","2","html-keyboard-response","182","j","mechezo","true","",""
"1999","","","","","2","html-slider-response","183","","","","5",""
"7526","wolf","kaburi,lugha,ndizi,mchuzi","lugha","v","2","html-keyboard-response","184","v","lugha","true","",""
"1599","","","","","2","html-slider-response","185","","","","4",""
"6407","squirrel","mahugaw,ukweli,kichwa,hofu","hofu","n","2","html-keyboard-response","186","n","hofu","true","",""
"1559","","","","","2","html-slider-response","187","","","","2",""
"3742","nose","gubat,kopa,sehemu,kidole","sehemu","j","2","html-keyboard-response","188","f","gubat","false","",""
"1776","","","","","2","html-slider-response","189","","","","2",""
"3270","sock","ndoora,kimysa,mtirka,mamba","mamba","n","2","html-keyboard-response","190","v","kimysa","false","",""
"1630","","","","","2","html-slider-response","191","","","","2",""
"8031","bank","kudhibi,tualya,ofisi,silingan","silingan","n","2","html-keyboard-response","192","j","ofisi","false","",""
"1631","","","","","2","html-slider-response","193","","","","2",""
"4798","donkey","bloke,lalake,elfu,rombus","elfu","j","2","html-keyboard-response","194","v","lalake","false","",""
"1553","","","","","2","html-slider-response","195","","","","2",""
"2806","poster","nchi,fedha,kasuko,madungog","madungog","n","2","html-keyboard-response","196","j","kasuko","false","",""
"1591","","","","","2","html-slider-response","197","","","","2",""
"2999","puppet","napulo,mazishi,lamok,godoro","mazishi","v","2","html-keyboard-response","198","n","godoro","false","",""
"1575","","","","","2","html-slider-response","199","","","","2",""
"4164","hill","kushoto,matumbo,kukimba,sweta","matumbo","v","2","html-keyboard-response","200","n","sweta","false","",""
"1459","","","","","2","html-slider-response","201","","","","2",""
"2294","tooth","kijiko,uadui,pahiyum,kabalaka","kabalaka","n","2","html-keyboard-response","202","j","pahiyum","false","",""
"1471","","","","","2","html-slider-response","203","","","","2",""
"3294","woman","bandari,bituin,pagtabon,kovuli","pagtabon","j","2","html-keyboard-response","204","v","bituin","false","",""
"1863","","","","","2","html-slider-response","205","","","","2",""
"3214","wheel","punda,bafuni,tawo,baadaye","bafuni","v","2","html-keyboard-response","206","n","baadaye","false","",""
"1309","","","","","2","html-slider-response","207","","","","2",""
"5798","mother","kahawa,mbuzi,jokofu,babaye","babaye","n","2","html-keyboard-response","208","j","jokofu","false","",""
"2046","","","","","2","html-slider-response","209","","","","2",""
"3191","bed","kalipay,haraka,mapintas,starehe","mapintas","j","2","html-keyboard-response","210","n","starehe","false","",""
"1543","","","","","2","html-slider-response","211","","","","2",""
"3599","key","miaka,chombo,goma,ahos","chombo","v","2","html-keyboard-response","212","v","chombo","true","",""
"1399","","","","","2","html-slider-response","213","","","","2",""
"2230","page","wakala,wimbo,ishiri,skina","wimbo","v","2","html-keyboard-response","214","f","wakala","false","",""
"1607","","","","","2","html-slider-response","215","","","","2",""
"3494","pants","pintal,chuki,hari,haki","haki","n","2","html-keyboard-response","216","v","chuki","false","",""
"1375","","","","","2","html-slider-response","217","","","","2",""
"8174","sun","bendi,luha,uongo,basi","basi","n","2","html-keyboard-response","218","j","uongo","false","",""
"1767","","","","","2","html-slider-response","219","","","","2",""
"3709","finger","simu,moyo,sufuria,lima","moyo","v","2","html-keyboard-response","220","v","moyo","true","",""
"2095","","","","","2","html-slider-response","221","","","","2",""
"4591","shoe","nyeusi,hatua,uyoga,kama","uyoga","j","2","html-keyboard-response","222","v","hatua","false","",""
"1568","","","","","2","html-slider-response","223","","","","2",""
"2974","giraffe","daraja,mahitabo,jumatu,hangyo","mahitabo","v","2","html-keyboard-response","224","j","jumatu","false","",""
"1703","","","","","2","html-slider-response","225","","","","2",""
"5423","dog","lubi,washia,kalamu,bahari","bahari","n","2","html-keyboard-response","226","n","bahari","true","",""
"2576","","","","","2","html-slider-response","227","","","","2",""
"2822","box","adui,kuacha,rafiki,kitande","adui","f","2","html-keyboard-response","228","n","kitande","false","",""
"1424","","","","","2","html-slider-response","229","","","","2",""
"3749","scissors","duga,tanuri,mtawa,suga","tanuri","v","2","html-keyboard-response","230","n","suga","false","",""
"1391","","","","","2","html-slider-response","231","","","","2",""
"2767","cat","neyemba,baki,paghukom,akili","paghukom","j","2","html-keyboard-response","232","n","akili","false","",""
"1583","","","","","2","html-slider-response","233","","","","2",""
"3110","basket","kumbuka,utepe,hasira,kumba","kumba","n","2","html-keyboard-response","234","v","utepe","false","",""
"1815","","","","","2","html-slider-response","235","","","","2",""
"3406","snake","pagtukod,jansa,karon,mvringo","pagtukod","f","2","html-keyboard-response","236","n","mvringo","false","",""
"1680","","","","","2","html-slider-response","237","","","","2",""
"3063","gift","baba,pagtawag,nyange,baso","pagtawag","v","2","html-keyboard-response","238","n","baso","false","",""
"1343","","","","","2","html-slider-response","239","","","","2",""
"3455","train","itik,sayari,dakika,mungu","sayari","v","2","html-keyboard-response","240","v","sayari","true","",""
"1568","","","","","2","html-slider-response","241","","","","2",""
"3319","pudding","abug,aibu,mpishi,iring","aibu","v","2","html-keyboard-response","242","n","iring","false","",""
"2039","","","","","2","html-slider-response","243","","","","2",""
"2575","tomato","chupi,mvua,chupa,takatak","mvua","v","2","html-keyboard-response","244","n","takatak","false","",""
"1999","","","","","2","html-slider-response","245","","","","2",""
"4903","stone","wingi,ulimwengu,mkasi,asili","wingi","f","2","html-keyboard-response","246","f","wingi","true","",""
"2518","","","","","2","html-slider-response","247","","","","2",""
"4295","hammer","napakyas,mekno,kitovu,layag","napakyas","f","2","html-keyboard-response","248","f","napakyas","true","",""
"1864","","","","","2","html-slider-response","249","","","","2",""
"2846","knee","mvuke,kubale,duka,bili","duka","j","2","html-keyboard-response","250","v","kubale","false","",""
"1646","","","","","2","html-slider-response","251","","","","2",""
"2607","ceiling","maua,kugita,kawaida,rayna","maua","f","2","html-keyboard-response","252","n","rayna","false","",""
"1470","","","","","2","html-slider-response","253","","","","2",""
"3911","spoon","betri,nzuri,ngazi,pagsulod","pagsulod","n","2","html-keyboard-response","254","f","betri","false","",""
"1535","","","","","2","html-slider-response","255","","","","2",""
"2886","marker","mapafu,salita,atay,maji","maji","n","2","html-keyboard-response","256","v","salita","false","",""
"1528","","","","","2","html-slider-response","257","","","","2",""
"5159","candle","gabi,geza,farasi,kupanda","geza","v","2","html-keyboard-response","258","j","farasi","false","",""
"2320","","","","","2","html-slider-response","259","","","","2",""
"2870","tissue","lamigas,ugomvi,kisiwa,katika","ugomvi","v","2","html-keyboard-response","260","v","ugomvi","true","",""
"1976","","","","","2","html-slider-response","261","","","","2",""
"4294","bridge","sahani,daima,ngono,panya","sahani","f","2","html-keyboard-response","262","n","panya","false","",""
"1638","","","","","2","html-slider-response","263","","","","2",""
"4567","berry","kofia,abogado,nogozi,kinywa","kofia","f","2","html-keyboard-response","264","f","kofia","true","",""
"1448","","","","","2","html-slider-response","265","","","","2",""
"4575","triangle","kihozi,bentaha,liog,kasadpan","kasadpan","n","2","html-keyboard-response","266","f","kihozi","false","",""
"1408","","","","","2","html-slider-response","267","","","","2",""
"1767","door","tena,soko,surali,nyota","surali","j","2","html-keyboard-response","268","v","soko","false","",""
"3448","","","","","2","html-slider-response","269","","","","3",""
"2022","fish","bala,buli,baho,imani","buli","v","2","html-keyboard-response","270","v","buli","true","",""
"4039","","","","","2","html-slider-response","271","","","","3",""
"3094","curtain","lisud,bulwawan,chubani,mchanga","mchanga","n","2","html-keyboard-response","272","n","mchanga","true","",""
"3711","","","","","2","html-slider-response","273","","","","2",""
"2671","flag","ndege,trekta,mkate,kawa","trekta","v","2","html-keyboard-response","274","v","trekta","true","",""
"1752","","","","","2","html-slider-response","275","","","","4",""
"4302","boat","hamsi,agalon,pombe,kitanda","agalon","v","2","html-keyboard-response","276","v","agalon","true","",""
"2535","","","","","2","html-slider-response","277","","","","2",""
"2439","rose","singizi,mwanake,paghalad,amani","paghalad","j","2","html-keyboard-response","278","n","amani","false","",""
"1255","","","","","2","html-slider-response","279","","","","2",""
"1863","lamp","daub,afya,bilaska,mbolea","afya","v","2","html-keyboard-response","280","j","bilaska","false","",""
"1583","","","","","2","html-slider-response","281","","","","2",""
"2894","cigar","adhabu,ndugu,kuta,mlango","adhabu","f","2","html-keyboard-response","282","n","mlango","false","",""
"1527","","","","","2","html-slider-response","283","","","","4",""
"2126","list","alizeti,wingu,kuzama,kaso","wingu","v","2","html-keyboard-response","284","v","wingu","true","",""
"1366","","","","","2","html-slider-response","285","","","","4",""
"2862","sheet","bililhon,juuya,watu,kamantis","bililhon","f","2","html-keyboard-response","286","n","kamantis","false","",""
"1551","","","","","2","html-slider-response","287","","","","2",""
"3079","picture","silya,chaki,kubwa,asin","kubwa","j","2","html-keyboard-response","288","v","chaki","false","",""
"2152","","","","","2","html-slider-response","289","","","","2",""
"1262","towel","tembo,funzi,pagpalit,pito","pagpalit","j","2","html-keyboard-response","290","v","funzi","false","",""
"1448","","","","","2","html-slider-response","291","","","","2",""
"655","window","nanga,kujenga,umaga,kweli","kweli","n","2","html-keyboard-response","292","f","nanga","false","",""
"1231","","","","","2","html-slider-response","293","","","","2",""
"11484","box","kuacha,rafiki,kitande,adui","adui","n","3","html-keyboard-response","310","j","kitande","false","","4"
"2713","","","","","3","html-slider-response","311","","","","2",""
"null","","","","","3","html-keyboard-response","312","","","","",""
"5612","pants","pintal,chuki,haki,hari","haki","j","3","html-keyboard-response","313","v","chuki","false","","4"
"1720","","","","","3","html-slider-response","314","","","","2",""
"null","","","","","3","html-keyboard-response","315","","","","",""
"3947","cup","dagat,matumai,shimoni,jeraha","matumai","v","3","html-keyboard-response","316","j","shimoni","false","","4"
"1855","","","","","3","html-slider-response","317","","","","2",""
"null","","","","","3","html-keyboard-response","318","","","","",""
"4643","triangle","kasadpan,kihozi,bentaha,liog","kasadpan","f","3","html-keyboard-response","319","v","kihozi","false","","4"
"1615","","","","","3","html-slider-response","320","","","","2",""
"null","","","","","3","html-keyboard-response","321","","","","",""
"3696","curtain","lisud,mchanga,bulwawan,chubani","mchanga","v","3","html-keyboard-response","322","j","bulwawan","false","","4"
"2257","","","","","3","html-slider-response","323","","","","2",""
"null","","","","","3","html-keyboard-response","324","","","","",""
"6686","clock","kartasi,abang,mbwa,osha","mbwa","j","3","html-keyboard-response","325","v","abang","false","","4"
"1983","","","","","3","html-slider-response","326","","","","2",""
"null","","","","","3","html-keyboard-response","327","","","","",""
"5173","mirror","sulagma,rangi,kanding,furaha","sulagma","f","3","html-keyboard-response","328","f","sulagma","true","","4"
"2616","","","","","3","html-slider-response","329","","","","4",""
"null","","","","","3","html-keyboard-response","330","","","","",""
"3742","coffin","barua,kioo,tubag,hulma","kioo","v","3","html-keyboard-response","331","v","kioo","true","","1"
"2398","","","","","3","html-slider-response","332","","","","5",""
"null","","","","","3","html-keyboard-response","333","","","","",""
"4984","magazine","kiti,gundi,mchawi,bahandi","kiti","f","3","html-keyboard-response","334","n","bahandi","false","","4"
"1792","","","","","3","html-slider-response","335","","","","2",""
"null","","","","","3","html-keyboard-response","336","","","","",""
"3559","column","pundok,ufagio,dila,pala","ufagio","v","3","html-keyboard-response","337","v","ufagio","true","","1"
"4055","","","","","3","html-slider-response","338","","","","5",""
"null","","","","","3","html-keyboard-response","339","","","","",""
"5007","number","shule,kengele,choori,mundamo","mundamo","n","3","html-keyboard-response","340","j","choori","false","","4"
"2143","","","","","3","html-slider-response","341","","","","2",""
"null","","","","","3","html-keyboard-response","342","","","","",""
"5056","rose","singizi,mwanake,amani,paghalad","paghalad","n","3","html-keyboard-response","343","n","paghalad","true","","4"
"1447","","","","","3","html-slider-response","344","","","","4",""
"null","","","","","3","html-keyboard-response","345","","","","",""
"3484","eel","ishara,kunywa,msumari,kabuang","msumari","j","3","html-keyboard-response","346","f","ishara","false","","4"
"2080","","","","","3","html-slider-response","347","","","","4",""
"null","","","","","3","html-keyboard-response","348","","","","",""
"3633","gift","pagtawag,baba,nyange,baso","pagtawag","f","3","html-keyboard-response","349","v","baba","false","","4"
"1799","","","","","3","html-slider-response","350","","","","2",""
"null","","","","","3","html-keyboard-response","351","","","","",""
"2733","apple","kisu,ukame,estante,edad","kisu","f","3","html-keyboard-response","352","f","kisu","true","","1"
"2879","","","","","3","html-slider-response","353","","","","5",""
"null","","","","","3","html-keyboard-response","354","","","","",""
"4561","wheel","punda,bafuni,tawo,baadaye","bafuni","v","3","html-keyboard-response","355","v","bafuni","true","","1"
"2415","","","","","3","html-slider-response","356","","","","4",""
"null","","","","","3","html-keyboard-response","357","","","","",""
"3719","knee","duka,mvuke,kubale,bili","duka","f","3","html-keyboard-response","358","f","duka","true","","4"
"1895","","","","","3","html-slider-response","359","","","","2",""
"null","","","","","3","html-keyboard-response","360","","","","",""
"3584","basket","kumbuka,utepe,hasira,kumba","kumba","n","3","html-keyboard-response","361","n","kumba","true","","1"
"2086","","","","","3","html-slider-response","362","","","","4",""
"null","","","","","3","html-keyboard-response","363","","","","",""
"5743","park","tambok,bunifu,pwani,ihalas","bunifu","v","3","html-keyboard-response","364","j","pwani","false","","4"
"2623","","","","","3","html-slider-response","365","","","","2",""
"null","","","","","3","html-keyboard-response","366","","","","",""
"7287","finger","simu,moyo,sufuria,lima","moyo","v","3","html-keyboard-response","367","j","sufuria","false","","4"
"2079","","","","","3","html-slider-response","368","","","","2",""
"null","","","","","3","html-keyboard-response","369","","","","",""
"5451","boat","agalon,hamsi,pombe,kitanda","agalon","f","3","html-keyboard-response","370","f","agalon","true","","4"
"1704","","","","","3","html-slider-response","371","","","","2",""
"null","","","","","3","html-keyboard-response","372","","","","",""
"3922","hill","kushoto,matumbo,kukimba,sweta","matumbo","v","3","html-keyboard-response","373","n","sweta","false","","4"
"1607","","","","","3","html-slider-response","374","","","","2",""
"null","","","","","3","html-keyboard-response","375","","","","",""
"11776","train","sayari,itik,dakika,mungu","sayari","f","3","html-keyboard-response","376","f","sayari","true","","4"
"2327","","","","","3","html-slider-response","377","","","","2",""
"null","","","","","3","html-keyboard-response","378","","","","",""
"3747","wolf","kaburi,lugha,ndizi,mchuzi","lugha","v","3","html-keyboard-response","379","v","lugha","true","","4"
"1543","","","","","3","html-slider-response","380","","","","4",""
"null","","","","","3","html-keyboard-response","381","","","","",""
"6094","snake","jansa,pagtukod,karon,mvringo","pagtukod","v","3","html-keyboard-response","382","v","pagtukod","true","","4"
"2984","","","","","3","html-slider-response","383","","","","2",""
"null","","","","","3","html-keyboard-response","384","","","","",""
"6670","tooth","kabalaka,kijiko,uadui,pahiyum","kabalaka","f","3","html-keyboard-response","385","f","kabalaka","true","","4"
"2072","","","","","3","html-slider-response","386","","","","2",""
"null","","","","","3","html-keyboard-response","387","","","","",""
"11027","notebook","kemia,msitu,kila,mdudu","kemia","f","3","html-keyboard-response","388","j","kila","false","","4"
"2128","","","","","3","html-slider-response","389","","","","2",""
"null","","","","","3","html-keyboard-response","390","","","","",""
"7806","flag","trekta,ndege,mkate,kawa","trekta","f","3","html-keyboard-response","391","f","trekta","true","","4"
"1599","","","","","3","html-slider-response","392","","","","4",""
"null","","","","","3","html-keyboard-response","393","","","","",""
"5670","squirrel","mahugaw,hofu,ukweli,kichwa","hofu","v","3","html-keyboard-response","394","n","kichwa","false","","4"
"1822","","","","","3","html-slider-response","395","","","","2",""
"null","","","","","3","html-keyboard-response","396","","","","",""
"2540","door","tena,soko,surali,nyota","surali","j","3","html-keyboard-response","397","v","soko","false","","4"
"2672","","","","","3","html-slider-response","398","","","","2",""
"null","","","","","3","html-keyboard-response","399","","","","",""
"3073","salmon","sensilyo,mzungu,seri,baharia","sensilyo","f","3","html-keyboard-response","400","j","seri","false","","4"
"1327","","","","","3","html-slider-response","401","","","","2",""
"null","","","","","3","html-keyboard-response","402","","","","",""
"5027","shoulder","kelele,ndaniya,mkuu,guruwe","mkuu","j","3","html-keyboard-response","403","n","guruwe","false","","4"
"2991","","","","","3","html-slider-response","404","","","","2",""
"null","","","","","3","html-keyboard-response","405","","","","",""
"4816","lamp","daub,bilaska,afya,mbolea","afya","j","3","html-keyboard-response","406","f","daub","false","","4"
"2455","","","","","3","html-slider-response","407","","","","2",""
"null","","","","","3","html-keyboard-response","408","","","","",""
"3117","shelf","bungtod,kadaot,pamahaw,awit","pamahaw","j","3","html-keyboard-response","409","j","pamahaw","true","","1"
"1967","","","","","3","html-slider-response","410","","","","5",""
"null","","","","","3","html-keyboard-response","411","","","","",""
"12512","human","bado,tinapay,kikapu,punguza","tinapay","v","3","html-keyboard-response","412","v","tinapay","true","","4"
"1416","","","","","3","html-slider-response","413","","","","2",""
"null","","","","","3","html-keyboard-response","414","","","","",""
"6171","towel","pagpalit,tembo,funzi,pito","pagpalit","f","3","html-keyboard-response","415","j","funzi","false","","4"
"2423","","","","","3","html-slider-response","416","","","","2",""
"null","","","","","3","html-keyboard-response","417","","","","",""
"5944","cat","paghukom,neyemba,baki,akili","paghukom","f","3","html-keyboard-response","418","n","akili","false","","4"
"1359","","","","","3","html-slider-response","419","","","","2",""
"null","","","","","3","html-keyboard-response","420","","","","",""
"4605","spider","bunyag,mkboa,atop,kamwe","kamwe","n","3","html-keyboard-response","421","f","bunyag","false","","4"
"1448","","","","","3","html-slider-response","422","","","","2",""
"null","","","","","3","html-keyboard-response","423","","","","",""
"3200","window","nanga,kweli,kujenga,umaga","kweli","v","3","html-keyboard-response","424","v","kweli","true","","4"
"1407","","","","","3","html-slider-response","425","","","","2",""
"null","","","","","3","html-keyboard-response","426","","","","",""
"5122","woman","pagtabon,bandari,bituin,kovuli","pagtabon","f","3","html-keyboard-response","427","f","pagtabon","true","","1"
"2223","","","","","3","html-slider-response","428","","","","4",""
"null","","","","","3","html-keyboard-response","429","","","","",""
"6372","giraffe","daraja,jumatu,mahitabo,hangyo","mahitabo","j","3","html-keyboard-response","430","n","hangyo","false","","4"
"1543","","","","","3","html-slider-response","431","","","","2",""
"null","","","","","3","html-keyboard-response","432","","","","",""
"6267","elephant","petye,kito,pagduol,suka","kito","v","3","html-keyboard-response","433","j","pagduol","false","","4"
"2160","","","","","3","html-slider-response","434","","","","2",""
"null","","","","","3","html-keyboard-response","435","","","","",""
"4609","cave","ganti,kesho,maisha,nyundo","kesho","v","3","html-keyboard-response","436","f","ganti","false","","4"
"2047","","","","","3","html-slider-response","437","","","","2",""
"null","","","","","3","html-keyboard-response","438","","","","",""
"3185","bread","kaili,dizeli,dari,bugas","dari","j","3","html-keyboard-response","439","n","bugas","false","","4"
"1951","","","","","3","html-slider-response","440","","","","2",""
"null","","","","","3","html-keyboard-response","441","","","","",""
"3159","stone","ulimwengu,mkasi,wingi,asili","wingi","j","3","html-keyboard-response","442","f","ulimwengu","false","","4"
"2375","","","","","3","html-slider-response","443","","","","2",""
"null","","","","","3","html-keyboard-response","444","","","","",""
"5193","donkey","elfu,bloke,lalake,rombus","elfu","f","3","html-keyboard-response","445","v","bloke","false","","4"
"2759","","","","","3","html-slider-response","446","","","","2",""
"null","","","","","3","html-keyboard-response","447","","","","",""
"7455","bridge","daima,ngono,sahani,panya","sahani","j","3","html-keyboard-response","448","j","sahani","true","","4"
"2872","","","","","3","html-slider-response","449","","","","2",""
"null","","","","","3","html-keyboard-response","450","","","","",""
"3815","bonfire","goti,mwezi,mfuko,kusanya","goti","f","3","html-keyboard-response","451","v","mwezi","false","","4"
"1888","","","","","3","html-slider-response","452","","","","2",""
"null","","","","","3","html-keyboard-response","453","","","","",""
"4779","book","kuhesa,mali,picha,mara","mali","v","3","html-keyboard-response","454","v","mali","true","","4"
"1767","","","","","3","html-slider-response","455","","","","2",""
"null","","","","","3","html-keyboard-response","456","","","","",""
"4688","fish","buli,bala,baho,imani","buli","f","3","html-keyboard-response","457","f","buli","true","","4"
"1671","","","","","3","html-slider-response","458","","","","2",""
"null","","","","","3","html-keyboard-response","459","","","","",""
"3040","spoon","betri,nzuri,pagsulod,ngazi","pagsulod","j","3","html-keyboard-response","460","f","betri","false","","4"
"1823","","","","","3","html-slider-response","461","","","","2",""
"null","","","","","3","html-keyboard-response","462","","","","",""
"5011","scissors","duga,tanuri,mtawa,suga","tanuri","v","3","html-keyboard-response","463","v","tanuri","true","","4"
"1688","","","","","3","html-slider-response","464","","","","2",""
"null","","","","","3","html-keyboard-response","465","","","","",""
"4927","page","wakala,ishiri,skina,wimbo","wimbo","n","3","html-keyboard-response","466","v","ishiri","false","","4"
"2255","","","","","3","html-slider-response","467","","","","2",""
"null","","","","","3","html-keyboard-response","468","","","","",""
"4478","nose","gubat,kopa,kidole,sehemu","sehemu","n","3","html-keyboard-response","469","n","sehemu","true","","1"
"4432","","","","","3","html-slider-response","470","","","","2",""
"null","","","","","3","html-keyboard-response","471","","","","",""
"4441","ceiling","kugita,maua,kawaida,rayna","maua","v","3","html-keyboard-response","472","n","rayna","false","","4"
"1607","","","","","3","html-slider-response","473","","","","2",""
"null","","","","","3","html-keyboard-response","474","","","","",""
"3441","bucket","baga,kiatu,ijayo,init","kiatu","v","3","html-keyboard-response","475","n","init","false","","4"
"2039","","","","","3","html-slider-response","476","","","","2",""
"null","","","","","3","html-keyboard-response","477","","","","",""
"4949","berry","abogado,nogozi,kofia,kinywa","kofia","j","3","html-keyboard-response","478","j","kofia","true","","1"
"3407","","","","","3","html-slider-response","479","","","","4",""
"null","","","","","3","html-keyboard-response","480","","","","",""
"3413","mother","babaye,kahawa,mbuzi,jokofu","babaye","f","3","html-keyboard-response","481","f","babaye","true","","1"
"2327","","","","","3","html-slider-response","482","","","","4",""
"null","","","","","3","html-keyboard-response","483","","","","",""
"3154","mosquito","martilyo,isda,taras,gutom","martilyo","f","3","html-keyboard-response","484","j","taras","false","","4"
"1719","","","","","3","html-slider-response","485","","","","2",""
"null","","","","","3","html-keyboard-response","486","","","","",""
"4555","perfume","katuyoan,bino,sungura,ndogo","katuyoan","f","3","html-keyboard-response","487","v","bino","false","","4"
"1991","","","","","3","html-slider-response","488","","","","2",""
"null","","","","","3","html-keyboard-response","489","","","","",""
"5275","sheet","juuya,bililhon,watu,kamantis","bililhon","v","3","html-keyboard-response","490","v","bililhon","true","","4"
"1551","","","","","3","html-slider-response","491","","","","2",""
"null","","","","","3","html-keyboard-response","492","","","","",""
"6269","puppet","napulo,lamok,mazishi,godoro","mazishi","j","3","html-keyboard-response","493","j","mazishi","true","","1"
"1496","","","","","3","html-slider-response","494","","","","5",""
"null","","","","","3","html-keyboard-response","495","","","","",""
"6356","poster","nchi,fedha,madungog,kasuko","madungog","j","3","html-keyboard-response","496","j","madungog","true","","4"
"1991","","","","","3","html-slider-response","497","","","","2",""
"null","","","","","3","html-keyboard-response","498","","","","",""
"4876","music","mraba,mageho,baiski,tumbo","baiski","j","3","html-keyboard-response","499","n","tumbo","false","","4"
"1543","","","","","3","html-slider-response","500","","","","2",""
"null","","","","","3","html-keyboard-response","501","","","","",""
"4576","key","miaka,chombo,goma,ahos","chombo","v","3","html-keyboard-response","502","n","ahos","false","","4"
"1895","","","","","3","html-slider-response","503","","","","2",""
"null","","","","","3","html-keyboard-response","504","","","","",""
"4842","sock","ndoora,kimysa,mamba,mtirka","mamba","j","3","html-keyboard-response","505","v","kimysa","false","","4"
"1552","","","","","3","html-slider-response","506","","","","2",""
"null","","","","","3","html-keyboard-response","507","","","","",""
"2886","marker","mapafu,salita,maji,atay","maji","j","3","html-keyboard-response","508","f","mapafu","false","","4"
"1687","","","","","3","html-slider-response","509","","","","2",""
"null","","","","","3","html-keyboard-response","510","","","","",""
"3362","office","leso,hazini,yatima,kuna","leso","f","3","html-keyboard-response","511","v","hazini","false","","4"
"2712","","","","","3","html-slider-response","512","","","","2",""
"null","","","","","3","html-keyboard-response","513","","","","",""
"2884","shoe","nyeusi,hatua,kama,uyoga","uyoga","n","3","html-keyboard-response","514","f","nyeusi","false","","4"
"1688","","","","","3","html-slider-response","515","","","","2",""
"null","","","","","3","html-keyboard-response","516","","","","",""
"5235","cop","bustani,mechezo,jikoni,bakus","mechezo","v","3","html-keyboard-response","517","v","mechezo","true","","4"
"2039","","","","","3","html-slider-response","518","","","","5",""
"null","","","","","3","html-keyboard-response","519","","","","",""
"4365","bank","silingan,kudhibi,tualya,ofisi","silingan","f","3","html-keyboard-response","520","f","silingan","true","","4"
"1655","","","","","3","html-slider-response","521","","","","2",""
"null","","","","","3","html-keyboard-response","522","","","","",""
"3651","letter","filimbi,kifua,chuma,uhuru","kifua","v","3","html-keyboard-response","523","v","kifua","true","","1"
"1975","","","","","3","html-slider-response","524","","","","4",""
"null","","","","","3","html-keyboard-response","525","","","","",""
"4166","dog","lubi,washia,kalamu,bahari","bahari","n","3","html-keyboard-response","526","n","bahari","true","","1"
"2063","","","","","3","html-slider-response","527","","","","4",""
"null","","","","","3","html-keyboard-response","528","","","","",""
"4263","shop","samaki,nopya,kerida,ndezu","samaki","f","3","html-keyboard-response","529","v","nopya","false","","4"
"1719","","","","","3","html-slider-response","530","","","","2",""
"null","","","","","3","html-keyboard-response","531","","","","",""
"5259","flower","bega,tamasha,lobo,usiku","bega","f","3","html-keyboard-response","532","v","tamasha","false","","4"
"2062","","","","","3","html-slider-response","533","","","","2",""
"null","","","","","3","html-keyboard-response","534","","","","",""
"4277","cigar","ndugu,kuta,adhabu,mlango","adhabu","j","3","html-keyboard-response","535","j","adhabu","true","","1"
"2199","","","","","3","html-slider-response","536","","","","4",""
"null","","","","","3","html-keyboard-response","537","","","","",""
"8640","hammer","napakyas,mekno,kitovu,layag","napakyas","f","3","html-keyboard-response","538","n","layag","false","","4"
"2327","","","","","3","html-slider-response","539","","","","2",""
"null","","","","","3","html-keyboard-response","540","","","","",""
"4303","fork","baboy,paghago,mgonjwa,gorisi","mgonjwa","j","3","html-keyboard-response","541","f","baboy","false","","4"
"2119","","","","","3","html-slider-response","542","","","","2",""
"null","","","","","3","html-keyboard-response","543","","","","",""
"4399","sun","bendi,luha,basi,uongo","basi","j","3","html-keyboard-response","544","j","basi","true","","1"
"3047","","","","","3","html-slider-response","545","","","","4",""
"null","","","","","3","html-keyboard-response","546","","","","",""
"7033","ladder","pangalan,mashua,mwanga,kamba","pangalan","f","3","html-keyboard-response","547","j","mwanga","false","","4"
"1535","","","","","3","html-slider-response","548","","","","2",""
"null","","","","","3","html-keyboard-response","549","","","","",""
"5530","banana","kasamok,kazi,hagdan,twai","kazi","v","3","html-keyboard-response","550","v","kazi","true","","1"
"1511","","","","","3","html-slider-response","551","","","","4",""
"null","","","","","3","html-keyboard-response","552","","","","",""
"4273","pudding","abug,aibu,mpishi,iring","aibu","v","3","html-keyboard-response","553","n","iring","false","","4"
"1561","","","","","3","html-slider-response","554","","","","2",""
"null","","","","","3","html-keyboard-response","555","","","","",""
"4171","body","nyundu,jibini,tindashan,kununa","tindashan","j","3","html-keyboard-response","556","f","nyundu","false","","4"
"1655","","","","","3","html-slider-response","557","","","","2",""
"null","","","","","3","html-keyboard-response","558","","","","",""
"3823","bed","kalipay,haraka,starehe,mapintas","mapintas","n","3","html-keyboard-response","559","n","mapintas","true","","4"
"1680","","","","","3","html-slider-response","560","","","","2",""
"null","","","","","3","html-keyboard-response","561","","","","",""
"4858","tissue","lamigas,kisiwa,ugomvi,katika","ugomvi","j","3","html-keyboard-response","562","v","kisiwa","false","","4"
"2055","","","","","3","html-slider-response","563","","","","2",""
"null","","","","","3","html-keyboard-response","564","","","","",""
"3245","candle","geza,gabi,farasi,kupanda","geza","f","3","html-keyboard-response","565","f","geza","true","","4"
"1735","","","","","3","html-slider-response","566","","","","2",""
"null","","","","","3","html-keyboard-response","567","","","","",""
"2907","tomato","mvua,chupi,chupa,takatak","mvua","f","3","html-keyboard-response","568","f","mvua","true","","1"
"1504","","","","","3","html-slider-response","569","","","","5",""
"null","","","","","3","html-keyboard-response","570","","","","",""
"5020","list","wingu,alizeti,kuzama,kaso","wingu","f","3","html-keyboard-response","571","v","alizeti","false","","4"
"3175","","","","","3","html-slider-response","572","","","","2",""
"null","","","","","3","html-keyboard-response","573","","","","",""
"5263","olive","bata,siagi,jiwe,welder","jiwe","j","3","html-keyboard-response","574","f","bata","false","","4"
"1632","","","","","3","html-slider-response","575","","","","2",""
"null","","","","","3","html-keyboard-response","576","","","","",""
"4871","picture","silya,chaki,asin,kubwa","kubwa","n","3","html-keyboard-response","577","n","kubwa","true","","1"
"2152","","","","","3","html-slider-response","578","","","","4",""
"null","","","","","3","html-keyboard-response","579","","","","",""
