"rt","en_word","options","swa_word","correct_answer","phase","trial_type","trial_index","input_answer","input_word","accuracy","certainty","amt_choices"
"5841","bonfire","mwezi,mfuko,kusanya,goti","goti","n","2","html-keyboard-response","114","n","goti","true","",""
"3194.300000000745","","","","","2","html-slider-response","115","","","","2",""
"4479","flower","tamasha,bega,lobo,usiku","bega","v","2","html-keyboard-response","116","f","tamasha","false","",""
"2597.39999999851","","","","","2","html-slider-response","117","","","","1",""
"3332","column","pundok,dila,pala,ufagio","ufagio","n","2","html-keyboard-response","118","f","pundok","false","",""
"3770.5","","","","","2","html-slider-response","119","","","","4",""
"3637","music","mraba,mageho,baiski,tumbo","baiski","j","2","html-keyboard-response","120","j","baiski","true","",""
"2674.0999999996275","","","","","2","html-slider-response","121","","","","2",""
"7668","spider","kamwe,bunyag,mkboa,atop","kamwe","f","2","html-keyboard-response","122","v","bunyag","false","",""
"2330.5999999996275","","","","","2","html-slider-response","123","","","","4",""
"6710","fork","baboy,paghago,mgonjwa,gorisi","mgonjwa","j","2","html-keyboard-response","124","v","paghago","false","",""
"2784.60000000149","","","","","2","html-slider-response","125","","","","4",""
"1768","mosquito","isda,taras,gutom,martilyo","martilyo","n","2","html-keyboard-response","126","n","martilyo","true","",""
"3105.5","","","","","2","html-slider-response","127","","","","5",""
"2088","banana","kasamok,kazi,hagdan,twai","kazi","v","2","html-keyboard-response","128","v","kazi","true","",""
"2413.9000000003725","","","","","2","html-slider-response","129","","","","4",""
"3595","cup","dagat,matumai,shimoni,jeraha","matumai","v","2","html-keyboard-response","130","f","dagat","false","",""
"3611.300000000745","","","","","2","html-slider-response","131","","","","3",""
"2758","shop","nopya,kerida,samaki,ndezu","samaki","j","2","html-keyboard-response","132","f","nopya","false","",""
"5593","","","","","2","html-slider-response","133","","","","3",""
"2216","elephant","petye,kito,pagduol,suka","kito","v","2","html-keyboard-response","134","v","kito","true","",""
"2168.5","","","","","2","html-slider-response","135","","","","4",""
"3184","bucket","kiatu,baga,ijayo,init","kiatu","f","2","html-keyboard-response","136","v","baga","false","",""
"5250.4000000003725","","","","","2","html-slider-response","137","","","","3",""
"2251","book","kuhesa,picha,mali,mara","mali","j","2","html-keyboard-response","138","j","mali","true","",""
"2892.5999999996275","","","","","2","html-slider-response","139","","","","5",""
"4322","mirror","rangi,sulagma,kanding,furaha","sulagma","v","2","html-keyboard-response","140","v","sulagma","true","",""
"2451.5","","","","","2","html-slider-response","141","","","","1",""
"2254","office","hazini,yatima,leso,kuna","leso","j","2","html-keyboard-response","142","f","hazini","false","",""
"2495.4000000003725","","","","","2","html-slider-response","143","","","","2",""
"2656","body","nyundu,jibini,tindashan,kununa","tindashan","j","2","html-keyboard-response","144","v","jibini","false","",""
"2490.4000000003725","","","","","2","html-slider-response","145","","","","1",""
"3089","perfume","bino,sungura,ndogo,katuyoan","katuyoan","n","2","html-keyboard-response","146","j","ndogo","false","",""
"2492.5999999996275","","","","","2","html-slider-response","147","","","","2",""
"8223","olive","bata,jiwe,siagi,welder","jiwe","v","2","html-keyboard-response","148","f","bata","false","",""
"2966.5","","","","","2","html-slider-response","149","","","","2",""
"4301","magazine","gundi,mchawi,bahandi,kiti","kiti","n","2","html-keyboard-response","150","j","bahandi","false","",""
"4183.5","","","","","2","html-slider-response","151","","","","3",""
"1988","bread","dari,kaili,dizeli,bugas","dari","f","2","html-keyboard-response","152","f","dari","true","",""
"2642.699999999255","","","","","2","html-slider-response","153","","","","4",""
"1934","cave","kesho,ganti,maisha,nyundo","kesho","f","2","html-keyboard-response","154","v","ganti","false","",""
"2139.89999999851","","","","","2","html-slider-response","155","","","","4",""
"4734","ladder","mashua,mwanga,kamba,pangalan","pangalan","n","2","html-keyboard-response","156","v","mwanga","false","",""
"4509.5","","","","","2","html-slider-response","157","","","","3",""
"213047","human","tinapay,bado,kikapu,punguza","tinapay","f","2","html-keyboard-response","158","f","tinapay","true","",""
"2154.199999999255","","","","","2","html-slider-response","159","","","","1",""
"2339","clock","kartasi,abang,mbwa,osha","mbwa","j","2","html-keyboard-response","160","n","osha","false","",""
"2692.300000000745","","","","","2","html-slider-response","161","","","","4",""
"3828","shelf","pamahaw,bungtod,kadaot,awit","pamahaw","f","2","html-keyboard-response","162","n","awit","false","",""
"1957","","","","","2","html-slider-response","163","","","","2",""
"3006","salmon","mzungu,seri,baharia,sensilyo","sensilyo","n","2","html-keyboard-response","164","v","seri","false","",""
"3805.7000000011176","","","","","2","html-slider-response","165","","","","3",""
"5295","coffin","barua,tubag,hulma,kioo","kioo","n","2","html-keyboard-response","166","n","kioo","true","",""
"2130.89999999851","","","","","2","html-slider-response","167","","","","2",""
"17710","notebook","msitu,kila,mdudu,kemia","kemia","n","2","html-keyboard-response","168","j","mdudu","false","",""
"1798.5","","","","","2","html-slider-response","169","","","","4",""
"91614","shoulder","kelele,ndaniya,mkuu,guruwe","mkuu","j","2","html-keyboard-response","170","v","ndaniya","false","",""
"2776.5999999996275","","","","","2","html-slider-response","171","","","","2",""
"3374","park","bunifu,tambok,pwani,ihalas","bunifu","f","2","html-keyboard-response","172","j","pwani","false","",""
"2760.10000000149","","","","","2","html-slider-response","173","","","","2",""
"13893","number","shule,kengele,choori,mundamo","mundamo","n","2","html-keyboard-response","174","j","choori","false","",""
"2714.199999999255","","","","","2","html-slider-response","175","","","","1",""
"2456","apple","ukame,estante,edad,kisu","kisu","n","2","html-keyboard-response","176","j","edad","false","",""
"2396.300000000745","","","","","2","html-slider-response","177","","","","1",""
"3107","letter","filimbi,kifua,chuma,uhuru","kifua","v","2","html-keyboard-response","178","f","filimbi","false","",""
"1955","","","","","2","html-slider-response","179","","","","1",""
"2799","eel","ishara,msumari,kunywa,kabuang","msumari","v","2","html-keyboard-response","180","f","ishara","false","",""
"2190.2999999988824","","","","","2","html-slider-response","181","","","","1",""
"2113","cop","bustani,mechezo,jikoni,bakus","mechezo","v","2","html-keyboard-response","182","n","bakus","false","",""
"1821.5","","","","","2","html-slider-response","183","","","","2",""
"4242","wolf","kaburi,lugha,ndizi,mchuzi","lugha","v","2","html-keyboard-response","184","f","kaburi","false","",""
"2039.300000000745","","","","","2","html-slider-response","185","","","","1",""
"3384","squirrel","mahugaw,ukweli,kichwa,hofu","hofu","n","2","html-keyboard-response","186","f","mahugaw","false","",""
"1850.4000000003725","","","","","2","html-slider-response","187","","","","2",""
"3082","nose","gubat,kopa,kidole,sehemu","sehemu","n","2","html-keyboard-response","188","f","gubat","false","",""
"1986.5","","","","","2","html-slider-response","189","","","","4",""
"6752","sock","mamba,ndoora,kimysa,mtirka","mamba","f","2","html-keyboard-response","190","f","mamba","true","",""
"1938.5","","","","","2","html-slider-response","191","","","","2",""
"3298","bank","kudhibi,silingan,tualya,ofisi","silingan","v","2","html-keyboard-response","192","j","tualya","false","",""
"1986.0999999996275","","","","","2","html-slider-response","193","","","","2",""
"3504","donkey","bloke,lalake,rombus,elfu","elfu","n","2","html-keyboard-response","194","n","elfu","true","",""
"2267.0999999996275","","","","","2","html-slider-response","195","","","","2",""
"47846","poster","nchi,fedha,kasuko,madungog","madungog","n","2","html-keyboard-response","196","f","nchi","false","",""
"2320.4000000003725","","","","","2","html-slider-response","197","","","","2",""
"2513","puppet","napulo,lamok,mazishi,godoro","mazishi","j","2","html-keyboard-response","198","f","napulo","false","",""
"2072.2999999988824","","","","","2","html-slider-response","199","","","","2",""
"3484","hill","kushoto,kukimba,sweta,matumbo","matumbo","n","2","html-keyboard-response","200","j","sweta","false","",""
"5351.799999998882","","","","","2","html-slider-response","201","","","","3",""
"2669","tooth","kijiko,kabalaka,uadui,pahiyum","kabalaka","v","2","html-keyboard-response","202","j","uadui","false","",""
"2570.60000000149","","","","","2","html-slider-response","203","","","","3",""
"2988","woman","bandari,bituin,kovuli,pagtabon","pagtabon","n","2","html-keyboard-response","204","f","bandari","false","",""
"2625.7000000011176","","","","","2","html-slider-response","205","","","","3",""
"5445","wheel","punda,bafuni,tawo,baadaye","bafuni","v","2","html-keyboard-response","206","f","punda","false","",""
"2475.4000000003725","","","","","2","html-slider-response","207","","","","3",""
"2604","mother","kahawa,mbuzi,jokofu,babaye","babaye","n","2","html-keyboard-response","208","v","mbuzi","false","",""
"2987","","","","","2","html-slider-response","209","","","","2",""
"3026","bed","kalipay,haraka,starehe,mapintas","mapintas","n","2","html-keyboard-response","210","j","starehe","false","",""
"2436.2999999988824","","","","","2","html-slider-response","211","","","","1",""
"1694","key","miaka,goma,ahos,chombo","chombo","n","2","html-keyboard-response","212","j","ahos","false","",""
"1796.7999999988824","","","","","2","html-slider-response","213","","","","4",""
"2263","page","wakala,wimbo,ishiri,skina","wimbo","v","2","html-keyboard-response","214","j","ishiri","false","",""
"3508.5","","","","","2","html-slider-response","215","","","","4",""
"3484","pants","pintal,chuki,haki,hari","haki","j","2","html-keyboard-response","216","j","haki","true","",""
"3299.5999999996275","","","","","2","html-slider-response","217","","","","3",""
"2626","sun","basi,bendi,luha,uongo","basi","f","2","html-keyboard-response","218","j","luha","false","",""
"2471.39999999851","","","","","2","html-slider-response","219","","","","3",""
"6208","finger","moyo,simu,sufuria,lima","moyo","f","2","html-keyboard-response","220","n","lima","false","",""
"1663.0999999996275","","","","","2","html-slider-response","221","","","","2",""
"4516","shoe","nyeusi,hatua,kama,uyoga","uyoga","n","2","html-keyboard-response","222","v","hatua","false","",""
"3177.199999999255","","","","","2","html-slider-response","223","","","","3",""
"22948","giraffe","daraja,jumatu,mahitabo,hangyo","mahitabo","j","2","html-keyboard-response","224","f","daraja","false","",""
"2783.9000000003725","","","","","2","html-slider-response","225","","","","2",""
"2147","dog","lubi,washia,bahari,kalamu","bahari","j","2","html-keyboard-response","226","f","lubi","false","",""
"2060.800000000745","","","","","2","html-slider-response","227","","","","1",""
"1880","box","kuacha,rafiki,kitande,adui","adui","n","2","html-keyboard-response","228","n","adui","true","",""
"2665.10000000149","","","","","2","html-slider-response","229","","","","4",""
"3455","scissors","duga,tanuri,mtawa,suga","tanuri","v","2","html-keyboard-response","230","n","suga","false","",""
"2459.0999999996275","","","","","2","html-slider-response","231","","","","2",""
"2089","cat","neyemba,paghukom,baki,akili","paghukom","v","2","html-keyboard-response","232","j","baki","false","",""
"1509.800000000745","","","","","2","html-slider-response","233","","","","4",""
"3281","basket","kumbuka,utepe,hasira,kumba","kumba","n","2","html-keyboard-response","234","f","kumbuka","false","",""
"2904.7000000011176","","","","","2","html-slider-response","235","","","","4",""
"4855","snake","pagtukod,jansa,karon,mvringo","pagtukod","f","2","html-keyboard-response","236","f","pagtukod","true","",""
"2948.0999999996275","","","","","2","html-slider-response","237","","","","2",""
"13473","gift","baba,nyange,pagtawag,baso","pagtawag","j","2","html-keyboard-response","238","n","baso","false","",""
"3911.5999999996275","","","","","2","html-slider-response","239","","","","2",""
"3426","train","itik,dakika,mungu,sayari","sayari","n","2","html-keyboard-response","240","v","dakika","false","",""
"2363.5999999996275","","","","","2","html-slider-response","241","","","","2",""
"3922","pudding","abug,aibu,mpishi,iring","aibu","v","2","html-keyboard-response","242","n","iring","false","",""
"2766.5","","","","","2","html-slider-response","243","","","","2",""
"4867","tomato","mvua,chupi,chupa,takatak","mvua","f","2","html-keyboard-response","244","v","chupi","false","",""
"1693.2000000011176","","","","","2","html-slider-response","245","","","","1",""
"3915","stone","ulimwengu,wingi,mkasi,asili","wingi","v","2","html-keyboard-response","246","j","mkasi","false","",""
"2550.0999999996275","","","","","2","html-slider-response","247","","","","1",""
"25711","hammer","mekno,kitovu,napakyas,layag","napakyas","j","2","html-keyboard-response","248","v","kitovu","false","",""
"2840.2999999988824","","","","","2","html-slider-response","249","","","","1",""
"3104","knee","mvuke,kubale,duka,bili","duka","j","2","html-keyboard-response","250","j","duka","true","",""
"2240.699999999255","","","","","2","html-slider-response","251","","","","2",""
"3943","ceiling","kugita,maua,kawaida,rayna","maua","v","2","html-keyboard-response","252","f","kugita","false","",""
"2387.199999999255","","","","","2","html-slider-response","253","","","","2",""
"2129","spoon","betri,pagsulod,nzuri,ngazi","pagsulod","v","2","html-keyboard-response","254","f","betri","false","",""
"1895.2000000011176","","","","","2","html-slider-response","255","","","","1",""
"14198","marker","mapafu,salita,maji,atay","maji","j","2","html-keyboard-response","256","f","mapafu","false","",""
"4433.200000001118","","","","","2","html-slider-response","257","","","","1",""
"1847","candle","gabi,geza,farasi,kupanda","geza","v","2","html-keyboard-response","258","j","farasi","false","",""
"3679.39999999851","","","","","2","html-slider-response","259","","","","3",""
"15992","tissue","lamigas,kisiwa,katika,ugomvi","ugomvi","n","2","html-keyboard-response","260","f","lamigas","false","",""
"2218.699999999255","","","","","2","html-slider-response","261","","","","2",""
"7448","bridge","daima,ngono,panya,sahani","sahani","n","2","html-keyboard-response","262","j","panya","false","",""
"2464.699999999255","","","","","2","html-slider-response","263","","","","2",""
"3177","berry","abogado,nogozi,kofia,kinywa","kofia","j","2","html-keyboard-response","264","v","nogozi","false","",""
"1752","","","","","2","html-slider-response","265","","","","1",""
"3158","triangle","kihozi,bentaha,liog,kasadpan","kasadpan","n","2","html-keyboard-response","266","j","liog","false","",""
"2783.199999999255","","","","","2","html-slider-response","267","","","","1",""
"2671","door","surali,tena,soko,nyota","surali","f","2","html-keyboard-response","268","v","tena","false","",""
"1790.7000000011176","","","","","2","html-slider-response","269","","","","1",""
"3881","fish","bala,baho,buli,imani","buli","j","2","html-keyboard-response","270","j","buli","true","",""
"2421.2000000011176","","","","","2","html-slider-response","271","","","","1",""
"6206","curtain","lisud,bulwawan,mchanga,chubani","mchanga","j","2","html-keyboard-response","272","n","chubani","false","",""
"2586.2999999988824","","","","","2","html-slider-response","273","","","","1",""
"1805","flag","ndege,mkate,kawa,trekta","trekta","n","2","html-keyboard-response","274","j","kawa","false","",""
"2538.9000000003725","","","","","2","html-slider-response","275","","","","1",""
"2796","boat","hamsi,pombe,kitanda,agalon","agalon","n","2","html-keyboard-response","276","f","hamsi","false","",""
"2021.5","","","","","2","html-slider-response","277","","","","1",""
"3659","rose","singizi,mwanake,amani,paghalad","paghalad","n","2","html-keyboard-response","278","j","amani","false","",""
"1946.300000000745","","","","","2","html-slider-response","279","","","","1",""
"2851","lamp","daub,afya,bilaska,mbolea","afya","v","2","html-keyboard-response","280","v","afya","true","",""
"2835.699999999255","","","","","2","html-slider-response","281","","","","1",""
"2828","cigar","ndugu,kuta,adhabu,mlango","adhabu","j","2","html-keyboard-response","282","v","kuta","false","",""
"2872.9000000003725","","","","","2","html-slider-response","283","","","","1",""
"3842","list","wingu,alizeti,kuzama,kaso","wingu","f","2","html-keyboard-response","284","n","kaso","false","",""
"2890","","","","","2","html-slider-response","285","","","","1",""
"10940","sheet","juuya,bililhon,watu,kamantis","bililhon","v","2","html-keyboard-response","286","j","watu","false","",""
"2553.5999999996275","","","","","2","html-slider-response","287","","","","1",""
"7061","picture","kubwa,silya,chaki,asin","kubwa","f","2","html-keyboard-response","288","j","chaki","false","",""
"2681.9000000003725","","","","","2","html-slider-response","289","","","","1",""
"3512","towel","tembo,funzi,pito,pagpalit","pagpalit","n","2","html-keyboard-response","290","v","funzi","false","",""
"2934.0999999996275","","","","","2","html-slider-response","291","","","","2",""
"7548","window","kweli,nanga,kujenga,umaga","kweli","f","2","html-keyboard-response","292","n","umaga","false","",""
"1889.5","","","","","2","html-slider-response","293","","","","2",""
"2805","box","kuacha,adui,rafiki,kitande","adui","v","3","html-keyboard-response","310","v","adui","true","","4"
"2303.5999999996275","","","","","3","html-slider-response","311","","","","2",""
"null","","","","","3","html-keyboard-response","312","","","","",""
"4124","pants","pintal,chuki,haki,hari","haki","j","3","html-keyboard-response","313","f","pintal","false","","4"
"2852.5999999996275","","","","","3","html-slider-response","314","","","","2",""
"null","","","","","3","html-keyboard-response","315","","","","",""
"4753","cup","dagat,shimoni,matumai,jeraha","matumai","j","3","html-keyboard-response","316","v","shimoni","false","","4"
"4414.5","","","","","3","html-slider-response","317","","","","2",""
"null","","","","","3","html-keyboard-response","318","","","","",""
"2611","triangle","kihozi,kasadpan,bentaha,liog","kasadpan","v","3","html-keyboard-response","319","j","bentaha","false","","4"
"4712.5","","","","","3","html-slider-response","320","","","","3",""
"null","","","","","3","html-keyboard-response","321","","","","",""
"2726","curtain","lisud,bulwawan,mchanga,chubani","mchanga","j","3","html-keyboard-response","322","n","chubani","false","","4"
"2793.2000000011176","","","","","3","html-slider-response","323","","","","2",""
"null","","","","","3","html-keyboard-response","324","","","","",""
"3179","clock","kartasi,abang,osha,mbwa","mbwa","n","3","html-keyboard-response","325","f","kartasi","false","","4"
"3117.7000000011176","","","","","3","html-slider-response","326","","","","1",""
"null","","","","","3","html-keyboard-response","327","","","","",""
"6274","mirror","rangi,kanding,sulagma,furaha","sulagma","j","3","html-keyboard-response","328","n","furaha","false","","4"
"2804.4000000003725","","","","","3","html-slider-response","329","","","","1",""
"null","","","","","3","html-keyboard-response","330","","","","",""
"6384","coffin","barua,tubag,hulma,kioo","kioo","n","3","html-keyboard-response","331","n","kioo","true","","1"
"1972.7000000011176","","","","","3","html-slider-response","332","","","","2",""
"null","","","","","3","html-keyboard-response","333","","","","",""
"3035","magazine","gundi,mchawi,kiti,bahandi","kiti","j","3","html-keyboard-response","334","j","kiti","true","","4"
"2572.9000000003725","","","","","3","html-slider-response","335","","","","1",""
"null","","","","","3","html-keyboard-response","336","","","","",""
"6678","column","pundok,dila,pala,ufagio","ufagio","n","3","html-keyboard-response","337","n","ufagio","true","","1"
"3113.699999999255","","","","","3","html-slider-response","338","","","","1",""
"null","","","","","3","html-keyboard-response","339","","","","",""
"5232","number","mundamo,shule,kengele,choori","mundamo","f","3","html-keyboard-response","340","f","mundamo","true","","4"
"2614.5","","","","","3","html-slider-response","341","","","","1",""
"null","","","","","3","html-keyboard-response","342","","","","",""
"3459","rose","paghalad,singizi,mwanake,amani","paghalad","f","3","html-keyboard-response","343","n","amani","false","","4"
"3229.800000000745","","","","","3","html-slider-response","344","","","","1",""
"null","","","","","3","html-keyboard-response","345","","","","",""
"2159","eel","msumari,ishara,kunywa,kabuang","msumari","f","3","html-keyboard-response","346","v","ishara","false","","4"
"2450.0999999996275","","","","","3","html-slider-response","347","","","","1",""
"null","","","","","3","html-keyboard-response","348","","","","",""
"3577","gift","baba,pagtawag,nyange,baso","pagtawag","v","3","html-keyboard-response","349","f","baba","false","","4"
"3305.2000000011176","","","","","3","html-slider-response","350","","","","1",""
"null","","","","","3","html-keyboard-response","351","","","","",""
"5034","apple","ukame,estante,kisu,edad","kisu","j","3","html-keyboard-response","352","j","kisu","true","","1"
"2800.2999999988824","","","","","3","html-slider-response","353","","","","1",""
"null","","","","","3","html-keyboard-response","354","","","","",""
"10506","wheel","punda,tawo,baadaye,bafuni","bafuni","n","3","html-keyboard-response","355","n","bafuni","true","","1"
"2981.5","","","","","3","html-slider-response","356","","","","1",""
"null","","","","","3","html-keyboard-response","357","","","","",""
"6880","knee","duka,mvuke,kubale,bili","duka","f","3","html-keyboard-response","358","f","duka","true","","4"
"3647.0999999996275","","","","","3","html-slider-response","359","","","","1",""
"null","","","","","3","html-keyboard-response","360","","","","",""
"5169","basket","kumbuka,kumba,utepe,hasira","kumba","v","3","html-keyboard-response","361","v","kumba","true","","1"
"4062.4000000003725","","","","","3","html-slider-response","362","","","","4",""
"null","","","","","3","html-keyboard-response","363","","","","",""
"14234","park","tambok,pwani,bunifu,ihalas","bunifu","j","3","html-keyboard-response","364","v","pwani","false","","4"
"3780.5","","","","","3","html-slider-response","365","","","","1",""
"null","","","","","3","html-keyboard-response","366","","","","",""
"5374","finger","simu,moyo,sufuria,lima","moyo","v","3","html-keyboard-response","367","f","simu","false","","4"
"3505","","","","","3","html-slider-response","368","","","","1",""
"null","","","","","3","html-keyboard-response","369","","","","",""
"2604","boat","hamsi,pombe,agalon,kitanda","agalon","j","3","html-keyboard-response","370","j","agalon","true","","4"
"3939.7999999988824","","","","","3","html-slider-response","371","","","","1",""
"null","","","","","3","html-keyboard-response","372","","","","",""
"4934","hill","kushoto,kukimba,sweta,matumbo","matumbo","n","3","html-keyboard-response","373","j","sweta","false","","4"
"4488.4000000003725","","","","","3","html-slider-response","374","","","","1",""
"null","","","","","3","html-keyboard-response","375","","","","",""
"5192","train","itik,dakika,sayari,mungu","sayari","j","3","html-keyboard-response","376","f","itik","false","","4"
"4862.9000000003725","","","","","3","html-slider-response","377","","","","2",""
"null","","","","","3","html-keyboard-response","378","","","","",""
"2738","wolf","lugha,kaburi,ndizi,mchuzi","lugha","f","3","html-keyboard-response","379","f","lugha","true","","4"
"3008.2999999988824","","","","","3","html-slider-response","380","","","","1",""
"null","","","","","3","html-keyboard-response","381","","","","",""
"2709","snake","jansa,karon,pagtukod,mvringo","pagtukod","j","3","html-keyboard-response","382","v","karon","false","","4"
"3271.60000000149","","","","","3","html-slider-response","383","","","","1",""
"null","","","","","3","html-keyboard-response","384","","","","",""
"5899","tooth","kijiko,uadui,pahiyum,kabalaka","kabalaka","n","3","html-keyboard-response","385","v","uadui","false","","4"
"3517.9000000003725","","","","","3","html-slider-response","386","","","","2",""
"null","","","","","3","html-keyboard-response","387","","","","",""
"18587","notebook","msitu,kila,mdudu,kemia","kemia","n","3","html-keyboard-response","388","j","mdudu","false","","4"
"11353.699999999255","","","","","3","html-slider-response","389","","","","2",""
"null","","","","","3","html-keyboard-response","390","","","","",""
"5060","flag","ndege,trekta,mkate,kawa","trekta","v","3","html-keyboard-response","391","n","kawa","false","","4"
"5584.5999999996275","","","","","3","html-slider-response","392","","","","2",""
"null","","","","","3","html-keyboard-response","393","","","","",""
"11229","squirrel","mahugaw,ukweli,kichwa,hofu","hofu","n","3","html-keyboard-response","394","f","mahugaw","false","","4"
"4905.5","","","","","3","html-slider-response","395","","","","2",""
"null","","","","","3","html-keyboard-response","396","","","","",""
"3134","door","surali,tena,soko,nyota","surali","f","3","html-keyboard-response","397","j","soko","false","","4"
"3846.199999999255","","","","","3","html-slider-response","398","","","","2",""
"null","","","","","3","html-keyboard-response","399","","","","",""
"60586","salmon","mzungu,sensilyo,seri,baharia","sensilyo","v","3","html-keyboard-response","400","j","seri","false","","4"
"2202.300000000745","","","","","3","html-slider-response","401","","","","1",""
"null","","","","","3","html-keyboard-response","402","","","","",""
"85608","shoulder","kelele,ndaniya,guruwe,mkuu","mkuu","n","3","html-keyboard-response","403","v","ndaniya","false","","4"
"2319.0999999996275","","","","","3","html-slider-response","404","","","","1",""
"null","","","","","3","html-keyboard-response","405","","","","",""
"8280","lamp","daub,bilaska,afya,mbolea","afya","j","3","html-keyboard-response","406","f","daub","false","","4"
"3076","","","","","3","html-slider-response","407","","","","1",""
"null","","","","","3","html-keyboard-response","408","","","","",""
"51115","shelf","bungtod,kadaot,awit,pamahaw","pamahaw","n","3","html-keyboard-response","409","n","pamahaw","true","","1"
"3204.9000000003725","","","","","3","html-slider-response","410","","","","4",""
"null","","","","","3","html-keyboard-response","411","","","","",""
"3827","human","tinapay,bado,kikapu,punguza","tinapay","f","3","html-keyboard-response","412","f","tinapay","true","","4"
"7237.300000000745","","","","","3","html-slider-response","413","","","","1",""
"null","","","","","3","html-keyboard-response","414","","","","",""
"5441","towel","tembo,funzi,pagpalit,pito","pagpalit","j","3","html-keyboard-response","415","f","tembo","false","","4"
"2584.9000000003725","","","","","3","html-slider-response","416","","","","1",""
"null","","","","","3","html-keyboard-response","417","","","","",""
"6073","cat","paghukom,neyemba,baki,akili","paghukom","f","3","html-keyboard-response","418","j","baki","false","","4"
"2584.9000000003725","","","","","3","html-slider-response","419","","","","1",""
"null","","","","","3","html-keyboard-response","420","","","","",""
"11060","spider","kamwe,bunyag,mkboa,atop","kamwe","f","3","html-keyboard-response","421","f","kamwe","true","","4"
"2581.4000000003725","","","","","3","html-slider-response","422","","","","1",""
"null","","","","","3","html-keyboard-response","423","","","","",""
"22547","window","nanga,kujenga,kweli,umaga","kweli","j","3","html-keyboard-response","424","f","nanga","false","","4"
"2763","","","","","3","html-slider-response","425","","","","1",""
"null","","","","","3","html-keyboard-response","426","","","","",""
"6121","woman","bandari,bituin,kovuli,pagtabon","pagtabon","n","3","html-keyboard-response","427","n","pagtabon","true","","1"
"3621.0999999996275","","","","","3","html-slider-response","428","","","","5",""
"null","","","","","3","html-keyboard-response","429","","","","",""
"17036","giraffe","mahitabo,daraja,jumatu,hangyo","mahitabo","f","3","html-keyboard-response","430","j","jumatu","false","","4"
"2701.39999999851","","","","","3","html-slider-response","431","","","","2",""
"null","","","","","3","html-keyboard-response","432","","","","",""
"14101","elephant","petye,pagduol,kito,suka","kito","j","3","html-keyboard-response","433","j","kito","true","","4"
"4316.700000001118","","","","","3","html-slider-response","434","","","","4",""
"null","","","","","3","html-keyboard-response","435","","","","",""
"16531","cave","kesho,ganti,maisha,nyundo","kesho","f","3","html-keyboard-response","436","f","kesho","true","","4"
"3874.4000000003725","","","","","3","html-slider-response","437","","","","2",""
"null","","","","","3","html-keyboard-response","438","","","","",""
"22987","bread","kaili,dizeli,bugas,dari","dari","n","3","html-keyboard-response","439","n","dari","true","","4"
"3295.199999999255","","","","","3","html-slider-response","440","","","","4",""
"null","","","","","3","html-keyboard-response","441","","","","",""
"4809","stone","ulimwengu,mkasi,asili,wingi","wingi","n","3","html-keyboard-response","442","j","asili","false","","4"
"4238","","","","","3","html-slider-response","443","","","","2",""
"null","","","","","3","html-keyboard-response","444","","","","",""
"12418","donkey","bloke,elfu,lalake,rombus","elfu","v","3","html-keyboard-response","445","v","elfu","true","","4"
"3352.300000000745","","","","","3","html-slider-response","446","","","","2",""
"null","","","","","3","html-keyboard-response","447","","","","",""
"11902","bridge","daima,sahani,ngono,panya","sahani","v","3","html-keyboard-response","448","f","daima","false","","4"
"2515.9000000003725","","","","","3","html-slider-response","449","","","","2",""
"null","","","","","3","html-keyboard-response","450","","","","",""
"32599","bonfire","goti,mwezi,mfuko,kusanya","goti","f","3","html-keyboard-response","451","n","kusanya","false","","4"
"2965.2999999988824","","","","","3","html-slider-response","452","","","","2",""
"null","","","","","3","html-keyboard-response","453","","","","",""
"16425","book","kuhesa,picha,mali,mara","mali","j","3","html-keyboard-response","454","j","mali","true","","4"
"2359.10000000149","","","","","3","html-slider-response","455","","","","5",""
"null","","","","","3","html-keyboard-response","456","","","","",""
"7361","fish","bala,baho,imani,buli","buli","n","3","html-keyboard-response","457","f","bala","false","","4"
"3306.5","","","","","3","html-slider-response","458","","","","2",""
"null","","","","","3","html-keyboard-response","459","","","","",""
"9089","spoon","betri,nzuri,pagsulod,ngazi","pagsulod","j","3","html-keyboard-response","460","v","nzuri","false","","4"
"3401","","","","","3","html-slider-response","461","","","","1",""
"null","","","","","3","html-keyboard-response","462","","","","",""
"20831","scissors","duga,mtawa,tanuri,suga","tanuri","j","3","html-keyboard-response","463","j","tanuri","true","","4"
"5545.39999999851","","","","","3","html-slider-response","464","","","","2",""
"null","","","","","3","html-keyboard-response","465","","","","",""
"17829","page","wakala,ishiri,wimbo,skina","wimbo","j","3","html-keyboard-response","466","f","wakala","false","","4"
"3431.4000000003725","","","","","3","html-slider-response","467","","","","1",""
"null","","","","","3","html-keyboard-response","468","","","","",""
"46091","nose","gubat,sehemu,kopa,kidole","sehemu","v","3","html-keyboard-response","469","v","sehemu","true","","1"
"4264","","","","","3","html-slider-response","470","","","","5",""
"null","","","","","3","html-keyboard-response","471","","","","",""
"30480","ceiling","maua,kugita,kawaida,rayna","maua","f","3","html-keyboard-response","472","j","kawaida","false","","4"
"2858.300000000745","","","","","3","html-slider-response","473","","","","1",""
"null","","","","","3","html-keyboard-response","474","","","","",""
"7377","bucket","kiatu,baga,ijayo,init","kiatu","f","3","html-keyboard-response","475","f","kiatu","true","","4"
"3726.199999999255","","","","","3","html-slider-response","476","","","","3",""
"null","","","","","3","html-keyboard-response","477","","","","",""
"27750","berry","abogado,kofia,nogozi,kinywa","kofia","v","3","html-keyboard-response","478","v","kofia","true","","1"
"3383.9000000003725","","","","","3","html-slider-response","479","","","","5",""
"null","","","","","3","html-keyboard-response","480","","","","",""
"9301","mother","kahawa,mbuzi,jokofu,babaye","babaye","n","3","html-keyboard-response","481","n","babaye","true","","1"
"3478.7000000011176","","","","","3","html-slider-response","482","","","","5",""
"null","","","","","3","html-keyboard-response","483","","","","",""
"2676","mosquito","martilyo,isda,taras,gutom","martilyo","f","3","html-keyboard-response","484","f","martilyo","true","","4"
"3985.800000000745","","","","","3","html-slider-response","485","","","","5",""
"null","","","","","3","html-keyboard-response","486","","","","",""
"9770","perfume","bino,katuyoan,sungura,ndogo","katuyoan","v","3","html-keyboard-response","487","j","sungura","false","","4"
"2638.2000000011176","","","","","3","html-slider-response","488","","","","1",""
"null","","","","","3","html-keyboard-response","489","","","","",""
"17796","sheet","juuya,bililhon,watu,kamantis","bililhon","v","3","html-keyboard-response","490","j","watu","false","","4"
"2704.2999999988824","","","","","3","html-slider-response","491","","","","1",""
"null","","","","","3","html-keyboard-response","492","","","","",""
"18040","puppet","napulo,lamok,godoro,mazishi","mazishi","n","3","html-keyboard-response","493","n","mazishi","true","","1"
"2737.0999999996275","","","","","3","html-slider-response","494","","","","5",""
"null","","","","","3","html-keyboard-response","495","","","","",""
"9861","poster","nchi,madungog,fedha,kasuko","madungog","v","3","html-keyboard-response","496","j","fedha","false","","4"
"3888.5","","","","","3","html-slider-response","497","","","","1",""
"null","","","","","3","html-keyboard-response","498","","","","",""
"3796","music","mraba,mageho,baiski,tumbo","baiski","j","3","html-keyboard-response","499","n","tumbo","false","","4"
"3548.5","","","","","3","html-slider-response","500","","","","1",""
"null","","","","","3","html-keyboard-response","501","","","","",""
"15843","key","miaka,chombo,goma,ahos","chombo","v","3","html-keyboard-response","502","n","ahos","false","","4"
"6021.9000000003725","","","","","3","html-slider-response","503","","","","3",""
"null","","","","","3","html-keyboard-response","504","","","","",""
"19307","sock","ndoora,kimysa,mamba,mtirka","mamba","j","3","html-keyboard-response","505","v","kimysa","false","","4"
"2586.5999999996275","","","","","3","html-slider-response","506","","","","2",""
"null","","","","","3","html-keyboard-response","507","","","","",""
"2695","marker","mapafu,maji,salita,atay","maji","v","3","html-keyboard-response","508","f","mapafu","false","","4"
"2195.2999999988824","","","","","3","html-slider-response","509","","","","2",""
"null","","","","","3","html-keyboard-response","510","","","","",""
"20270","office","hazini,leso,yatima,kuna","leso","v","3","html-keyboard-response","511","v","leso","true","","4"
"2627.300000000745","","","","","3","html-slider-response","512","","","","2",""
"null","","","","","3","html-keyboard-response","513","","","","",""
"2176","shoe","nyeusi,hatua,uyoga,kama","uyoga","j","3","html-keyboard-response","514","n","kama","false","","4"
"1904","","","","","3","html-slider-response","515","","","","2",""
"null","","","","","3","html-keyboard-response","516","","","","",""
"15517","cop","bustani,mechezo,jikoni,bakus","mechezo","v","3","html-keyboard-response","517","n","bakus","false","","4"
"2021","","","","","3","html-slider-response","518","","","","2",""
"null","","","","","3","html-keyboard-response","519","","","","",""
"4614","bank","kudhibi,silingan,tualya,ofisi","silingan","v","3","html-keyboard-response","520","v","silingan","true","","4"
"2852.699999999255","","","","","3","html-slider-response","521","","","","2",""
"null","","","","","3","html-keyboard-response","522","","","","",""
"11532","letter","filimbi,chuma,kifua,uhuru","kifua","j","3","html-keyboard-response","523","j","kifua","true","","1"
"3279.4000000003725","","","","","3","html-slider-response","524","","","","1",""
"null","","","","","3","html-keyboard-response","525","","","","",""
"6069","dog","bahari,lubi,washia,kalamu","bahari","f","3","html-keyboard-response","526","f","bahari","true","","1"
"2368.4000000003725","","","","","3","html-slider-response","527","","","","5",""
"null","","","","","3","html-keyboard-response","528","","","","",""
"11656","shop","nopya,kerida,ndezu,samaki","samaki","n","3","html-keyboard-response","529","j","ndezu","false","","4"
"2674.4000000003725","","","","","3","html-slider-response","530","","","","1",""
"null","","","","","3","html-keyboard-response","531","","","","",""
"4035","flower","tamasha,lobo,bega,usiku","bega","j","3","html-keyboard-response","532","f","tamasha","false","","4"
"3459.300000000745","","","","","3","html-slider-response","533","","","","2",""
"null","","","","","3","html-keyboard-response","534","","","","",""
"2185","cigar","ndugu,adhabu,kuta,mlango","adhabu","v","3","html-keyboard-response","535","v","adhabu","true","","1"
"3410.39999999851","","","","","3","html-slider-response","536","","","","2",""
"null","","","","","3","html-keyboard-response","537","","","","",""
"1899","hammer","mekno,kitovu,napakyas,layag","napakyas","j","3","html-keyboard-response","538","n","layag","false","","4"
"2192.699999999255","","","","","3","html-slider-response","539","","","","4",""
"null","","","","","3","html-keyboard-response","540","","","","",""
"3395","fork","baboy,paghago,mgonjwa,gorisi","mgonjwa","j","3","html-keyboard-response","541","f","baboy","false","","4"
"2449.39999999851","","","","","3","html-slider-response","542","","","","2",""
"null","","","","","3","html-keyboard-response","543","","","","",""
"8052","sun","basi,bendi,luha,uongo","basi","f","3","html-keyboard-response","544","f","basi","true","","1"
"3028","","","","","3","html-slider-response","545","","","","4",""
"null","","","","","3","html-keyboard-response","546","","","","",""
"2368","ladder","mashua,pangalan,mwanga,kamba","pangalan","v","3","html-keyboard-response","547","j","mwanga","false","","4"
"2132.300000000745","","","","","3","html-slider-response","548","","","","4",""
"null","","","","","3","html-keyboard-response","549","","","","",""
"1453","banana","kasamok,hagdan,kazi,twai","kazi","j","3","html-keyboard-response","550","j","kazi","true","","1"
"2242.300000000745","","","","","3","html-slider-response","551","","","","5",""
"null","","","","","3","html-keyboard-response","552","","","","",""
"4233","pudding","aibu,abug,mpishi,iring","aibu","f","3","html-keyboard-response","553","n","iring","false","","4"
"13277.60000000149","","","","","3","html-slider-response","554","","","","2",""
"null","","","","","3","html-keyboard-response","555","","","","",""
"3762","body","tindashan,nyundu,jibini,kununa","tindashan","f","3","html-keyboard-response","556","j","jibini","false","","4"
"2174.699999999255","","","","","3","html-slider-response","557","","","","2",""
"null","","","","","3","html-keyboard-response","558","","","","",""
"4021","bed","mapintas,kalipay,haraka,starehe","mapintas","f","3","html-keyboard-response","559","v","kalipay","false","","4"
"1853.4000000003725","","","","","3","html-slider-response","560","","","","2",""
"null","","","","","3","html-keyboard-response","561","","","","",""
"8648","tissue","lamigas,kisiwa,katika,ugomvi","ugomvi","n","3","html-keyboard-response","562","f","lamigas","false","","4"
"2216.5","","","","","3","html-slider-response","563","","","","2",""
"null","","","","","3","html-keyboard-response","564","","","","",""
"17426","candle","gabi,geza,farasi,kupanda","geza","v","3","html-keyboard-response","565","j","farasi","false","","4"
"2086","","","","","3","html-slider-response","566","","","","2",""
"null","","","","","3","html-keyboard-response","567","","","","",""
"3489","tomato","chupi,mvua,chupa,takatak","mvua","v","3","html-keyboard-response","568","v","mvua","true","","1"
"2502.0999999996275","","","","","3","html-slider-response","569","","","","5",""
"null","","","","","3","html-keyboard-response","570","","","","",""
"11164","list","alizeti,wingu,kuzama,kaso","wingu","v","3","html-keyboard-response","571","n","kaso","false","","4"
"1719.0999999996275","","","","","3","html-slider-response","572","","","","2",""
"null","","","","","3","html-keyboard-response","573","","","","",""
"2505","olive","bata,jiwe,siagi,welder","jiwe","v","3","html-keyboard-response","574","f","bata","false","","4"
"5349","","","","","3","html-slider-response","575","","","","2",""
"null","","","","","3","html-keyboard-response","576","","","","",""
"1536","picture","silya,kubwa,chaki,asin","kubwa","v","3","html-keyboard-response","577","v","kubwa","true","","1"
"2954.0999999996275","","","","","3","html-slider-response","578","","","","5",""
"null","","","","","3","html-keyboard-response","579","","","","",""
