"rt","en_word","options","swa_word","correct_answer","phase","trial_type","trial_index","input_answer","input_word","accuracy","certainty","amt_choices"
"12393","bonfire","mwezi,mfuko,goti,kusanya","goti","j","2","html-keyboard-response","114","j","goti","true","",""
"1726.6000000014901","","","","","2","html-slider-response","115","","","","4",""
"3363","flower","tamasha,bega,lobo,usiku","bega","v","2","html-keyboard-response","116","v","bega","true","",""
"2102.800000000745","","","","","2","html-slider-response","117","","","","1",""
"4343","column","pundok,ufagio,dila,pala","ufagio","v","2","html-keyboard-response","118","v","ufagio","true","",""
"2078.800000000745","","","","","2","html-slider-response","119","","","","5",""
"3823","music","baiski,mraba,mageho,tumbo","baiski","f","2","html-keyboard-response","120","j","mageho","false","",""
"9878.799999998882","","","","","2","html-slider-response","121","","","","2",""
"11911","spider","bunyag,kamwe,mkboa,atop","kamwe","v","2","html-keyboard-response","122","v","kamwe","true","",""
"4694.9000000003725","","","","","2","html-slider-response","123","","","","4",""
"4870","fork","baboy,paghago,gorisi,mgonjwa","mgonjwa","n","2","html-keyboard-response","124","n","mgonjwa","true","",""
"2383.10000000149","","","","","2","html-slider-response","125","","","","2",""
"1775","mosquito","martilyo,isda,taras,gutom","martilyo","f","2","html-keyboard-response","126","f","martilyo","true","",""
"1391.2000000011176","","","","","2","html-slider-response","127","","","","5",""
"2607","banana","kasamok,kazi,hagdan,twai","kazi","v","2","html-keyboard-response","128","v","kazi","true","",""
"1511","","","","","2","html-slider-response","129","","","","1",""
"2360","cup","dagat,shimoni,jeraha,matumai","matumai","n","2","html-keyboard-response","130","n","matumai","true","",""
"2599","","","","","2","html-slider-response","131","","","","1",""
"8290","shop","samaki,nopya,kerida,ndezu","samaki","f","2","html-keyboard-response","132","n","ndezu","false","",""
"1550.5999999996275","","","","","2","html-slider-response","133","","","","1",""
"2175","elephant","petye,pagduol,suka,kito","kito","n","2","html-keyboard-response","134","n","kito","true","",""
"1263.1000000014901","","","","","2","html-slider-response","135","","","","5",""
"3839","bucket","baga,ijayo,init,kiatu","kiatu","n","2","html-keyboard-response","136","n","kiatu","true","",""
"1935","","","","","2","html-slider-response","137","","","","2",""
"5023","book","mali,kuhesa,picha,mara","mali","f","2","html-keyboard-response","138","n","mara","false","",""
"2430.89999999851","","","","","2","html-slider-response","139","","","","1",""
"10415","mirror","rangi,kanding,sulagma,furaha","sulagma","j","2","html-keyboard-response","140","j","sulagma","true","",""
"1398.5999999996275","","","","","2","html-slider-response","141","","","","2",""
"2743","office","leso,hazini,yatima,kuna","leso","f","2","html-keyboard-response","142","f","leso","true","",""
"1750.7999999988824","","","","","2","html-slider-response","143","","","","2",""
"2551","body","nyundu,jibini,kununa,tindashan","tindashan","n","2","html-keyboard-response","144","n","tindashan","true","",""
"1159.199999999255","","","","","2","html-slider-response","145","","","","5",""
"2023","perfume","bino,sungura,katuyoan,ndogo","katuyoan","j","2","html-keyboard-response","146","j","katuyoan","true","",""
"1519","","","","","2","html-slider-response","147","","","","4",""
"2111","olive","bata,siagi,jiwe,welder","jiwe","j","2","html-keyboard-response","148","j","jiwe","true","",""
"1447","","","","","2","html-slider-response","149","","","","4",""
"8103","magazine","gundi,kiti,mchawi,bahandi","kiti","v","2","html-keyboard-response","150","v","kiti","true","",""
"1910.9000000003725","","","","","2","html-slider-response","151","","","","2",""
"2535","bread","dari,kaili,dizeli,bugas","dari","f","2","html-keyboard-response","152","f","dari","true","",""
"1366.800000000745","","","","","2","html-slider-response","153","","","","5",""
"1736","cave","ganti,kesho,maisha,nyundo","kesho","v","2","html-keyboard-response","154","v","kesho","true","",""
"1030.4000000003725","","","","","2","html-slider-response","155","","","","4",""
"3543","ladder","mashua,pangalan,mwanga,kamba","pangalan","v","2","html-keyboard-response","156","v","pangalan","true","",""
"1439.1000000014901","","","","","2","html-slider-response","157","","","","4",""
"2687","human","tinapay,bado,kikapu,punguza","tinapay","f","2","html-keyboard-response","158","f","tinapay","true","",""
"1015.0999999996275","","","","","2","html-slider-response","159","","","","4",""
"4439","clock","kartasi,abang,osha,mbwa","mbwa","n","2","html-keyboard-response","160","n","mbwa","true","",""
"895","","","","","2","html-slider-response","161","","","","4",""
"7263","shelf","bungtod,pamahaw,kadaot,awit","pamahaw","v","2","html-keyboard-response","162","f","bungtod","false","",""
"1366.800000000745","","","","","2","html-slider-response","163","","","","2",""
"1783","salmon","mzungu,sensilyo,seri,baharia","sensilyo","v","2","html-keyboard-response","164","v","sensilyo","true","",""
"966.9000000003725","","","","","2","html-slider-response","165","","","","4",""
"1447","coffin","barua,kioo,tubag,hulma","kioo","v","2","html-keyboard-response","166","v","kioo","true","",""
"1022.8000000007451","","","","","2","html-slider-response","167","","","","4",""
"2959","notebook","msitu,kila,kemia,mdudu","kemia","j","2","html-keyboard-response","168","j","kemia","true","",""
"2087.0999999996275","","","","","2","html-slider-response","169","","","","1",""
"3015","shoulder","kelele,mkuu,ndaniya,guruwe","mkuu","v","2","html-keyboard-response","170","j","ndaniya","false","",""
"1399","","","","","2","html-slider-response","171","","","","1",""
"2871","park","tambok,pwani,bunifu,ihalas","bunifu","j","2","html-keyboard-response","172","n","ihalas","false","",""
"1519.0999999996275","","","","","2","html-slider-response","173","","","","1",""
"3135","number","shule,mundamo,kengele,choori","mundamo","v","2","html-keyboard-response","174","f","shule","false","",""
"1647","","","","","2","html-slider-response","175","","","","1",""
"4095","apple","kisu,ukame,estante,edad","kisu","f","2","html-keyboard-response","176","v","ukame","false","",""
"2958.9000000003725","","","","","2","html-slider-response","177","","","","2",""
"3423","letter","filimbi,kifua,chuma,uhuru","kifua","v","2","html-keyboard-response","178","j","chuma","false","",""
"2631","","","","","2","html-slider-response","179","","","","1",""
"3254","eel","ishara,msumari,kunywa,kabuang","msumari","v","2","html-keyboard-response","180","v","msumari","true","",""
"1311.5","","","","","2","html-slider-response","181","","","","1",""
"3775","cop","mechezo,bustani,jikoni,bakus","mechezo","f","2","html-keyboard-response","182","v","bustani","false","",""
"1174.800000000745","","","","","2","html-slider-response","183","","","","1",""
"3015","wolf","lugha,kaburi,ndizi,mchuzi","lugha","f","2","html-keyboard-response","184","j","ndizi","false","",""
"2158.9000000003725","","","","","2","html-slider-response","185","","","","2",""
"2752","squirrel","mahugaw,ukweli,kichwa,hofu","hofu","n","2","html-keyboard-response","186","n","hofu","true","",""
"1670.800000000745","","","","","2","html-slider-response","187","","","","1",""
"2984","nose","gubat,kopa,kidole,sehemu","sehemu","n","2","html-keyboard-response","188","n","sehemu","true","",""
"1342.9000000003725","","","","","2","html-slider-response","189","","","","2",""
"12975","sock","ndoora,mamba,kimysa,mtirka","mamba","v","2","html-keyboard-response","190","v","mamba","true","",""
"1478.699999999255","","","","","2","html-slider-response","191","","","","4",""
"2791","bank","silingan,kudhibi,tualya,ofisi","silingan","f","2","html-keyboard-response","192","v","kudhibi","false","",""
"1574.9000000003725","","","","","2","html-slider-response","193","","","","2",""
"3767","donkey","elfu,bloke,lalake,rombus","elfu","f","2","html-keyboard-response","194","f","elfu","true","",""
"2886.9000000003725","","","","","2","html-slider-response","195","","","","4",""
"2007","poster","nchi,madungog,fedha,kasuko","madungog","v","2","html-keyboard-response","196","n","kasuko","false","",""
"1583","","","","","2","html-slider-response","197","","","","2",""
"4047","puppet","napulo,lamok,mazishi,godoro","mazishi","j","2","html-keyboard-response","198","n","godoro","false","",""
"3974.89999999851","","","","","2","html-slider-response","199","","","","2",""
"5399","hill","kushoto,kukimba,sweta,matumbo","matumbo","n","2","html-keyboard-response","200","n","matumbo","true","",""
"1031","","","","","2","html-slider-response","201","","","","2",""
"2007","tooth","kabalaka,kijiko,uadui,pahiyum","kabalaka","f","2","html-keyboard-response","202","v","kijiko","false","",""
"1295","","","","","2","html-slider-response","203","","","","2",""
"1711","woman","bandari,bituin,kovuli,pagtabon","pagtabon","n","2","html-keyboard-response","204","n","pagtabon","true","",""
"1278.7999999988824","","","","","2","html-slider-response","205","","","","4",""
"2527","wheel","punda,tawo,bafuni,baadaye","bafuni","j","2","html-keyboard-response","206","j","bafuni","true","",""
"1431.0999999996275","","","","","2","html-slider-response","207","","","","2",""
"2679","mother","kahawa,mbuzi,babaye,jokofu","babaye","j","2","html-keyboard-response","208","j","babaye","true","",""
"806.9000000003725","","","","","2","html-slider-response","209","","","","4",""
"2807","bed","mapintas,kalipay,haraka,starehe","mapintas","f","2","html-keyboard-response","210","f","mapintas","true","",""
"791.5999999996275","","","","","2","html-slider-response","211","","","","2",""
"2598","key","miaka,goma,ahos,chombo","chombo","n","2","html-keyboard-response","212","n","chombo","true","",""
"950.6999999992549","","","","","2","html-slider-response","213","","","","4",""
"3239","page","wimbo,wakala,ishiri,skina","wimbo","f","2","html-keyboard-response","214","j","ishiri","false","",""
"1790.9000000003725","","","","","2","html-slider-response","215","","","","2",""
"2751","pants","haki,pintal,chuki,hari","haki","f","2","html-keyboard-response","216","f","haki","true","",""
"3942.9000000003725","","","","","2","html-slider-response","217","","","","2",""
"2087","sun","bendi,luha,uongo,basi","basi","n","2","html-keyboard-response","218","n","basi","true","",""
"1703.199999999255","","","","","2","html-slider-response","219","","","","5",""
"3655","finger","simu,moyo,sufuria,lima","moyo","v","2","html-keyboard-response","220","j","sufuria","false","",""
"1790.9000000003725","","","","","2","html-slider-response","221","","","","2",""
"2735","shoe","nyeusi,uyoga,hatua,kama","uyoga","v","2","html-keyboard-response","222","v","uyoga","true","",""
"983.2999999988824","","","","","2","html-slider-response","223","","","","2",""
"1943","giraffe","daraja,jumatu,hangyo,mahitabo","mahitabo","n","2","html-keyboard-response","224","n","mahitabo","true","",""
"831.1999999992549","","","","","2","html-slider-response","225","","","","4",""
"3599","dog","lubi,washia,bahari,kalamu","bahari","j","2","html-keyboard-response","226","j","bahari","true","",""
"2567.4000000003725","","","","","2","html-slider-response","227","","","","2",""
"2615","box","kuacha,rafiki,adui,kitande","adui","j","2","html-keyboard-response","228","j","adui","true","",""
"1078.9000000003725","","","","","2","html-slider-response","229","","","","2",""
"2982","scissors","duga,mtawa,tanuri,suga","tanuri","j","2","html-keyboard-response","230","n","suga","false","",""
"1015.4000000003725","","","","","2","html-slider-response","231","","","","2",""
"2791","cat","neyemba,baki,paghukom,akili","paghukom","j","2","html-keyboard-response","232","v","baki","false","",""
"2175.10000000149","","","","","2","html-slider-response","233","","","","2",""
"2495","basket","kumbuka,kumba,utepe,hasira","kumba","v","2","html-keyboard-response","234","j","utepe","false","",""
"1543","","","","","2","html-slider-response","235","","","","2",""
"3431","snake","jansa,pagtukod,karon,mvringo","pagtukod","v","2","html-keyboard-response","236","v","pagtukod","true","",""
"1686.9000000003725","","","","","2","html-slider-response","237","","","","2",""
"2663","gift","baba,nyange,pagtawag,baso","pagtawag","j","2","html-keyboard-response","238","n","baso","false","",""
"1199.199999999255","","","","","2","html-slider-response","239","","","","2",""
"2991","train","itik,dakika,mungu,sayari","sayari","n","2","html-keyboard-response","240","n","sayari","true","",""
"838.6999999992549","","","","","2","html-slider-response","241","","","","2",""
"4200","pudding","aibu,abug,mpishi,iring","aibu","f","2","html-keyboard-response","242","j","mpishi","false","",""
"743.1999999992549","","","","","2","html-slider-response","243","","","","2",""
"2775","tomato","chupi,chupa,mvua,takatak","mvua","j","2","html-keyboard-response","244","j","mvua","true","",""
"871.0999999996275","","","","","2","html-slider-response","245","","","","2",""
"2311","stone","ulimwengu,mkasi,asili,wingi","wingi","n","2","html-keyboard-response","246","v","mkasi","false","",""
"2959.199999999255","","","","","2","html-slider-response","247","","","","2",""
"2975","hammer","mekno,kitovu,napakyas,layag","napakyas","j","2","html-keyboard-response","248","j","napakyas","true","",""
"1070.9000000003725","","","","","2","html-slider-response","249","","","","2",""
"2031","knee","mvuke,duka,kubale,bili","duka","v","2","html-keyboard-response","250","v","duka","true","",""
"1158.9000000003725","","","","","2","html-slider-response","251","","","","2",""
"3415","ceiling","kugita,maua,kawaida,rayna","maua","v","2","html-keyboard-response","252","j","kawaida","false","",""
"1078.9000000003725","","","","","2","html-slider-response","253","","","","2",""
"2599","spoon","betri,nzuri,ngazi,pagsulod","pagsulod","n","2","html-keyboard-response","254","n","pagsulod","true","",""
"2686.5","","","","","2","html-slider-response","255","","","","2",""
"2096","marker","mapafu,salita,maji,atay","maji","j","2","html-keyboard-response","256","j","maji","true","",""
"727","","","","","2","html-slider-response","257","","","","2",""
"3112","candle","gabi,farasi,geza,kupanda","geza","j","2","html-keyboard-response","258","f","gabi","false","",""
"1390.800000000745","","","","","2","html-slider-response","259","","","","2",""
"2079","tissue","lamigas,kisiwa,ugomvi,katika","ugomvi","j","2","html-keyboard-response","260","v","kisiwa","false","",""
"1255","","","","","2","html-slider-response","261","","","","2",""
"2919","bridge","daima,ngono,sahani,panya","sahani","j","2","html-keyboard-response","262","n","panya","false","",""
"719","","","","","2","html-slider-response","263","","","","2",""
"2735","berry","abogado,nogozi,kofia,kinywa","kofia","j","2","html-keyboard-response","264","v","nogozi","false","",""
"1135.4000000003725","","","","","2","html-slider-response","265","","","","2",""
"2799","triangle","kasadpan,kihozi,bentaha,liog","kasadpan","f","2","html-keyboard-response","266","v","kihozi","false","",""
"671","","","","","2","html-slider-response","267","","","","2",""
"2575","door","tena,surali,soko,nyota","surali","v","2","html-keyboard-response","268","n","nyota","false","",""
"846.5999999996275","","","","","2","html-slider-response","269","","","","2",""
"5551","fish","buli,bala,baho,imani","buli","f","2","html-keyboard-response","270","j","baho","false","",""
"1431.2000000011176","","","","","2","html-slider-response","271","","","","2",""
"2072","curtain","lisud,mchanga,bulwawan,chubani","mchanga","v","2","html-keyboard-response","272","v","mchanga","true","",""
"1822.2999999988824","","","","","2","html-slider-response","273","","","","4",""
"2799","flag","trekta,ndege,mkate,kawa","trekta","f","2","html-keyboard-response","274","n","kawa","false","",""
"1095","","","","","2","html-slider-response","275","","","","2",""
"2311","boat","hamsi,agalon,pombe,kitanda","agalon","v","2","html-keyboard-response","276","j","pombe","false","",""
"886.9000000003725","","","","","2","html-slider-response","277","","","","2",""
"2423","rose","singizi,mwanake,amani,paghalad","paghalad","n","2","html-keyboard-response","278","n","paghalad","true","",""
"1343","","","","","2","html-slider-response","279","","","","2",""
"2959","lamp","afya,daub,bilaska,mbolea","afya","f","2","html-keyboard-response","280","f","afya","true","",""
"871.0999999996275","","","","","2","html-slider-response","281","","","","2",""
"2103","cigar","ndugu,kuta,mlango,adhabu","adhabu","n","2","html-keyboard-response","282","j","mlango","false","",""
"1334.5999999996275","","","","","2","html-slider-response","283","","","","2",""
"1608","list","alizeti,wingu,kuzama,kaso","wingu","v","2","html-keyboard-response","284","n","kaso","false","",""
"1262.800000000745","","","","","2","html-slider-response","285","","","","4",""
"2191","sheet","juuya,watu,kamantis,bililhon","bililhon","n","2","html-keyboard-response","286","n","bililhon","true","",""
"1015.1999999992549","","","","","2","html-slider-response","287","","","","2",""
"2023","picture","silya,chaki,kubwa,asin","kubwa","j","2","html-keyboard-response","288","v","chaki","false","",""
"1239.300000000745","","","","","2","html-slider-response","289","","","","2",""
"2646","towel","tembo,funzi,pito,pagpalit","pagpalit","n","2","html-keyboard-response","290","j","pito","false","",""
"1487.199999999255","","","","","2","html-slider-response","291","","","","2",""
"3935","window","nanga,kweli,kujenga,umaga","kweli","v","2","html-keyboard-response","292","j","kujenga","false","",""
"1335.800000000745","","","","","2","html-slider-response","293","","","","2",""
"2384","box","kuacha,rafiki,kitande,adui","adui","n","3","html-keyboard-response","310","n","adui","true","","4"
"1558.9000000003725","","","","","3","html-slider-response","311","","","","2",""
"null","","","","","3","html-keyboard-response","312","","","","",""
"2667","pants","pintal,haki,chuki,hari","haki","v","3","html-keyboard-response","313","v","haki","true","","4"
"1302.800000000745","","","","","3","html-slider-response","314","","","","2",""
"null","","","","","3","html-keyboard-response","315","","","","",""
"4313","cup","dagat,matumai,shimoni,jeraha","matumai","v","3","html-keyboard-response","316","v","matumai","true","","4"
"1118.5","","","","","3","html-slider-response","317","","","","2",""
"null","","","","","3","html-keyboard-response","318","","","","",""
"3869","triangle","kihozi,kasadpan,bentaha,liog","kasadpan","v","3","html-keyboard-response","319","f","kihozi","false","","4"
"1318.5999999996275","","","","","3","html-slider-response","320","","","","2",""
"null","","","","","3","html-keyboard-response","321","","","","",""
"3117","curtain","lisud,bulwawan,chubani,mchanga","mchanga","n","3","html-keyboard-response","322","n","mchanga","true","","4"
"1655","","","","","3","html-slider-response","323","","","","2",""
"null","","","","","3","html-keyboard-response","324","","","","",""
"3344","clock","mbwa,kartasi,abang,osha","mbwa","f","3","html-keyboard-response","325","n","osha","false","","4"
"1815.5","","","","","3","html-slider-response","326","","","","2",""
"null","","","","","3","html-keyboard-response","327","","","","",""
"1757","mirror","rangi,kanding,sulagma,furaha","sulagma","j","3","html-keyboard-response","328","j","sulagma","true","","4"
"1199","","","","","3","html-slider-response","329","","","","2",""
"null","","","","","3","html-keyboard-response","330","","","","",""
"1560","coffin","barua,kioo,tubag,hulma","kioo","v","3","html-keyboard-response","331","v","kioo","true","","1"
"2047","","","","","3","html-slider-response","332","","","","2",""
"null","","","","","3","html-keyboard-response","333","","","","",""
"9635","magazine","kiti,gundi,mchawi,bahandi","kiti","f","3","html-keyboard-response","334","j","mchawi","false","","4"
"1695.2000000011176","","","","","3","html-slider-response","335","","","","2",""
"null","","","","","3","html-keyboard-response","336","","","","",""
"1536","column","pundok,dila,pala,ufagio","ufagio","n","3","html-keyboard-response","337","n","ufagio","true","","1"
"1287.2999999988824","","","","","3","html-slider-response","338","","","","2",""
"null","","","","","3","html-keyboard-response","339","","","","",""
"7297","number","shule,kengele,choori,mundamo","mundamo","n","3","html-keyboard-response","340","f","shule","false","","4"
"1447","","","","","3","html-slider-response","341","","","","2",""
"null","","","","","3","html-keyboard-response","342","","","","",""
"3522","rose","singizi,paghalad,mwanake,amani","paghalad","v","3","html-keyboard-response","343","n","amani","false","","4"
"1335.0999999996275","","","","","3","html-slider-response","344","","","","2",""
"null","","","","","3","html-keyboard-response","345","","","","",""
"2094","eel","ishara,kunywa,msumari,kabuang","msumari","j","3","html-keyboard-response","346","j","msumari","true","","4"
"2391.4000000003725","","","","","3","html-slider-response","347","","","","5",""
"null","","","","","3","html-keyboard-response","348","","","","",""
"1729","gift","baba,nyange,pagtawag,baso","pagtawag","j","3","html-keyboard-response","349","n","baso","false","","4"
"1142.9000000003725","","","","","3","html-slider-response","350","","","","4",""
"null","","","","","3","html-keyboard-response","351","","","","",""
"1450","apple","kisu,ukame,estante,edad","kisu","f","3","html-keyboard-response","352","f","kisu","true","","1"
"2487","","","","","3","html-slider-response","353","","","","5",""
"null","","","","","3","html-keyboard-response","354","","","","",""
"1282","wheel","punda,tawo,baadaye,bafuni","bafuni","n","3","html-keyboard-response","355","n","bafuni","true","","1"
"1335.199999999255","","","","","3","html-slider-response","356","","","","5",""
"null","","","","","3","html-keyboard-response","357","","","","",""
"2913","knee","mvuke,kubale,duka,bili","duka","j","3","html-keyboard-response","358","n","bili","false","","4"
"1182.800000000745","","","","","3","html-slider-response","359","","","","2",""
"null","","","","","3","html-keyboard-response","360","","","","",""
"1185","basket","kumbuka,utepe,hasira,kumba","kumba","n","3","html-keyboard-response","361","n","kumba","true","","1"
"1654.9000000003725","","","","","3","html-slider-response","362","","","","2",""
"null","","","","","3","html-keyboard-response","363","","","","",""
"4787","park","tambok,pwani,ihalas,bunifu","bunifu","n","3","html-keyboard-response","364","f","tambok","false","","4"
"1702.9000000003725","","","","","3","html-slider-response","365","","","","2",""
"null","","","","","3","html-keyboard-response","366","","","","",""
"4174","finger","moyo,simu,sufuria,lima","moyo","f","3","html-keyboard-response","367","n","lima","false","","4"
"1199","","","","","3","html-slider-response","368","","","","2",""
"null","","","","","3","html-keyboard-response","369","","","","",""
"3693","boat","hamsi,pombe,agalon,kitanda","agalon","j","3","html-keyboard-response","370","n","kitanda","false","","4"
"1190.800000000745","","","","","3","html-slider-response","371","","","","2",""
"null","","","","","3","html-keyboard-response","372","","","","",""
"3506","hill","kushoto,kukimba,sweta,matumbo","matumbo","n","3","html-keyboard-response","373","v","kukimba","false","","4"
"1223","","","","","3","html-slider-response","374","","","","2",""
"null","","","","","3","html-keyboard-response","375","","","","",""
"2049","train","itik,dakika,mungu,sayari","sayari","n","3","html-keyboard-response","376","j","mungu","false","","4"
"1455.6000000014901","","","","","3","html-slider-response","377","","","","2",""
"null","","","","","3","html-keyboard-response","378","","","","",""
"2824","wolf","lugha,kaburi,ndizi,mchuzi","lugha","f","3","html-keyboard-response","379","n","mchuzi","false","","4"
"2087.0999999996275","","","","","3","html-slider-response","380","","","","2",""
"null","","","","","3","html-keyboard-response","381","","","","",""
"2241","snake","jansa,pagtukod,karon,mvringo","pagtukod","v","3","html-keyboard-response","382","v","pagtukod","true","","4"
"1391.5","","","","","3","html-slider-response","383","","","","2",""
"null","","","","","3","html-keyboard-response","384","","","","",""
"3016","tooth","kijiko,kabalaka,uadui,pahiyum","kabalaka","v","3","html-keyboard-response","385","v","kabalaka","true","","4"
"1055.0999999996275","","","","","3","html-slider-response","386","","","","2",""
"null","","","","","3","html-keyboard-response","387","","","","",""
"2312","notebook","kemia,msitu,kila,mdudu","kemia","f","3","html-keyboard-response","388","j","kila","false","","4"
"1231.1000000014901","","","","","3","html-slider-response","389","","","","2",""
"null","","","","","3","html-keyboard-response","390","","","","",""
"2598","flag","ndege,mkate,kawa,trekta","trekta","n","3","html-keyboard-response","391","j","kawa","false","","4"
"1542.9000000003725","","","","","3","html-slider-response","392","","","","2",""
"null","","","","","3","html-keyboard-response","393","","","","",""
"1641","squirrel","mahugaw,hofu,ukweli,kichwa","hofu","v","3","html-keyboard-response","394","v","hofu","true","","4"
"910.8000000007451","","","","","3","html-slider-response","395","","","","2",""
"null","","","","","3","html-keyboard-response","396","","","","",""
"2025","door","tena,soko,surali,nyota","surali","j","3","html-keyboard-response","397","n","nyota","false","","4"
"1423.5","","","","","3","html-slider-response","398","","","","2",""
"null","","","","","3","html-keyboard-response","399","","","","",""
"1807","salmon","sensilyo,mzungu,seri,baharia","sensilyo","f","3","html-keyboard-response","400","f","sensilyo","true","","4"
"1358.5","","","","","3","html-slider-response","401","","","","5",""
"null","","","","","3","html-keyboard-response","402","","","","",""
"2311","shoulder","kelele,mkuu,ndaniya,guruwe","mkuu","v","3","html-keyboard-response","403","j","ndaniya","false","","4"
"999.2000000011176","","","","","3","html-slider-response","404","","","","2",""
"null","","","","","3","html-keyboard-response","405","","","","",""
"1856","lamp","daub,bilaska,afya,mbolea","afya","j","3","html-keyboard-response","406","j","afya","true","","4"
"1143.1000000014901","","","","","3","html-slider-response","407","","","","5",""
"null","","","","","3","html-keyboard-response","408","","","","",""
"1392","shelf","bungtod,kadaot,pamahaw,awit","pamahaw","j","3","html-keyboard-response","409","j","pamahaw","true","","1"
"1551","","","","","3","html-slider-response","410","","","","5",""
"null","","","","","3","html-keyboard-response","411","","","","",""
"1498","human","tinapay,bado,kikapu,punguza","tinapay","f","3","html-keyboard-response","412","f","tinapay","true","","4"
"2007.1000000014901","","","","","3","html-slider-response","413","","","","5",""
"null","","","","","3","html-keyboard-response","414","","","","",""
"1696","towel","tembo,funzi,pito,pagpalit","pagpalit","n","3","html-keyboard-response","415","j","pito","false","","4"
"1519","","","","","3","html-slider-response","416","","","","2",""
"null","","","","","3","html-keyboard-response","417","","","","",""
"2781","cat","neyemba,paghukom,baki,akili","paghukom","v","3","html-keyboard-response","418","j","baki","false","","4"
"1527.1000000014901","","","","","3","html-slider-response","419","","","","2",""
"null","","","","","3","html-keyboard-response","420","","","","",""
"1607","spider","kamwe,bunyag,mkboa,atop","kamwe","f","3","html-keyboard-response","421","f","kamwe","true","","4"
"1687","","","","","3","html-slider-response","422","","","","5",""
"null","","","","","3","html-keyboard-response","423","","","","",""
"2618","window","nanga,kweli,kujenga,umaga","kweli","v","3","html-keyboard-response","424","j","kujenga","false","","4"
"1407.1000000014901","","","","","3","html-slider-response","425","","","","4",""
"null","","","","","3","html-keyboard-response","426","","","","",""
"1230","woman","bandari,pagtabon,bituin,kovuli","pagtabon","v","3","html-keyboard-response","427","v","pagtabon","true","","1"
"1295.2000000011176","","","","","3","html-slider-response","428","","","","5",""
"null","","","","","3","html-keyboard-response","429","","","","",""
"1192","giraffe","daraja,mahitabo,jumatu,hangyo","mahitabo","v","3","html-keyboard-response","430","v","mahitabo","true","","4"
"1191","","","","","3","html-slider-response","431","","","","5",""
"null","","","","","3","html-keyboard-response","432","","","","",""
"1568","elephant","petye,pagduol,kito,suka","kito","j","3","html-keyboard-response","433","j","kito","true","","4"
"1399","","","","","3","html-slider-response","434","","","","5",""
"null","","","","","3","html-keyboard-response","435","","","","",""
"816","cave","kesho,ganti,maisha,nyundo","kesho","f","3","html-keyboard-response","436","v","ganti","false","","4"
"4783.200000001118","","","","","3","html-slider-response","437","","","","2",""
"null","","","","","3","html-keyboard-response","438","","","","",""
"1180","bread","dari,kaili,dizeli,bugas","dari","f","3","html-keyboard-response","439","f","dari","true","","4"
"1615.1000000014901","","","","","3","html-slider-response","440","","","","4",""
"null","","","","","3","html-keyboard-response","441","","","","",""
"2782","stone","ulimwengu,wingi,mkasi,asili","wingi","v","3","html-keyboard-response","442","j","mkasi","false","","4"
"1295","","","","","3","html-slider-response","443","","","","1",""
"null","","","","","3","html-keyboard-response","444","","","","",""
"2248","donkey","bloke,lalake,elfu,rombus","elfu","j","3","html-keyboard-response","445","j","elfu","true","","4"
"1055.1000000014901","","","","","3","html-slider-response","446","","","","4",""
"null","","","","","3","html-keyboard-response","447","","","","",""
"2825","bridge","daima,ngono,sahani,panya","sahani","j","3","html-keyboard-response","448","j","sahani","true","","4"
"1494.800000000745","","","","","3","html-slider-response","449","","","","2",""
"null","","","","","3","html-keyboard-response","450","","","","",""
"1665","bonfire","mwezi,mfuko,goti,kusanya","goti","j","3","html-keyboard-response","451","j","goti","true","","4"
"1791.699999999255","","","","","3","html-slider-response","452","","","","5",""
"null","","","","","3","html-keyboard-response","453","","","","",""
"1956","book","kuhesa,mali,picha,mara","mali","v","3","html-keyboard-response","454","f","kuhesa","false","","4"
"1335.199999999255","","","","","3","html-slider-response","455","","","","2",""
"null","","","","","3","html-keyboard-response","456","","","","",""
"2254","fish","bala,baho,buli,imani","buli","j","3","html-keyboard-response","457","f","bala","false","","4"
"1758.9000000003725","","","","","3","html-slider-response","458","","","","2",""
"null","","","","","3","html-keyboard-response","459","","","","",""
"940","spoon","betri,nzuri,pagsulod,ngazi","pagsulod","j","3","html-keyboard-response","460","j","pagsulod","true","","4"
"1767","","","","","3","html-slider-response","461","","","","2",""
"null","","","","","3","html-keyboard-response","462","","","","",""
"2689","scissors","duga,tanuri,mtawa,suga","tanuri","v","3","html-keyboard-response","463","f","duga","false","","4"
"1703.2999999988824","","","","","3","html-slider-response","464","","","","2",""
"null","","","","","3","html-keyboard-response","465","","","","",""
"1472","page","wakala,ishiri,skina,wimbo","wimbo","n","3","html-keyboard-response","466","v","ishiri","false","","4"
"2246.89999999851","","","","","3","html-slider-response","467","","","","2",""
"null","","","","","3","html-keyboard-response","468","","","","",""
"1625","nose","sehemu,gubat,kopa,kidole","sehemu","f","3","html-keyboard-response","469","f","sehemu","true","","1"
"1175.199999999255","","","","","3","html-slider-response","470","","","","2",""
"null","","","","","3","html-keyboard-response","471","","","","",""
"2125","ceiling","maua,kugita,kawaida,rayna","maua","f","3","html-keyboard-response","472","j","kawaida","false","","4"
"1735.3999999985099","","","","","3","html-slider-response","473","","","","2",""
"null","","","","","3","html-keyboard-response","474","","","","",""
"2402","bucket","kiatu,baga,ijayo,init","kiatu","f","3","html-keyboard-response","475","j","ijayo","false","","4"
"1311.2000000011176","","","","","3","html-slider-response","476","","","","2",""
"null","","","","","3","html-keyboard-response","477","","","","",""
"1117","berry","abogado,nogozi,kinywa,kofia","kofia","n","3","html-keyboard-response","478","n","kofia","true","","1"
"1063.5","","","","","3","html-slider-response","479","","","","2",""
"null","","","","","3","html-keyboard-response","480","","","","",""
"1531","mother","babaye,kahawa,mbuzi,jokofu","babaye","f","3","html-keyboard-response","481","f","babaye","true","","1"
"951","","","","","3","html-slider-response","482","","","","2",""
"null","","","","","3","html-keyboard-response","483","","","","",""
"1573","mosquito","isda,taras,martilyo,gutom","martilyo","j","3","html-keyboard-response","484","j","martilyo","true","","4"
"1159.5","","","","","3","html-slider-response","485","","","","2",""
"null","","","","","3","html-keyboard-response","486","","","","",""
"2721","perfume","bino,sungura,ndogo,katuyoan","katuyoan","n","3","html-keyboard-response","487","n","katuyoan","true","","4"
"1695","","","","","3","html-slider-response","488","","","","4",""
"null","","","","","3","html-keyboard-response","489","","","","",""
"2793","sheet","juuya,watu,kamantis,bililhon","bililhon","n","3","html-keyboard-response","490","n","bililhon","true","","4"
"1574.9000000003725","","","","","3","html-slider-response","491","","","","2",""
"null","","","","","3","html-keyboard-response","492","","","","",""
"1340","puppet","napulo,lamok,mazishi,godoro","mazishi","j","3","html-keyboard-response","493","j","mazishi","true","","1"
"1655","","","","","3","html-slider-response","494","","","","2",""
"null","","","","","3","html-keyboard-response","495","","","","",""
"2925","poster","nchi,fedha,kasuko,madungog","madungog","n","3","html-keyboard-response","496","n","madungog","true","","4"
"2759","","","","","3","html-slider-response","497","","","","2",""
"null","","","","","3","html-keyboard-response","498","","","","",""
"2222","music","mraba,baiski,mageho,tumbo","baiski","v","3","html-keyboard-response","499","j","mageho","false","","4"
"1695.2000000011176","","","","","3","html-slider-response","500","","","","2",""
"null","","","","","3","html-keyboard-response","501","","","","",""
"1451","key","miaka,chombo,goma,ahos","chombo","v","3","html-keyboard-response","502","j","goma","false","","4"
"1375","","","","","3","html-slider-response","503","","","","2",""
"null","","","","","3","html-keyboard-response","504","","","","",""
"2577","sock","ndoora,mamba,kimysa,mtirka","mamba","v","3","html-keyboard-response","505","v","mamba","true","","4"
"1230.8999999985099","","","","","3","html-slider-response","506","","","","2",""
"null","","","","","3","html-keyboard-response","507","","","","",""
"2518","marker","mapafu,salita,atay,maji","maji","n","3","html-keyboard-response","508","n","maji","true","","4"
"1158.7999999988824","","","","","3","html-slider-response","509","","","","2",""
"null","","","","","3","html-keyboard-response","510","","","","",""
"1179","office","leso,hazini,yatima,kuna","leso","f","3","html-keyboard-response","511","f","leso","true","","4"
"1207","","","","","3","html-slider-response","512","","","","2",""
"null","","","","","3","html-keyboard-response","513","","","","",""
"2305","shoe","nyeusi,hatua,kama,uyoga","uyoga","n","3","html-keyboard-response","514","j","kama","false","","4"
"871.1999999992549","","","","","3","html-slider-response","515","","","","2",""
"null","","","","","3","html-keyboard-response","516","","","","",""
"1756","cop","bustani,mechezo,jikoni,bakus","mechezo","v","3","html-keyboard-response","517","j","jikoni","false","","4"
"1311.0999999996275","","","","","3","html-slider-response","518","","","","2",""
"null","","","","","3","html-keyboard-response","519","","","","",""
"2629","bank","kudhibi,tualya,silingan,ofisi","silingan","j","3","html-keyboard-response","520","n","ofisi","false","","4"
"1207.0999999996275","","","","","3","html-slider-response","521","","","","2",""
"null","","","","","3","html-keyboard-response","522","","","","",""
"745","letter","kifua,filimbi,chuma,uhuru","kifua","f","3","html-keyboard-response","523","f","kifua","true","","1"
"2262.9000000003725","","","","","3","html-slider-response","524","","","","4",""
"null","","","","","3","html-keyboard-response","525","","","","",""
"1113","dog","lubi,washia,bahari,kalamu","bahari","j","3","html-keyboard-response","526","j","bahari","true","","1"
"1991.300000000745","","","","","3","html-slider-response","527","","","","5",""
"null","","","","","3","html-keyboard-response","528","","","","",""
"1649","shop","nopya,kerida,ndezu,samaki","samaki","n","3","html-keyboard-response","529","j","ndezu","false","","4"
"1087.5999999996275","","","","","3","html-slider-response","530","","","","2",""
"null","","","","","3","html-keyboard-response","531","","","","",""
"2492","flower","tamasha,lobo,usiku,bega","bega","n","3","html-keyboard-response","532","v","lobo","false","","4"
"2895.199999999255","","","","","3","html-slider-response","533","","","","2",""
"null","","","","","3","html-keyboard-response","534","","","","",""
"1289","cigar","ndugu,kuta,mlango,adhabu","adhabu","n","3","html-keyboard-response","535","n","adhabu","true","","1"
"1175.2999999988824","","","","","3","html-slider-response","536","","","","2",""
"null","","","","","3","html-keyboard-response","537","","","","",""
"2308","hammer","napakyas,mekno,kitovu,layag","napakyas","f","3","html-keyboard-response","538","f","napakyas","true","","4"
"1823.2999999988824","","","","","3","html-slider-response","539","","","","2",""
"null","","","","","3","html-keyboard-response","540","","","","",""
"1096","fork","baboy,paghago,mgonjwa,gorisi","mgonjwa","j","3","html-keyboard-response","541","j","mgonjwa","true","","4"
"1815","","","","","3","html-slider-response","542","","","","2",""
"null","","","","","3","html-keyboard-response","543","","","","",""
"1287","sun","bendi,basi,luha,uongo","basi","v","3","html-keyboard-response","544","v","basi","true","","1"
"999.5","","","","","3","html-slider-response","545","","","","5",""
"null","","","","","3","html-keyboard-response","546","","","","",""
"1525","ladder","pangalan,mashua,mwanga,kamba","pangalan","f","3","html-keyboard-response","547","f","pangalan","true","","4"
"1111.0999999996275","","","","","3","html-slider-response","548","","","","5",""
"null","","","","","3","html-keyboard-response","549","","","","",""
"1072","banana","kazi,kasamok,hagdan,twai","kazi","f","3","html-keyboard-response","550","f","kazi","true","","1"
"1407.0999999996275","","","","","3","html-slider-response","551","","","","4",""
"null","","","","","3","html-keyboard-response","552","","","","",""
"3099","pudding","aibu,abug,mpishi,iring","aibu","f","3","html-keyboard-response","553","f","aibu","true","","4"
"1543","","","","","3","html-slider-response","554","","","","2",""
"null","","","","","3","html-keyboard-response","555","","","","",""
"1956","body","nyundu,jibini,kununa,tindashan","tindashan","n","3","html-keyboard-response","556","n","tindashan","true","","4"
"1023","","","","","3","html-slider-response","557","","","","2",""
"null","","","","","3","html-keyboard-response","558","","","","",""
"2681","bed","kalipay,haraka,mapintas,starehe","mapintas","j","3","html-keyboard-response","559","v","haraka","false","","4"
"927.2999999988824","","","","","3","html-slider-response","560","","","","2",""
"null","","","","","3","html-keyboard-response","561","","","","",""
"1446","tissue","lamigas,kisiwa,katika,ugomvi","ugomvi","n","3","html-keyboard-response","562","j","katika","false","","4"
"1127.0999999996275","","","","","3","html-slider-response","563","","","","3",""
"null","","","","","3","html-keyboard-response","564","","","","",""
"2303","candle","gabi,farasi,kupanda,geza","geza","n","3","html-keyboard-response","565","v","farasi","false","","4"
"1335","","","","","3","html-slider-response","566","","","","2",""
"null","","","","","3","html-keyboard-response","567","","","","",""
"1238","tomato","chupi,mvua,chupa,takatak","mvua","v","3","html-keyboard-response","568","v","mvua","true","","1"
"990.9000000003725","","","","","3","html-slider-response","569","","","","2",""
"null","","","","","3","html-keyboard-response","570","","","","",""
"1556","list","alizeti,wingu,kuzama,kaso","wingu","v","3","html-keyboard-response","571","n","kaso","false","","4"
"1375.199999999255","","","","","3","html-slider-response","572","","","","2",""
"null","","","","","3","html-keyboard-response","573","","","","",""
"1705","olive","bata,siagi,jiwe,welder","jiwe","j","3","html-keyboard-response","574","j","jiwe","true","","4"
"2135.0999999996275","","","","","3","html-slider-response","575","","","","4",""
"null","","","","","3","html-keyboard-response","576","","","","",""
"1249","picture","kubwa,silya,chaki,asin","kubwa","f","3","html-keyboard-response","577","f","kubwa","true","","1"
"2382.9000000003725","","","","","3","html-slider-response","578","","","","2",""
"null","","","","","3","html-keyboard-response","579","","","","",""
