"rt","en_word","options","swa_word","correct_answer","phase","trial_type","trial_index","input_answer","input_word","accuracy","certainty","amt_choices"
"8498","bonfire","mwezi,goti,mfuko,kusanya","goti","v","2","html-keyboard-response","109","n","kusanya","false","",""
"2096.5","","","","","2","html-slider-response","110","","","","2",""
"5578","flower","tamasha,bega,lobo,usiku","bega","v","2","html-keyboard-response","111","v","bega","true","",""
"1899","","","","","2","html-slider-response","112","","","","2",""
"3599","column","ufagio,pundok,dila,pala","ufagio","f","2","html-keyboard-response","113","f","ufagio","true","",""
"2754.199999809265","","","","","2","html-slider-response","114","","","","4",""
"3787","music","mraba,mageho,tumbo,baiski","baiski","n","2","html-keyboard-response","115","n","baiski","true","",""
"1676.6000001430511","","","","","2","html-slider-response","116","","","","5",""
"4773","spider","kamwe,bunyag,mkboa,atop","kamwe","f","2","html-keyboard-response","117","v","bunyag","false","",""
"5589","","","","","2","html-slider-response","118","","","","2",""
"5367","fork","baboy,mgonjwa,paghago,gorisi","mgonjwa","v","2","html-keyboard-response","119","v","mgonjwa","true","",""
"3282.100000143051","","","","","2","html-slider-response","120","","","","5",""
"4140","mosquito","martilyo,isda,taras,gutom","martilyo","f","2","html-keyboard-response","121","f","martilyo","true","",""
"1728.7999999523163","","","","","2","html-slider-response","122","","","","4",""
"4494","banana","kazi,kasamok,hagdan,twai","kazi","f","2","html-keyboard-response","123","f","kazi","true","",""
"2256.600000143051","","","","","2","html-slider-response","124","","","","2",""
"5034","cup","dagat,shimoni,matumai,jeraha","matumai","j","2","html-keyboard-response","125","j","matumai","true","",""
"1728.7000000476837","","","","","2","html-slider-response","126","","","","2",""
"3699","shop","nopya,kerida,ndezu,samaki","samaki","n","2","html-keyboard-response","127","j","ndezu","false","",""
"1888","","","","","2","html-slider-response","128","","","","1",""
"1951","elephant","petye,pagduol,kito,suka","kito","j","2","html-keyboard-response","129","j","kito","true","",""
"1688.2000000476837","","","","","2","html-slider-response","130","","","","5",""
"5622","bucket","baga,ijayo,kiatu,init","kiatu","j","2","html-keyboard-response","131","f","baga","false","",""
"1640.1999998092651","","","","","2","html-slider-response","132","","","","2",""
"8443","book","kuhesa,picha,mali,mara","mali","j","2","html-keyboard-response","133","j","mali","true","",""
"1577","","","","","2","html-slider-response","134","","","","4",""
"3697","mirror","sulagma,rangi,kanding,furaha","sulagma","f","2","html-keyboard-response","135","n","furaha","false","",""
"2513.7999999523163","","","","","2","html-slider-response","136","","","","1",""
"4188","office","hazini,leso,yatima,kuna","leso","v","2","html-keyboard-response","137","v","leso","true","",""
"1704.7999999523163","","","","","2","html-slider-response","138","","","","4",""
"6276","body","nyundu,jibini,tindashan,kununa","tindashan","j","2","html-keyboard-response","139","f","nyundu","false","",""
"1632.8999998569489","","","","","2","html-slider-response","140","","","","2",""
"3195","perfume","bino,sungura,katuyoan,ndogo","katuyoan","j","2","html-keyboard-response","141","j","katuyoan","true","",""
"4445.700000047684","","","","","2","html-slider-response","142","","","","3",""
"6112","olive","jiwe,bata,siagi,welder","jiwe","f","2","html-keyboard-response","143","v","bata","false","",""
"1514.4000000953674","","","","","2","html-slider-response","144","","","","2",""
"4024","magazine","kiti,gundi,mchawi,bahandi","kiti","f","2","html-keyboard-response","145","f","kiti","true","",""
"1657.3999998569489","","","","","2","html-slider-response","146","","","","4",""
"3583","bread","kaili,dizeli,bugas,dari","dari","n","2","html-keyboard-response","147","n","dari","true","",""
"1457.0999999046326","","","","","2","html-slider-response","148","","","","4",""
"6475","cave","ganti,kesho,maisha,nyundo","kesho","v","2","html-keyboard-response","149","v","kesho","true","",""
"2171.5","","","","","2","html-slider-response","150","","","","2",""
"5413","ladder","mashua,mwanga,pangalan,kamba","pangalan","j","2","html-keyboard-response","151","j","pangalan","true","",""
"3379.5999999046326","","","","","2","html-slider-response","152","","","","3",""
"4019","human","tinapay,bado,kikapu,punguza","tinapay","f","2","html-keyboard-response","153","f","tinapay","true","",""
"1496","","","","","2","html-slider-response","154","","","","4",""
"7711","clock","kartasi,mbwa,abang,osha","mbwa","v","2","html-keyboard-response","155","v","mbwa","true","",""
"1536","","","","","2","html-slider-response","156","","","","5",""
"2537","shelf","bungtod,kadaot,awit,pamahaw","pamahaw","n","2","html-keyboard-response","157","n","pamahaw","true","",""
"1577","","","","","2","html-slider-response","158","","","","4",""
"2240","salmon","mzungu,seri,sensilyo,baharia","sensilyo","j","2","html-keyboard-response","159","j","sensilyo","true","",""
"1592.5","","","","","2","html-slider-response","160","","","","5",""
"7678","coffin","kioo,barua,tubag,hulma","kioo","f","2","html-keyboard-response","161","f","kioo","true","",""
"1567.1999998092651","","","","","2","html-slider-response","162","","","","1",""
"3071","notebook","kemia,msitu,kila,mdudu","kemia","f","2","html-keyboard-response","163","j","kila","false","",""
"1427","","","","","2","html-slider-response","164","","","","4",""
"6249","shoulder","kelele,ndaniya,guruwe,mkuu","mkuu","n","2","html-keyboard-response","165","j","guruwe","false","",""
"1389.7999999523163","","","","","2","html-slider-response","166","","","","2",""
"4960","park","tambok,pwani,ihalas,bunifu","bunifu","n","2","html-keyboard-response","167","n","bunifu","true","",""
"1658.2999999523163","","","","","2","html-slider-response","168","","","","4",""
"5361","number","shule,mundamo,kengele,choori","mundamo","v","2","html-keyboard-response","169","v","mundamo","true","",""
"2231.9000000953674","","","","","2","html-slider-response","170","","","","3",""
"1861","apple","ukame,estante,edad,kisu","kisu","n","2","html-keyboard-response","171","n","kisu","true","",""
"1596.9000000953674","","","","","2","html-slider-response","172","","","","5",""
"8020","letter","filimbi,kifua,chuma,uhuru","kifua","v","2","html-keyboard-response","173","v","kifua","true","",""
"2061.7000000476837","","","","","2","html-slider-response","174","","","","4",""
"6291","eel","ishara,kunywa,msumari,kabuang","msumari","j","2","html-keyboard-response","175","j","msumari","true","",""
"1848.0999999046326","","","","","2","html-slider-response","176","","","","4",""
"6842","cop","mechezo,bustani,jikoni,bakus","mechezo","f","2","html-keyboard-response","177","f","mechezo","true","",""
"1830.5","","","","","2","html-slider-response","178","","","","2",""
"2485","wolf","lugha,kaburi,ndizi,mchuzi","lugha","f","2","html-keyboard-response","179","f","lugha","true","",""
"2242.2999999523163","","","","","2","html-slider-response","180","","","","3",""
"6065","squirrel","mahugaw,ukweli,kichwa,hofu","hofu","n","2","html-keyboard-response","181","v","ukweli","false","",""
"1868.8999998569489","","","","","2","html-slider-response","182","","","","1",""
"3543","nose","gubat,sehemu,kopa,kidole","sehemu","v","2","html-keyboard-response","183","v","sehemu","true","",""
"2490.0999999046326","","","","","2","html-slider-response","184","","","","3",""
"6957","sock","mamba,ndoora,kimysa,mtirka","mamba","f","2","html-keyboard-response","185","n","mtirka","false","",""
"1529.4000000953674","","","","","2","html-slider-response","186","","","","1",""
"7228","bank","kudhibi,silingan,tualya,ofisi","silingan","v","2","html-keyboard-response","187","v","silingan","true","",""
"1361.9000000953674","","","","","2","html-slider-response","188","","","","2",""
"5847","donkey","bloke,elfu,lalake,rombus","elfu","v","2","html-keyboard-response","189","j","lalake","false","",""
"3275.2999999523163","","","","","2","html-slider-response","190","","","","1",""
"4197","poster","nchi,fedha,kasuko,madungog","madungog","n","2","html-keyboard-response","191","j","kasuko","false","",""
"2511.0999999046326","","","","","2","html-slider-response","192","","","","3",""
"5035","puppet","mazishi,napulo,lamok,godoro","mazishi","f","2","html-keyboard-response","193","f","mazishi","true","",""
"1843.4000000953674","","","","","2","html-slider-response","194","","","","2",""
"4335","hill","kushoto,kukimba,sweta,matumbo","matumbo","n","2","html-keyboard-response","195","n","matumbo","true","",""
"2766.2999999523163","","","","","2","html-slider-response","196","","","","3",""
"4696","tooth","kijiko,kabalaka,uadui,pahiyum","kabalaka","v","2","html-keyboard-response","197","f","kijiko","false","",""
"1963","","","","","2","html-slider-response","198","","","","2",""
"7160","woman","bandari,pagtabon,bituin,kovuli","pagtabon","v","2","html-keyboard-response","199","f","bandari","false","",""
"1315.6000001430511","","","","","2","html-slider-response","200","","","","2",""
"4430","wheel","bafuni,punda,tawo,baadaye","bafuni","f","2","html-keyboard-response","201","j","tawo","false","",""
"2579.7999999523163","","","","","2","html-slider-response","202","","","","3",""
"4144","mother","kahawa,babaye,mbuzi,jokofu","babaye","v","2","html-keyboard-response","203","f","kahawa","false","",""
"1388.2000000476837","","","","","2","html-slider-response","204","","","","2",""
"5521","bed","kalipay,haraka,starehe,mapintas","mapintas","n","2","html-keyboard-response","205","n","mapintas","true","",""
"1480.9000000953674","","","","","2","html-slider-response","206","","","","2",""
"3574","key","chombo,miaka,goma,ahos","chombo","f","2","html-keyboard-response","207","v","miaka","false","",""
"2504.899999856949","","","","","2","html-slider-response","208","","","","3",""
"4224","page","wakala,wimbo,ishiri,skina","wimbo","v","2","html-keyboard-response","209","f","wakala","false","",""
"1378.6000001430511","","","","","2","html-slider-response","210","","","","4",""
"5245","pants","haki,pintal,chuki,hari","haki","f","2","html-keyboard-response","211","f","haki","true","",""
"2383.5","","","","","2","html-slider-response","212","","","","3",""
"4562","sun","basi,bendi,luha,uongo","basi","f","2","html-keyboard-response","213","f","basi","true","",""
"2024.7000000476837","","","","","2","html-slider-response","214","","","","3",""
"5738","finger","simu,moyo,sufuria,lima","moyo","v","2","html-keyboard-response","215","f","simu","false","",""
"1364","","","","","2","html-slider-response","216","","","","2",""
"2956","shoe","uyoga,nyeusi,hatua,kama","uyoga","f","2","html-keyboard-response","217","f","uyoga","true","",""
"1481.6000001430511","","","","","2","html-slider-response","218","","","","5",""
"7683","giraffe","daraja,jumatu,mahitabo,hangyo","mahitabo","j","2","html-keyboard-response","219","j","mahitabo","true","",""
"1292.7000000476837","","","","","2","html-slider-response","220","","","","2",""
"3933","dog","lubi,washia,bahari,kalamu","bahari","j","2","html-keyboard-response","221","j","bahari","true","",""
"1485.2000000476837","","","","","2","html-slider-response","222","","","","4",""
"4143","box","adui,kuacha,rafiki,kitande","adui","f","2","html-keyboard-response","223","n","kitande","false","",""
"1741.7000000476837","","","","","2","html-slider-response","224","","","","4",""
"4580","scissors","duga,tanuri,mtawa,suga","tanuri","v","2","html-keyboard-response","225","v","tanuri","true","",""
"1882.7999999523163","","","","","2","html-slider-response","226","","","","2",""
"5323","cat","neyemba,paghukom,baki,akili","paghukom","v","2","html-keyboard-response","227","f","neyemba","false","",""
"1794.8999998569489","","","","","2","html-slider-response","228","","","","1",""
"4813","basket","kumbuka,utepe,hasira,kumba","kumba","n","2","html-keyboard-response","229","f","kumbuka","false","",""
"2105.399999856949","","","","","2","html-slider-response","230","","","","1",""
"4796","snake","jansa,karon,pagtukod,mvringo","pagtukod","j","2","html-keyboard-response","231","j","pagtukod","true","",""
"1654.2000000476837","","","","","2","html-slider-response","232","","","","1",""
"5382","gift","baba,nyange,pagtawag,baso","pagtawag","j","2","html-keyboard-response","233","j","pagtawag","true","",""
"1492.7000000476837","","","","","2","html-slider-response","234","","","","4",""
"3959","train","itik,dakika,sayari,mungu","sayari","j","2","html-keyboard-response","235","v","dakika","false","",""
"1485.7000000476837","","","","","2","html-slider-response","236","","","","2",""
"4369","pudding","abug,mpishi,aibu,iring","aibu","j","2","html-keyboard-response","237","j","aibu","true","",""
"2016.1000001430511","","","","","2","html-slider-response","238","","","","2",""
"7669","tomato","chupi,mvua,chupa,takatak","mvua","v","2","html-keyboard-response","239","n","takatak","false","",""
"1731.7999999523163","","","","","2","html-slider-response","240","","","","1",""
"3471","stone","ulimwengu,mkasi,wingi,asili","wingi","j","2","html-keyboard-response","241","v","mkasi","false","",""
"2356.5","","","","","2","html-slider-response","242","","","","3",""
"4686","hammer","mekno,napakyas,kitovu,layag","napakyas","v","2","html-keyboard-response","243","j","kitovu","false","",""
"1878.4000000953674","","","","","2","html-slider-response","244","","","","2",""
"4298","knee","mvuke,kubale,duka,bili","duka","j","2","html-keyboard-response","245","j","duka","true","",""
"1901.4000000953674","","","","","2","html-slider-response","246","","","","4",""
"6570","ceiling","kugita,kawaida,rayna,maua","maua","n","2","html-keyboard-response","247","n","maua","true","",""
"1567.0999999046326","","","","","2","html-slider-response","248","","","","1",""
"2657","spoon","betri,nzuri,ngazi,pagsulod","pagsulod","n","2","html-keyboard-response","249","n","pagsulod","true","",""
"1705.6000001430511","","","","","2","html-slider-response","250","","","","4",""
"5442","marker","mapafu,salita,atay,maji","maji","n","2","html-keyboard-response","251","f","mapafu","false","",""
"2071.0999999046326","","","","","2","html-slider-response","252","","","","2",""
"2514","candle","gabi,farasi,geza,kupanda","geza","j","2","html-keyboard-response","253","j","geza","true","",""
"1383.2000000476837","","","","","2","html-slider-response","254","","","","4",""
"2676","tissue","lamigas,kisiwa,ugomvi,katika","ugomvi","j","2","html-keyboard-response","255","f","lamigas","false","",""
"1291.6000001430511","","","","","2","html-slider-response","256","","","","4",""
"2702","bridge","sahani,daima,ngono,panya","sahani","f","2","html-keyboard-response","257","f","sahani","true","",""
"1580.5","","","","","2","html-slider-response","258","","","","4",""
"4749","berry","abogado,kofia,nogozi,kinywa","kofia","v","2","html-keyboard-response","259","n","kinywa","false","",""
"1396.2999999523163","","","","","2","html-slider-response","260","","","","2",""
"5063","triangle","kihozi,bentaha,liog,kasadpan","kasadpan","n","2","html-keyboard-response","261","v","bentaha","false","",""
"1400.8999998569489","","","","","2","html-slider-response","262","","","","1",""
"2580","door","tena,soko,surali,nyota","surali","j","2","html-keyboard-response","263","j","surali","true","",""
"2045.2000000476837","","","","","2","html-slider-response","264","","","","3",""
"4859","fish","bala,buli,baho,imani","buli","v","2","html-keyboard-response","265","j","baho","false","",""
"1861.5","","","","","2","html-slider-response","266","","","","3",""
"4704","curtain","lisud,bulwawan,chubani,mchanga","mchanga","n","2","html-keyboard-response","267","j","chubani","false","",""
"2022.5","","","","","2","html-slider-response","268","","","","2",""
"4522","flag","ndege,mkate,trekta,kawa","trekta","j","2","html-keyboard-response","269","v","mkate","false","",""
"2798.600000143051","","","","","2","html-slider-response","270","","","","3",""
"3428","boat","hamsi,pombe,kitanda,agalon","agalon","n","2","html-keyboard-response","271","j","kitanda","false","",""
"1554.3000001907349","","","","","2","html-slider-response","272","","","","4",""
"5083","rose","singizi,mwanake,paghalad,amani","paghalad","j","2","html-keyboard-response","273","j","paghalad","true","",""
"1919.7999999523163","","","","","2","html-slider-response","274","","","","3",""
"4309","lamp","daub,bilaska,afya,mbolea","afya","j","2","html-keyboard-response","275","v","bilaska","false","",""
"1223.9000000953674","","","","","2","html-slider-response","276","","","","2",""
"4675","cigar","ndugu,kuta,mlango,adhabu","adhabu","n","2","html-keyboard-response","277","v","kuta","false","",""
"1283.5","","","","","2","html-slider-response","278","","","","1",""
"3643","list","alizeti,wingu,kuzama,kaso","wingu","v","2","html-keyboard-response","279","n","kaso","false","",""
"2090.5","","","","","2","html-slider-response","280","","","","4",""
"3714","sheet","juuya,watu,bililhon,kamantis","bililhon","j","2","html-keyboard-response","281","v","watu","false","",""
"1823.3999998569489","","","","","2","html-slider-response","282","","","","2",""
"2447","picture","silya,chaki,asin,kubwa","kubwa","n","2","html-keyboard-response","283","n","kubwa","true","",""
"1537.5","","","","","2","html-slider-response","284","","","","2",""
"3141","towel","pagpalit,tembo,funzi,pito","pagpalit","f","2","html-keyboard-response","285","j","funzi","false","",""
"1825.8999998569489","","","","","2","html-slider-response","286","","","","1",""
"3458","window","nanga,kujenga,umaga,kweli","kweli","n","2","html-keyboard-response","287","v","kujenga","false","",""
"1762.3999998569489","","","","","2","html-slider-response","288","","","","1",""
"2479","box","kuacha,rafiki,adui,kitande","adui","j","3","html-keyboard-response","305","n","kitande","false","","4"
"3987.300000190735","","","","","3","html-slider-response","306","","","","3",""
"null","","","","","3","html-keyboard-response","307","","","","",""
"2725","pants","pintal,chuki,hari,haki","haki","n","3","html-keyboard-response","308","v","chuki","false","","4"
"1969.7999999523163","","","","","3","html-slider-response","309","","","","1",""
"null","","","","","3","html-keyboard-response","310","","","","",""
"2625","cup","dagat,shimoni,jeraha,matumai","matumai","n","3","html-keyboard-response","311","j","jeraha","false","","4"
"2047.1000001430511","","","","","3","html-slider-response","312","","","","1",""
"null","","","","","3","html-keyboard-response","313","","","","",""
"3489","triangle","kihozi,bentaha,liog,kasadpan","kasadpan","n","3","html-keyboard-response","314","j","liog","false","","4"
"1987.1999998092651","","","","","3","html-slider-response","315","","","","1",""
"null","","","","","3","html-keyboard-response","316","","","","",""
"3058","curtain","lisud,mchanga,bulwawan,chubani","mchanga","v","3","html-keyboard-response","317","n","chubani","false","","4"
"2155.5","","","","","3","html-slider-response","318","","","","1",""
"null","","","","","3","html-keyboard-response","319","","","","",""
"2273","clock","kartasi,abang,osha,mbwa","mbwa","n","3","html-keyboard-response","320","n","mbwa","true","","4"
"2026.2999999523163","","","","","3","html-slider-response","321","","","","5",""
"null","","","","","3","html-keyboard-response","322","","","","",""
"2650","mirror","rangi,kanding,furaha,sulagma","sulagma","n","3","html-keyboard-response","323","j","furaha","false","","4"
"2402.7999999523163","","","","","3","html-slider-response","324","","","","3",""
"null","","","","","3","html-keyboard-response","325","","","","",""
"2813","coffin","barua,tubag,kioo,hulma","kioo","j","3","html-keyboard-response","326","j","kioo","true","","1"
"2289.2000000476837","","","","","3","html-slider-response","327","","","","5",""
"null","","","","","3","html-keyboard-response","328","","","","",""
"3909","magazine","gundi,mchawi,bahandi,kiti","kiti","n","3","html-keyboard-response","329","j","bahandi","false","","4"
"1796.3999998569489","","","","","3","html-slider-response","330","","","","4",""
"null","","","","","3","html-keyboard-response","331","","","","",""
"2684","column","pundok,dila,pala,ufagio","ufagio","n","3","html-keyboard-response","332","n","ufagio","true","","1"
"1998.8000001907349","","","","","3","html-slider-response","333","","","","5",""
"null","","","","","3","html-keyboard-response","334","","","","",""
"2709","number","shule,mundamo,kengele,choori","mundamo","v","3","html-keyboard-response","335","v","mundamo","true","","4"
"1608.1000001430511","","","","","3","html-slider-response","336","","","","4",""
"null","","","","","3","html-keyboard-response","337","","","","",""
"2504","rose","singizi,mwanake,paghalad,amani","paghalad","j","3","html-keyboard-response","338","j","paghalad","true","","4"
"1837.6000001430511","","","","","3","html-slider-response","339","","","","2",""
"null","","","","","3","html-keyboard-response","340","","","","",""
"2462","eel","ishara,msumari,kunywa,kabuang","msumari","v","3","html-keyboard-response","341","v","msumari","true","","4"
"1791","","","","","3","html-slider-response","342","","","","5",""
"null","","","","","3","html-keyboard-response","343","","","","",""
"3671","gift","baba,nyange,pagtawag,baso","pagtawag","j","3","html-keyboard-response","344","j","pagtawag","true","","4"
"2358.4000000953674","","","","","3","html-slider-response","345","","","","4",""
"null","","","","","3","html-keyboard-response","346","","","","",""
"1716","apple","kisu,ukame,estante,edad","kisu","f","3","html-keyboard-response","347","f","kisu","true","","1"
"1849.2000000476837","","","","","3","html-slider-response","348","","","","5",""
"null","","","","","3","html-keyboard-response","349","","","","",""
"2224","wheel","punda,tawo,baadaye,bafuni","bafuni","n","3","html-keyboard-response","350","n","bafuni","true","","1"
"2019.6000001430511","","","","","3","html-slider-response","351","","","","5",""
"null","","","","","3","html-keyboard-response","352","","","","",""
"3565","knee","duka,mvuke,kubale,bili","duka","f","3","html-keyboard-response","353","f","duka","true","","4"
"1706.6000001430511","","","","","3","html-slider-response","354","","","","4",""
"null","","","","","3","html-keyboard-response","355","","","","",""
"2836","basket","kumbuka,utepe,kumba,hasira","kumba","j","3","html-keyboard-response","356","j","kumba","true","","1"
"3258.9000000953674","","","","","3","html-slider-response","357","","","","5",""
"null","","","","","3","html-keyboard-response","358","","","","",""
"2363","park","bunifu,tambok,pwani,ihalas","bunifu","f","3","html-keyboard-response","359","f","bunifu","true","","4"
"1951.2999999523163","","","","","3","html-slider-response","360","","","","5",""
"null","","","","","3","html-keyboard-response","361","","","","",""
"4512","finger","moyo,simu,sufuria,lima","moyo","f","3","html-keyboard-response","362","n","lima","false","","4"
"1672.3000001907349","","","","","3","html-slider-response","363","","","","2",""
"null","","","","","3","html-keyboard-response","364","","","","",""
"2504","boat","hamsi,pombe,agalon,kitanda","agalon","j","3","html-keyboard-response","365","n","kitanda","false","","4"
"3083.2999999523163","","","","","3","html-slider-response","366","","","","3",""
"null","","","","","3","html-keyboard-response","367","","","","",""
"2626","hill","matumbo,kushoto,kukimba,sweta","matumbo","f","3","html-keyboard-response","368","j","kukimba","false","","4"
"1816","","","","","3","html-slider-response","369","","","","2",""
"null","","","","","3","html-keyboard-response","370","","","","",""
"2303","train","sayari,itik,dakika,mungu","sayari","f","3","html-keyboard-response","371","j","dakika","false","","4"
"2357.5","","","","","3","html-slider-response","372","","","","3",""
"null","","","","","3","html-keyboard-response","373","","","","",""
"3147","wolf","kaburi,lugha,ndizi,mchuzi","lugha","v","3","html-keyboard-response","374","v","lugha","true","","4"
"2388.4000000953674","","","","","3","html-slider-response","375","","","","3",""
"null","","","","","3","html-keyboard-response","376","","","","",""
"2977","snake","jansa,karon,pagtukod,mvringo","pagtukod","j","3","html-keyboard-response","377","j","pagtukod","true","","4"
"2003","","","","","3","html-slider-response","378","","","","3",""
"null","","","","","3","html-keyboard-response","379","","","","",""
"2808","tooth","kijiko,uadui,pahiyum,kabalaka","kabalaka","n","3","html-keyboard-response","380","f","kijiko","false","","4"
"1440.6999998092651","","","","","3","html-slider-response","381","","","","2",""
"null","","","","","3","html-keyboard-response","382","","","","",""
"2528","notebook","msitu,kila,mdudu,kemia","kemia","n","3","html-keyboard-response","383","v","kila","false","","4"
"1893.6000001430511","","","","","3","html-slider-response","384","","","","4",""
"null","","","","","3","html-keyboard-response","385","","","","",""
"3291","flag","ndege,trekta,mkate,kawa","trekta","v","3","html-keyboard-response","386","n","kawa","false","","4"
"3404.5999999046326","","","","","3","html-slider-response","387","","","","2",""
"null","","","","","3","html-keyboard-response","388","","","","",""
"2920","squirrel","hofu,mahugaw,ukweli,kichwa","hofu","f","3","html-keyboard-response","389","v","mahugaw","false","","4"
"1684.8999998569489","","","","","3","html-slider-response","390","","","","2",""
"null","","","","","3","html-keyboard-response","391","","","","",""
"3768","door","tena,soko,nyota,surali","surali","n","3","html-keyboard-response","392","f","tena","false","","4"
"2738.0999999046326","","","","","3","html-slider-response","393","","","","3",""
"null","","","","","3","html-keyboard-response","394","","","","",""
"2203","salmon","mzungu,seri,sensilyo,baharia","sensilyo","j","3","html-keyboard-response","395","j","sensilyo","true","","4"
"1633.0999999046326","","","","","3","html-slider-response","396","","","","5",""
"null","","","","","3","html-keyboard-response","397","","","","",""
"4394","shoulder","mkuu,kelele,ndaniya,guruwe","mkuu","f","3","html-keyboard-response","398","v","kelele","false","","4"
"2583.2000000476837","","","","","3","html-slider-response","399","","","","3",""
"null","","","","","3","html-keyboard-response","400","","","","",""
"4827","lamp","daub,bilaska,afya,mbolea","afya","j","3","html-keyboard-response","401","j","afya","true","","4"
"1566.0999999046326","","","","","3","html-slider-response","402","","","","2",""
"null","","","","","3","html-keyboard-response","403","","","","",""
"2110","shelf","pamahaw,bungtod,kadaot,awit","pamahaw","f","3","html-keyboard-response","404","f","pamahaw","true","","1"
"2911.4000000953674","","","","","3","html-slider-response","405","","","","5",""
"null","","","","","3","html-keyboard-response","406","","","","",""
"4199","human","bado,kikapu,tinapay,punguza","tinapay","j","3","html-keyboard-response","407","n","punguza","false","","4"
"2305.5999999046326","","","","","3","html-slider-response","408","","","","3",""
"null","","","","","3","html-keyboard-response","409","","","","",""
"5384","towel","tembo,pagpalit,funzi,pito","pagpalit","v","3","html-keyboard-response","410","f","tembo","false","","4"
"1871","","","","","3","html-slider-response","411","","","","2",""
"null","","","","","3","html-keyboard-response","412","","","","",""
"4913","cat","neyemba,baki,paghukom,akili","paghukom","j","3","html-keyboard-response","413","j","paghukom","true","","4"
"2719.2999999523163","","","","","3","html-slider-response","414","","","","3",""
"null","","","","","3","html-keyboard-response","415","","","","",""
"4297","spider","kamwe,bunyag,mkboa,atop","kamwe","f","3","html-keyboard-response","416","v","bunyag","false","","4"
"1515.2000000476837","","","","","3","html-slider-response","417","","","","2",""
"null","","","","","3","html-keyboard-response","418","","","","",""
"3256","window","nanga,kujenga,umaga,kweli","kweli","n","3","html-keyboard-response","419","v","kujenga","false","","4"
"2044.5","","","","","3","html-slider-response","420","","","","1",""
"null","","","","","3","html-keyboard-response","421","","","","",""
"2914","woman","bandari,bituin,pagtabon,kovuli","pagtabon","j","3","html-keyboard-response","422","j","pagtabon","true","","1"
"3373.2000000476837","","","","","3","html-slider-response","423","","","","5",""
"null","","","","","3","html-keyboard-response","424","","","","",""
"3564","giraffe","daraja,jumatu,hangyo,mahitabo","mahitabo","n","3","html-keyboard-response","425","n","mahitabo","true","","4"
"2160.199999809265","","","","","3","html-slider-response","426","","","","1",""
"null","","","","","3","html-keyboard-response","427","","","","",""
"2255","elephant","petye,pagduol,kito,suka","kito","j","3","html-keyboard-response","428","j","kito","true","","4"
"2579.7999999523163","","","","","3","html-slider-response","429","","","","2",""
"null","","","","","3","html-keyboard-response","430","","","","",""
"3203","cave","ganti,maisha,kesho,nyundo","kesho","j","3","html-keyboard-response","431","n","nyundo","false","","4"
"2110.5999999046326","","","","","3","html-slider-response","432","","","","2",""
"null","","","","","3","html-keyboard-response","433","","","","",""
"1956","bread","kaili,dizeli,dari,bugas","dari","j","3","html-keyboard-response","434","j","dari","true","","4"
"1566.1999998092651","","","","","3","html-slider-response","435","","","","5",""
"null","","","","","3","html-keyboard-response","436","","","","",""
"3164","stone","wingi,ulimwengu,mkasi,asili","wingi","f","3","html-keyboard-response","437","j","mkasi","false","","4"
"1679.1000001430511","","","","","3","html-slider-response","438","","","","2",""
"null","","","","","3","html-keyboard-response","439","","","","",""
"3809","donkey","bloke,lalake,rombus,elfu","elfu","n","3","html-keyboard-response","440","v","lalake","false","","4"
"1613.6999998092651","","","","","3","html-slider-response","441","","","","2",""
"null","","","","","3","html-keyboard-response","442","","","","",""
"2478","bridge","daima,ngono,sahani,panya","sahani","j","3","html-keyboard-response","443","j","sahani","true","","4"
"1355.4000000953674","","","","","3","html-slider-response","444","","","","4",""
"null","","","","","3","html-keyboard-response","445","","","","",""
"3755","bonfire","mwezi,mfuko,kusanya,goti","goti","n","3","html-keyboard-response","446","j","kusanya","false","","4"
"2407.0999999046326","","","","","3","html-slider-response","447","","","","3",""
"null","","","","","3","html-keyboard-response","448","","","","",""
"3885","book","mali,kuhesa,picha,mara","mali","f","3","html-keyboard-response","449","v","kuhesa","false","","4"
"2501.2999999523163","","","","","3","html-slider-response","450","","","","4",""
"null","","","","","3","html-keyboard-response","451","","","","",""
"4014","fish","bala,buli,baho,imani","buli","v","3","html-keyboard-response","452","j","baho","false","","4"
"2890.0999999046326","","","","","3","html-slider-response","453","","","","3",""
"null","","","","","3","html-keyboard-response","454","","","","",""
"2175","spoon","pagsulod,betri,nzuri,ngazi","pagsulod","f","3","html-keyboard-response","455","f","pagsulod","true","","4"
"1655.3999998569489","","","","","3","html-slider-response","456","","","","5",""
"null","","","","","3","html-keyboard-response","457","","","","",""
"2176","scissors","duga,mtawa,tanuri,suga","tanuri","j","3","html-keyboard-response","458","v","mtawa","false","","4"
"2580.5999999046326","","","","","3","html-slider-response","459","","","","3",""
"null","","","","","3","html-keyboard-response","460","","","","",""
"6419","page","wakala,wimbo,ishiri,skina","wimbo","v","3","html-keyboard-response","461","j","ishiri","false","","4"
"2190","","","","","3","html-slider-response","462","","","","3",""
"null","","","","","3","html-keyboard-response","463","","","","",""
"1700","nose","gubat,kopa,kidole,sehemu","sehemu","n","3","html-keyboard-response","464","n","sehemu","true","","1"
"2343.600000143051","","","","","3","html-slider-response","465","","","","5",""
"null","","","","","3","html-keyboard-response","466","","","","",""
"4127","ceiling","kugita,maua,kawaida,rayna","maua","v","3","html-keyboard-response","467","j","kawaida","false","","4"
"2027.5999999046326","","","","","3","html-slider-response","468","","","","4",""
"null","","","","","3","html-keyboard-response","469","","","","",""
"4959","bucket","kiatu,baga,ijayo,init","kiatu","f","3","html-keyboard-response","470","f","kiatu","true","","4"
"1595.7999999523163","","","","","3","html-slider-response","471","","","","2",""
"null","","","","","3","html-keyboard-response","472","","","","",""
"2199","berry","abogado,kofia,nogozi,kinywa","kofia","v","3","html-keyboard-response","473","v","kofia","true","","1"
"1859.8999998569489","","","","","3","html-slider-response","474","","","","5",""
"null","","","","","3","html-keyboard-response","475","","","","",""
"2135","mother","babaye,kahawa,mbuzi,jokofu","babaye","f","3","html-keyboard-response","476","f","babaye","true","","1"
"1748.5999999046326","","","","","3","html-slider-response","477","","","","5",""
"null","","","","","3","html-keyboard-response","478","","","","",""
"2287","mosquito","isda,taras,martilyo,gutom","martilyo","j","3","html-keyboard-response","479","j","martilyo","true","","4"
"2555.7000000476837","","","","","3","html-slider-response","480","","","","4",""
"null","","","","","3","html-keyboard-response","481","","","","",""
"3692","perfume","bino,katuyoan,sungura,ndogo","katuyoan","v","3","html-keyboard-response","482","j","sungura","false","","4"
"1524.5","","","","","3","html-slider-response","483","","","","2",""
"null","","","","","3","html-keyboard-response","484","","","","",""
"4110","sheet","juuya,bililhon,watu,kamantis","bililhon","v","3","html-keyboard-response","485","j","watu","false","","4"
"2007.5999999046326","","","","","3","html-slider-response","486","","","","3",""
"null","","","","","3","html-keyboard-response","487","","","","",""
"1621","puppet","napulo,lamok,mazishi,godoro","mazishi","j","3","html-keyboard-response","488","j","mazishi","true","","1"
"1804.7999999523163","","","","","3","html-slider-response","489","","","","5",""
"null","","","","","3","html-keyboard-response","490","","","","",""
"4812","poster","nchi,fedha,madungog,kasuko","madungog","j","3","html-keyboard-response","491","j","madungog","true","","4"
"1844.3999998569489","","","","","3","html-slider-response","492","","","","2",""
"null","","","","","3","html-keyboard-response","493","","","","",""
"3059","music","mraba,mageho,tumbo,baiski","baiski","n","3","html-keyboard-response","494","n","baiski","true","","4"
"1674.8000001907349","","","","","3","html-slider-response","495","","","","5",""
"null","","","","","3","html-keyboard-response","496","","","","",""
"3833","key","miaka,goma,chombo,ahos","chombo","j","3","html-keyboard-response","497","f","miaka","false","","4"
"1763.6000001430511","","","","","3","html-slider-response","498","","","","2",""
"null","","","","","3","html-keyboard-response","499","","","","",""
"3047","sock","mamba,ndoora,kimysa,mtirka","mamba","f","3","html-keyboard-response","500","j","kimysa","false","","4"
"1455.5","","","","","3","html-slider-response","501","","","","2",""
"null","","","","","3","html-keyboard-response","502","","","","",""
"2808","marker","mapafu,salita,atay,maji","maji","n","3","html-keyboard-response","503","j","atay","false","","4"
"1381.6000001430511","","","","","3","html-slider-response","504","","","","2",""
"null","","","","","3","html-keyboard-response","505","","","","",""
"1778","office","hazini,yatima,leso,kuna","leso","j","3","html-keyboard-response","506","j","leso","true","","4"
"1943.7999999523163","","","","","3","html-slider-response","507","","","","4",""
"null","","","","","3","html-keyboard-response","508","","","","",""
"2388","shoe","nyeusi,hatua,kama,uyoga","uyoga","n","3","html-keyboard-response","509","n","uyoga","true","","4"
"1637.5999999046326","","","","","3","html-slider-response","510","","","","5",""
"null","","","","","3","html-keyboard-response","511","","","","",""
"5136","cop","mechezo,bustani,jikoni,bakus","mechezo","f","3","html-keyboard-response","512","f","mechezo","true","","4"
"1510.7000000476837","","","","","3","html-slider-response","513","","","","2",""
"null","","","","","3","html-keyboard-response","514","","","","",""
"3903","bank","kudhibi,tualya,ofisi,silingan","silingan","n","3","html-keyboard-response","515","n","silingan","true","","4"
"1917.2000000476837","","","","","3","html-slider-response","516","","","","4",""
"null","","","","","3","html-keyboard-response","517","","","","",""
"4853","letter","filimbi,chuma,kifua,uhuru","kifua","j","3","html-keyboard-response","518","j","kifua","true","","1"
"1623.9000000953674","","","","","3","html-slider-response","519","","","","5",""
"null","","","","","3","html-keyboard-response","520","","","","",""
"1563","dog","lubi,washia,bahari,kalamu","bahari","j","3","html-keyboard-response","521","j","bahari","true","","1"
"2077.2999999523163","","","","","3","html-slider-response","522","","","","5",""
"null","","","","","3","html-keyboard-response","523","","","","",""
"2697","shop","nopya,samaki,kerida,ndezu","samaki","v","3","html-keyboard-response","524","v","samaki","true","","4"
"1789.7000000476837","","","","","3","html-slider-response","525","","","","2",""
"null","","","","","3","html-keyboard-response","526","","","","",""
"3675","flower","tamasha,bega,lobo,usiku","bega","v","3","html-keyboard-response","527","j","lobo","false","","4"
"2200.2999999523163","","","","","3","html-slider-response","528","","","","3",""
"null","","","","","3","html-keyboard-response","529","","","","",""
"2547","cigar","ndugu,kuta,mlango,adhabu","adhabu","n","3","html-keyboard-response","530","n","adhabu","true","","1"
"1997.3999998569489","","","","","3","html-slider-response","531","","","","5",""
"null","","","","","3","html-keyboard-response","532","","","","",""
"4430","hammer","mekno,napakyas,kitovu,layag","napakyas","v","3","html-keyboard-response","533","v","napakyas","true","","4"
"1757.8999998569489","","","","","3","html-slider-response","534","","","","1",""
"null","","","","","3","html-keyboard-response","535","","","","",""
"3247","fork","baboy,paghago,gorisi,mgonjwa","mgonjwa","n","3","html-keyboard-response","536","v","paghago","false","","4"
"1752.5","","","","","3","html-slider-response","537","","","","4",""
"null","","","","","3","html-keyboard-response","538","","","","",""
"2034","sun","bendi,luha,basi,uongo","basi","j","3","html-keyboard-response","539","j","basi","true","","1"
"1445.2000000476837","","","","","3","html-slider-response","540","","","","5",""
"null","","","","","3","html-keyboard-response","541","","","","",""
"4456","ladder","mashua,pangalan,mwanga,kamba","pangalan","v","3","html-keyboard-response","542","n","kamba","false","","4"
"1403.5","","","","","3","html-slider-response","543","","","","1",""
"null","","","","","3","html-keyboard-response","544","","","","",""
"2216","banana","kazi,kasamok,hagdan,twai","kazi","f","3","html-keyboard-response","545","f","kazi","true","","1"
"1460.2000000476837","","","","","3","html-slider-response","546","","","","5",""
"null","","","","","3","html-keyboard-response","547","","","","",""
"4004","pudding","aibu,abug,mpishi,iring","aibu","f","3","html-keyboard-response","548","f","aibu","true","","4"
"1986.8999998569489","","","","","3","html-slider-response","549","","","","2",""
"null","","","","","3","html-keyboard-response","550","","","","",""
"4331","body","tindashan,nyundu,jibini,kununa","tindashan","f","3","html-keyboard-response","551","f","tindashan","true","","4"
"1523.4000000953674","","","","","3","html-slider-response","552","","","","5",""
"null","","","","","3","html-keyboard-response","553","","","","",""
"6653","bed","kalipay,haraka,mapintas,starehe","mapintas","j","3","html-keyboard-response","554","j","mapintas","true","","4"
"1867.7999999523163","","","","","3","html-slider-response","555","","","","3",""
"null","","","","","3","html-keyboard-response","556","","","","",""
"4718","tissue","lamigas,kisiwa,ugomvi,katika","ugomvi","j","3","html-keyboard-response","557","v","kisiwa","false","","4"
"1307","","","","","3","html-slider-response","558","","","","2",""
"null","","","","","3","html-keyboard-response","559","","","","",""
"3728","candle","gabi,geza,farasi,kupanda","geza","v","3","html-keyboard-response","560","j","farasi","false","","4"
"1718","","","","","3","html-slider-response","561","","","","2",""
"null","","","","","3","html-keyboard-response","562","","","","",""
"1922","tomato","chupi,chupa,mvua,takatak","mvua","j","3","html-keyboard-response","563","j","mvua","true","","1"
"1797.5","","","","","3","html-slider-response","564","","","","5",""
"null","","","","","3","html-keyboard-response","565","","","","",""
"3257","list","alizeti,kuzama,kaso,wingu","wingu","n","3","html-keyboard-response","566","n","wingu","true","","4"
"2181.399999856949","","","","","3","html-slider-response","567","","","","4",""
"null","","","","","3","html-keyboard-response","568","","","","",""
"5120","olive","jiwe,bata,siagi,welder","jiwe","f","3","html-keyboard-response","569","v","bata","false","","4"
"2039","","","","","3","html-slider-response","570","","","","1",""
"null","","","","","3","html-keyboard-response","571","","","","",""
"2129","picture","silya,kubwa,chaki,asin","kubwa","v","3","html-keyboard-response","572","v","kubwa","true","","1"
"1514.3999998569489","","","","","3","html-slider-response","573","","","","5",""
"null","","","","","3","html-keyboard-response","574","","","","",""
