"rt","en_word","options","swa_word","correct_answer","phase","trial_type","trial_index","input_answer","input_word","accuracy","certainty","amt_choices"
"6858","bonfire","mwezi,goti,mfuko,kusanya","goti","v","2","html-keyboard-response","119","v","goti","true","",""
"6733.400000095367","","","","","2","html-slider-response","120","","","","3",""
"4804","flower","tamasha,lobo,usiku,bega","bega","n","2","html-keyboard-response","121","n","bega","true","",""
"5621.899999856949","","","","","2","html-slider-response","122","","","","3",""
"8502","column","pundok,dila,ufagio,pala","ufagio","j","2","html-keyboard-response","123","f","pundok","false","",""
"2276.7999999523163","","","","","2","html-slider-response","124","","","","1",""
"6176","music","baiski,mraba,mageho,tumbo","baiski","f","2","html-keyboard-response","125","f","baiski","true","",""
"2766.5","","","","","2","html-slider-response","126","","","","4",""
"5772","spider","bunyag,mkboa,kamwe,atop","kamwe","j","2","html-keyboard-response","127","j","kamwe","true","",""
"2614.7000000476837","","","","","2","html-slider-response","128","","","","3",""
"7542","fork","baboy,mgonjwa,paghago,gorisi","mgonjwa","v","2","html-keyboard-response","129","v","mgonjwa","true","",""
"2250.100000143051","","","","","2","html-slider-response","130","","","","1",""
"3886","mosquito","martilyo,isda,taras,gutom","martilyo","f","2","html-keyboard-response","131","f","martilyo","true","",""
"1895.9000000953674","","","","","2","html-slider-response","132","","","","5",""
"3063","banana","kasamok,hagdan,kazi,twai","kazi","j","2","html-keyboard-response","133","j","kazi","true","",""
"1833","","","","","2","html-slider-response","134","","","","5",""
"4820","cup","dagat,matumai,shimoni,jeraha","matumai","v","2","html-keyboard-response","135","j","shimoni","false","",""
"1797.1000001430511","","","","","2","html-slider-response","136","","","","2",""
"2764","shop","nopya,kerida,ndezu,samaki","samaki","n","2","html-keyboard-response","137","n","samaki","true","",""
"1856.2000000476837","","","","","2","html-slider-response","138","","","","5",""
"5809","elephant","petye,pagduol,kito,suka","kito","j","2","html-keyboard-response","139","j","kito","true","",""
"2756.5","","","","","2","html-slider-response","140","","","","3",""
"5892","bucket","kiatu,baga,ijayo,init","kiatu","f","2","html-keyboard-response","141","v","baga","false","",""
"3134.600000143051","","","","","2","html-slider-response","142","","","","3",""
"5169","book","kuhesa,mali,picha,mara","mali","v","2","html-keyboard-response","143","j","picha","false","",""
"1910.2000000476837","","","","","2","html-slider-response","144","","","","2",""
"4544","mirror","sulagma,rangi,kanding,furaha","sulagma","f","2","html-keyboard-response","145","f","sulagma","true","",""
"3740","","","","","2","html-slider-response","146","","","","3",""
"4058","office","hazini,yatima,leso,kuna","leso","j","2","html-keyboard-response","147","j","leso","true","",""
"2638.300000190735","","","","","2","html-slider-response","148","","","","3",""
"9071","body","nyundu,tindashan,jibini,kununa","tindashan","v","2","html-keyboard-response","149","n","kununa","false","",""
"1953.5","","","","","2","html-slider-response","150","","","","1",""
"6464","perfume","bino,sungura,ndogo,katuyoan","katuyoan","n","2","html-keyboard-response","151","n","katuyoan","true","",""
"3115.899999856949","","","","","2","html-slider-response","152","","","","3",""
"3919","olive","bata,siagi,welder,jiwe","jiwe","n","2","html-keyboard-response","153","n","jiwe","true","",""
"1642.7999999523163","","","","","2","html-slider-response","154","","","","4",""
"3924","magazine","gundi,mchawi,kiti,bahandi","kiti","j","2","html-keyboard-response","155","j","kiti","true","",""
"1487.4000000953674","","","","","2","html-slider-response","156","","","","4",""
"6154","bread","kaili,dari,dizeli,bugas","dari","v","2","html-keyboard-response","157","v","dari","true","",""
"1446","","","","","2","html-slider-response","158","","","","2",""
"6650","cave","ganti,kesho,maisha,nyundo","kesho","v","2","html-keyboard-response","159","v","kesho","true","",""
"1954.2999999523163","","","","","2","html-slider-response","160","","","","1",""
"3030","ladder","mashua,mwanga,pangalan,kamba","pangalan","j","2","html-keyboard-response","161","j","pangalan","true","",""
"1671.6999998092651","","","","","2","html-slider-response","162","","","","2",""
"5249","human","bado,kikapu,punguza,tinapay","tinapay","n","2","html-keyboard-response","163","j","punguza","false","",""
"1868.3000001907349","","","","","2","html-slider-response","164","","","","1",""
"2953","clock","kartasi,abang,osha,mbwa","mbwa","n","2","html-keyboard-response","165","n","mbwa","true","",""
"1705.1999998092651","","","","","2","html-slider-response","166","","","","5",""
"5253","shelf","bungtod,kadaot,pamahaw,awit","pamahaw","j","2","html-keyboard-response","167","j","pamahaw","true","",""
"4832.899999856949","","","","","2","html-slider-response","168","","","","3",""
"4313","salmon","mzungu,seri,baharia,sensilyo","sensilyo","n","2","html-keyboard-response","169","n","sensilyo","true","",""
"1818.7000000476837","","","","","2","html-slider-response","170","","","","4",""
"2966","coffin","kioo,barua,tubag,hulma","kioo","f","2","html-keyboard-response","171","f","kioo","true","",""
"1742.2000000476837","","","","","2","html-slider-response","172","","","","5",""
"2592","notebook","msitu,kila,kemia,mdudu","kemia","j","2","html-keyboard-response","173","j","kemia","true","",""
"1681.0999999046326","","","","","2","html-slider-response","174","","","","1",""
"2934","shoulder","kelele,ndaniya,mkuu,guruwe","mkuu","j","2","html-keyboard-response","175","v","ndaniya","false","",""
"1622.4000000953674","","","","","2","html-slider-response","176","","","","1",""
"2570","park","tambok,bunifu,pwani,ihalas","bunifu","v","2","html-keyboard-response","177","j","pwani","false","",""
"1420.0999999046326","","","","","2","html-slider-response","178","","","","2",""
"3817","number","mundamo,shule,kengele,choori","mundamo","f","2","html-keyboard-response","179","f","mundamo","true","",""
"1611.2999999523163","","","","","2","html-slider-response","180","","","","5",""
"3162","apple","ukame,estante,edad,kisu","kisu","n","2","html-keyboard-response","181","n","kisu","true","",""
"1706.2000000476837","","","","","2","html-slider-response","182","","","","2",""
"2866","letter","filimbi,kifua,chuma,uhuru","kifua","v","2","html-keyboard-response","183","n","uhuru","false","",""
"2262.2999999523163","","","","","2","html-slider-response","184","","","","1",""
"4891","eel","ishara,kunywa,msumari,kabuang","msumari","j","2","html-keyboard-response","185","j","msumari","true","",""
"1739","","","","","2","html-slider-response","186","","","","1",""
"4970","cop","bustani,mechezo,jikoni,bakus","mechezo","v","2","html-keyboard-response","187","n","bakus","false","",""
"2200.2999999523163","","","","","2","html-slider-response","188","","","","1",""
"3991","wolf","kaburi,lugha,ndizi,mchuzi","lugha","v","2","html-keyboard-response","189","n","mchuzi","false","",""
"2260.2000000476837","","","","","2","html-slider-response","190","","","","1",""
"4616","squirrel","mahugaw,ukweli,hofu,kichwa","hofu","j","2","html-keyboard-response","191","v","ukweli","false","",""
"1573.6000001430511","","","","","2","html-slider-response","192","","","","1",""
"4149","nose","gubat,kopa,kidole,sehemu","sehemu","n","2","html-keyboard-response","193","j","kidole","false","",""
"1670.3999998569489","","","","","2","html-slider-response","194","","","","1",""
"3305","sock","mamba,ndoora,kimysa,mtirka","mamba","f","2","html-keyboard-response","195","v","ndoora","false","",""
"1869.1000001430511","","","","","2","html-slider-response","196","","","","1",""
"2550","bank","kudhibi,tualya,ofisi,silingan","silingan","n","2","html-keyboard-response","197","n","silingan","true","",""
"1730.7000000476837","","","","","2","html-slider-response","198","","","","1",""
"4506","donkey","bloke,lalake,elfu,rombus","elfu","j","2","html-keyboard-response","199","j","elfu","true","",""
"2702.2999999523163","","","","","2","html-slider-response","200","","","","3",""
"6988","poster","nchi,fedha,madungog,kasuko","madungog","j","2","html-keyboard-response","201","f","nchi","false","",""
"1546.5","","","","","2","html-slider-response","202","","","","1",""
"1882","puppet","napulo,mazishi,lamok,godoro","mazishi","v","2","html-keyboard-response","203","f","napulo","false","",""
"1545.5999999046326","","","","","2","html-slider-response","204","","","","1",""
"3349","hill","matumbo,kushoto,kukimba,sweta","matumbo","f","2","html-keyboard-response","205","j","kukimba","false","",""
"3200.7999999523163","","","","","2","html-slider-response","206","","","","1",""
"10616","tooth","kabalaka,kijiko,uadui,pahiyum","kabalaka","f","2","html-keyboard-response","207","j","uadui","false","",""
"1663.7000000476837","","","","","2","html-slider-response","208","","","","2",""
"5589","woman","bandari,bituin,pagtabon,kovuli","pagtabon","j","2","html-keyboard-response","209","f","bandari","false","",""
"1598.8000001907349","","","","","2","html-slider-response","210","","","","2",""
"11179","wheel","punda,tawo,baadaye,bafuni","bafuni","n","2","html-keyboard-response","211","n","bafuni","true","",""
"1635.7000000476837","","","","","2","html-slider-response","212","","","","2",""
"3922","mother","kahawa,mbuzi,jokofu,babaye","babaye","n","2","html-keyboard-response","213","n","babaye","true","",""
"2580.199999809265","","","","","2","html-slider-response","214","","","","5",""
"4026","bed","kalipay,haraka,mapintas,starehe","mapintas","j","2","html-keyboard-response","215","f","kalipay","false","",""
"2203.5","","","","","2","html-slider-response","216","","","","1",""
"3758","key","miaka,goma,ahos,chombo","chombo","n","2","html-keyboard-response","217","v","goma","false","",""
"2388.4000000953674","","","","","2","html-slider-response","218","","","","3",""
"2595","page","wimbo,wakala,ishiri,skina","wimbo","f","2","html-keyboard-response","219","f","wimbo","true","",""
"3313.199999809265","","","","","2","html-slider-response","220","","","","3",""
"4440","pants","haki,pintal,chuki,hari","haki","f","2","html-keyboard-response","221","v","pintal","false","",""
"1662.2000000476837","","","","","2","html-slider-response","222","","","","1",""
"4156","sun","basi,bendi,luha,uongo","basi","f","2","html-keyboard-response","223","j","luha","false","",""
"3487.7999999523163","","","","","2","html-slider-response","224","","","","3",""
"5016","finger","simu,sufuria,moyo,lima","moyo","j","2","html-keyboard-response","225","f","simu","false","",""
"2797.600000143051","","","","","2","html-slider-response","226","","","","3",""
"4927","shoe","nyeusi,uyoga,hatua,kama","uyoga","v","2","html-keyboard-response","227","v","uyoga","true","",""
"2593.7999999523163","","","","","2","html-slider-response","228","","","","3",""
"3604","giraffe","daraja,jumatu,hangyo,mahitabo","mahitabo","n","2","html-keyboard-response","229","v","jumatu","false","",""
"3426.100000143051","","","","","2","html-slider-response","230","","","","3",""
"5470","dog","lubi,washia,kalamu,bahari","bahari","n","2","html-keyboard-response","231","n","bahari","true","",""
"2288.5","","","","","2","html-slider-response","232","","","","3",""
"4974","box","kuacha,rafiki,adui,kitande","adui","j","2","html-keyboard-response","233","n","kitande","false","",""
"1924.2000000476837","","","","","2","html-slider-response","234","","","","2",""
"2331","scissors","tanuri,duga,mtawa,suga","tanuri","f","2","html-keyboard-response","235","n","suga","false","",""
"2062.7000000476837","","","","","2","html-slider-response","236","","","","2",""
"3576","cat","neyemba,baki,paghukom,akili","paghukom","j","2","html-keyboard-response","237","j","paghukom","true","",""
"5794.100000143051","","","","","2","html-slider-response","238","","","","3",""
"3732","basket","kumbuka,utepe,kumba,hasira","kumba","j","2","html-keyboard-response","239","f","kumbuka","false","",""
"4608.700000047684","","","","","2","html-slider-response","240","","","","3",""
"4301","snake","jansa,pagtukod,karon,mvringo","pagtukod","v","2","html-keyboard-response","241","v","pagtukod","true","",""
"1694.2999999523163","","","","","2","html-slider-response","242","","","","4",""
"4895","gift","baba,nyange,pagtawag,baso","pagtawag","j","2","html-keyboard-response","243","n","baso","false","",""
"4558.599999904633","","","","","2","html-slider-response","244","","","","3",""
"3739","train","itik,sayari,dakika,mungu","sayari","v","2","html-keyboard-response","245","f","itik","false","",""
"1517.2999999523163","","","","","2","html-slider-response","246","","","","2",""
"3557","pudding","abug,mpishi,aibu,iring","aibu","j","2","html-keyboard-response","247","v","mpishi","false","",""
"1767.3999998569489","","","","","2","html-slider-response","248","","","","1",""
"3535","tomato","chupi,chupa,mvua,takatak","mvua","j","2","html-keyboard-response","249","n","takatak","false","",""
"1525.7999999523163","","","","","2","html-slider-response","250","","","","2",""
"2797","stone","wingi,ulimwengu,mkasi,asili","wingi","f","2","html-keyboard-response","251","f","wingi","true","",""
"1587.7999999523163","","","","","2","html-slider-response","252","","","","2",""
"3487","hammer","mekno,kitovu,napakyas,layag","napakyas","j","2","html-keyboard-response","253","f","mekno","false","",""
"1430.5999999046326","","","","","2","html-slider-response","254","","","","1",""
"3343","knee","mvuke,kubale,bili,duka","duka","n","2","html-keyboard-response","255","j","bili","false","",""
"1391.2999999523163","","","","","2","html-slider-response","256","","","","2",""
"2852","ceiling","kugita,kawaida,maua,rayna","maua","j","2","html-keyboard-response","257","v","kawaida","false","",""
"1941.5","","","","","2","html-slider-response","258","","","","1",""
"3804","spoon","pagsulod,betri,nzuri,ngazi","pagsulod","f","2","html-keyboard-response","259","j","nzuri","false","",""
"1715.7000000476837","","","","","2","html-slider-response","260","","","","1",""
"3263","marker","maji,mapafu,salita,atay","maji","f","2","html-keyboard-response","261","f","maji","true","",""
"1501.6999998092651","","","","","2","html-slider-response","262","","","","2",""
"5416","candle","gabi,farasi,kupanda,geza","geza","n","2","html-keyboard-response","263","j","kupanda","false","",""
"2257.2999999523163","","","","","2","html-slider-response","264","","","","2",""
"4567","tissue","lamigas,ugomvi,kisiwa,katika","ugomvi","v","2","html-keyboard-response","265","j","kisiwa","false","",""
"2598.2999999523163","","","","","2","html-slider-response","266","","","","1",""
"3020","bridge","sahani,daima,ngono,panya","sahani","f","2","html-keyboard-response","267","v","daima","false","",""
"1676.5","","","","","2","html-slider-response","268","","","","1",""
"2777","berry","abogado,nogozi,kinywa,kofia","kofia","n","2","html-keyboard-response","269","n","kofia","true","",""
"1602.0999999046326","","","","","2","html-slider-response","270","","","","1",""
"3010","triangle","kihozi,bentaha,liog,kasadpan","kasadpan","n","2","html-keyboard-response","271","v","bentaha","false","",""
"1859","","","","","2","html-slider-response","272","","","","1",""
"2096","door","tena,soko,surali,nyota","surali","j","2","html-keyboard-response","273","v","soko","false","",""
"2010","","","","","2","html-slider-response","274","","","","1",""
"3589","fish","buli,bala,baho,imani","buli","f","2","html-keyboard-response","275","j","baho","false","",""
"2000.1999998092651","","","","","2","html-slider-response","276","","","","1",""
"10381","curtain","lisud,mchanga,bulwawan,chubani","mchanga","v","2","html-keyboard-response","277","j","bulwawan","false","",""
"1989.7000000476837","","","","","2","html-slider-response","278","","","","1",""
"2646","flag","ndege,trekta,mkate,kawa","trekta","v","2","html-keyboard-response","279","f","ndege","false","",""
"1777.5999999046326","","","","","2","html-slider-response","280","","","","1",""
"2402","boat","agalon,hamsi,pombe,kitanda","agalon","f","2","html-keyboard-response","281","j","pombe","false","",""
"1642.6000001430511","","","","","2","html-slider-response","282","","","","1",""
"2674","rose","singizi,paghalad,mwanake,amani","paghalad","v","2","html-keyboard-response","283","n","amani","false","",""
"3168.9000000953674","","","","","2","html-slider-response","284","","","","1",""
"2358","lamp","daub,bilaska,afya,mbolea","afya","j","2","html-keyboard-response","285","f","daub","false","",""
"1614.7999999523163","","","","","2","html-slider-response","286","","","","1",""
"3498","cigar","adhabu,ndugu,kuta,mlango","adhabu","f","2","html-keyboard-response","287","v","ndugu","false","",""
"2364.100000143051","","","","","2","html-slider-response","288","","","","3",""
"5927","list","alizeti,wingu,kuzama,kaso","wingu","v","2","html-keyboard-response","289","v","wingu","true","",""
"2235.100000143051","","","","","2","html-slider-response","290","","","","3",""
"3402","sheet","bililhon,juuya,watu,kamantis","bililhon","f","2","html-keyboard-response","291","n","kamantis","false","",""
"1794.5999999046326","","","","","2","html-slider-response","292","","","","2",""
"2804","picture","silya,chaki,kubwa,asin","kubwa","j","2","html-keyboard-response","293","j","kubwa","true","",""
"1242.9000000953674","","","","","2","html-slider-response","294","","","","2",""
"3694","towel","tembo,funzi,pagpalit,pito","pagpalit","j","2","html-keyboard-response","295","n","pito","false","",""
"1258.2999999523163","","","","","2","html-slider-response","296","","","","2",""
"1839","window","nanga,kweli,kujenga,umaga","kweli","v","2","html-keyboard-response","297","j","kujenga","false","",""
"2274.2999999523163","","","","","2","html-slider-response","298","","","","2",""
"3520","box","adui,kuacha,rafiki,kitande","adui","f","3","html-keyboard-response","315","v","kuacha","false","","4"
"1681.1999998092651","","","","","3","html-slider-response","316","","","","1",""
"null","","","","","3","html-keyboard-response","317","","","","",""
"2375","pants","pintal,haki,chuki,hari","haki","v","3","html-keyboard-response","318","f","pintal","false","","4"
"3200.2000000476837","","","","","3","html-slider-response","319","","","","3",""
"null","","","","","3","html-keyboard-response","320","","","","",""
"3751","cup","dagat,shimoni,matumai,jeraha","matumai","j","3","html-keyboard-response","321","j","matumai","true","","4"
"1897.5","","","","","3","html-slider-response","322","","","","1",""
"null","","","","","3","html-keyboard-response","323","","","","",""
"3667","triangle","kasadpan,kihozi,bentaha,liog","kasadpan","f","3","html-keyboard-response","324","f","kasadpan","true","","4"
"1707.8000001907349","","","","","3","html-slider-response","325","","","","1",""
"null","","","","","3","html-keyboard-response","326","","","","",""
"4012","curtain","lisud,mchanga,bulwawan,chubani","mchanga","v","3","html-keyboard-response","327","n","chubani","false","","4"
"1722.7999999523163","","","","","3","html-slider-response","328","","","","1",""
"null","","","","","3","html-keyboard-response","329","","","","",""
"3996","clock","kartasi,abang,mbwa,osha","mbwa","j","3","html-keyboard-response","330","j","mbwa","true","","4"
"2042","","","","","3","html-slider-response","331","","","","5",""
"null","","","","","3","html-keyboard-response","332","","","","",""
"2782","mirror","rangi,kanding,furaha,sulagma","sulagma","n","3","html-keyboard-response","333","n","sulagma","true","","4"
"2878.7000000476837","","","","","3","html-slider-response","334","","","","3",""
"null","","","","","3","html-keyboard-response","335","","","","",""
"3210","coffin","kioo,barua,tubag,hulma","kioo","f","3","html-keyboard-response","336","f","kioo","true","","1"
"1804.9000000953674","","","","","3","html-slider-response","337","","","","5",""
"null","","","","","3","html-keyboard-response","338","","","","",""
"2961","magazine","gundi,kiti,mchawi,bahandi","kiti","v","3","html-keyboard-response","339","v","kiti","true","","4"
"1868.8999998569489","","","","","3","html-slider-response","340","","","","5",""
"null","","","","","3","html-keyboard-response","341","","","","",""
"8534","column","ufagio,pundok,dila,pala","ufagio","f","3","html-keyboard-response","342","f","ufagio","true","","1"
"2797.7999999523163","","","","","3","html-slider-response","343","","","","2",""
"null","","","","","3","html-keyboard-response","344","","","","",""
"2740","number","shule,mundamo,kengele,choori","mundamo","v","3","html-keyboard-response","345","v","mundamo","true","","4"
"2028.2000000476837","","","","","3","html-slider-response","346","","","","5",""
"null","","","","","3","html-keyboard-response","347","","","","",""
"4332","rose","paghalad,singizi,mwanake,amani","paghalad","f","3","html-keyboard-response","348","j","mwanake","false","","4"
"1872.5","","","","","3","html-slider-response","349","","","","1",""
"null","","","","","3","html-keyboard-response","350","","","","",""
"4708","eel","ishara,kunywa,kabuang,msumari","msumari","n","3","html-keyboard-response","351","v","kunywa","false","","4"
"1814.4000000953674","","","","","3","html-slider-response","352","","","","1",""
"null","","","","","3","html-keyboard-response","353","","","","",""
"12766","gift","baba,nyange,pagtawag,baso","pagtawag","j","3","html-keyboard-response","354","f","baba","false","","4"
"2207.7999999523163","","","","","3","html-slider-response","355","","","","3",""
"null","","","","","3","html-keyboard-response","356","","","","",""
"7118","apple","ukame,estante,kisu,edad","kisu","j","3","html-keyboard-response","357","j","kisu","true","","1"
"1811.6999998092651","","","","","3","html-slider-response","358","","","","2",""
"null","","","","","3","html-keyboard-response","359","","","","",""
"6994","wheel","punda,bafuni,tawo,baadaye","bafuni","v","3","html-keyboard-response","360","v","bafuni","true","","1"
"1140.2999999523163","","","","","3","html-slider-response","361","","","","2",""
"null","","","","","3","html-keyboard-response","362","","","","",""
"4498","knee","mvuke,kubale,duka,bili","duka","j","3","html-keyboard-response","363","v","kubale","false","","4"
"1830.7000000476837","","","","","3","html-slider-response","364","","","","2",""
"null","","","","","3","html-keyboard-response","365","","","","",""
"3006","basket","kumbuka,utepe,kumba,hasira","kumba","j","3","html-keyboard-response","366","j","kumba","true","","1"
"4613.400000095367","","","","","3","html-slider-response","367","","","","3",""
"null","","","","","3","html-keyboard-response","368","","","","",""
"6492","park","tambok,pwani,ihalas,bunifu","bunifu","n","3","html-keyboard-response","369","f","tambok","false","","4"
"1270.1999998092651","","","","","3","html-slider-response","370","","","","2",""
"null","","","","","3","html-keyboard-response","371","","","","",""
"3949","finger","simu,sufuria,moyo,lima","moyo","j","3","html-keyboard-response","372","j","moyo","true","","4"
"1283.2999999523163","","","","","3","html-slider-response","373","","","","4",""
"null","","","","","3","html-keyboard-response","374","","","","",""
"3893","boat","agalon,hamsi,pombe,kitanda","agalon","f","3","html-keyboard-response","375","j","pombe","false","","4"
"2182.4000000953674","","","","","3","html-slider-response","376","","","","2",""
"null","","","","","3","html-keyboard-response","377","","","","",""
"3545","hill","matumbo,kushoto,kukimba,sweta","matumbo","f","3","html-keyboard-response","378","j","kukimba","false","","4"
"2574.5999999046326","","","","","3","html-slider-response","379","","","","2",""
"null","","","","","3","html-keyboard-response","380","","","","",""
"2949","train","sayari,itik,dakika,mungu","sayari","f","3","html-keyboard-response","381","v","itik","false","","4"
"1775.2999999523163","","","","","3","html-slider-response","382","","","","2",""
"null","","","","","3","html-keyboard-response","383","","","","",""
"3388","wolf","kaburi,ndizi,mchuzi,lugha","lugha","n","3","html-keyboard-response","384","j","mchuzi","false","","4"
"1414","","","","","3","html-slider-response","385","","","","2",""
"null","","","","","3","html-keyboard-response","386","","","","",""
"4892","snake","pagtukod,jansa,karon,mvringo","pagtukod","f","3","html-keyboard-response","387","f","pagtukod","true","","4"
"1509.5999999046326","","","","","3","html-slider-response","388","","","","2",""
"null","","","","","3","html-keyboard-response","389","","","","",""
"3257","tooth","kijiko,uadui,pahiyum,kabalaka","kabalaka","n","3","html-keyboard-response","390","v","uadui","false","","4"
"1339.5","","","","","3","html-slider-response","391","","","","2",""
"null","","","","","3","html-keyboard-response","392","","","","",""
"4304","notebook","msitu,kila,kemia,mdudu","kemia","j","3","html-keyboard-response","393","f","msitu","false","","4"
"1677.8999998569489","","","","","3","html-slider-response","394","","","","2",""
"null","","","","","3","html-keyboard-response","395","","","","",""
"4173","flag","ndege,trekta,mkate,kawa","trekta","v","3","html-keyboard-response","396","f","ndege","false","","4"
"1605.1999998092651","","","","","3","html-slider-response","397","","","","2",""
"null","","","","","3","html-keyboard-response","398","","","","",""
"2366","squirrel","hofu,mahugaw,ukweli,kichwa","hofu","f","3","html-keyboard-response","399","j","ukweli","false","","4"
"1516.3999998569489","","","","","3","html-slider-response","400","","","","2",""
"null","","","","","3","html-keyboard-response","401","","","","",""
"2418","door","tena,soko,nyota,surali","surali","n","3","html-keyboard-response","402","v","soko","false","","4"
"1434.7999999523163","","","","","3","html-slider-response","403","","","","2",""
"null","","","","","3","html-keyboard-response","404","","","","",""
"3576","salmon","mzungu,seri,baharia,sensilyo","sensilyo","n","3","html-keyboard-response","405","n","sensilyo","true","","4"
"1356.2000000476837","","","","","3","html-slider-response","406","","","","5",""
"null","","","","","3","html-keyboard-response","407","","","","",""
"4051","shoulder","kelele,ndaniya,mkuu,guruwe","mkuu","j","3","html-keyboard-response","408","f","kelele","false","","4"
"3042.199999809265","","","","","3","html-slider-response","409","","","","2",""
"null","","","","","3","html-keyboard-response","410","","","","",""
"2948","lamp","afya,daub,bilaska,mbolea","afya","f","3","html-keyboard-response","411","f","afya","true","","4"
"1223.2000000476837","","","","","3","html-slider-response","412","","","","2",""
"null","","","","","3","html-keyboard-response","413","","","","",""
"2257","shelf","pamahaw,bungtod,kadaot,awit","pamahaw","f","3","html-keyboard-response","414","f","pamahaw","true","","1"
"2458.5","","","","","3","html-slider-response","415","","","","4",""
"null","","","","","3","html-keyboard-response","416","","","","",""
"5222","human","tinapay,bado,kikapu,punguza","tinapay","f","3","html-keyboard-response","417","n","punguza","false","","4"
"1371.1000001430511","","","","","3","html-slider-response","418","","","","4",""
"null","","","","","3","html-keyboard-response","419","","","","",""
"3893","towel","tembo,funzi,pito,pagpalit","pagpalit","n","3","html-keyboard-response","420","j","pito","false","","4"
"1691.7000000476837","","","","","3","html-slider-response","421","","","","2",""
"null","","","","","3","html-keyboard-response","422","","","","",""
"3996","cat","neyemba,paghukom,baki,akili","paghukom","v","3","html-keyboard-response","423","v","paghukom","true","","4"
"1171.5999999046326","","","","","3","html-slider-response","424","","","","4",""
"null","","","","","3","html-keyboard-response","425","","","","",""
"3772","spider","bunyag,mkboa,kamwe,atop","kamwe","j","3","html-keyboard-response","426","j","kamwe","true","","4"
"1264.2000000476837","","","","","3","html-slider-response","427","","","","4",""
"null","","","","","3","html-keyboard-response","428","","","","",""
"3374","window","nanga,kujenga,kweli,umaga","kweli","j","3","html-keyboard-response","429","n","umaga","false","","4"
"1797.8000001907349","","","","","3","html-slider-response","430","","","","2",""
"null","","","","","3","html-keyboard-response","431","","","","",""
"2001","woman","bandari,bituin,pagtabon,kovuli","pagtabon","j","3","html-keyboard-response","432","j","pagtabon","true","","1"
"1380.2999999523163","","","","","3","html-slider-response","433","","","","4",""
"null","","","","","3","html-keyboard-response","434","","","","",""
"4463","giraffe","daraja,jumatu,mahitabo,hangyo","mahitabo","j","3","html-keyboard-response","435","n","hangyo","false","","4"
"1467.9000000953674","","","","","3","html-slider-response","436","","","","4",""
"null","","","","","3","html-keyboard-response","437","","","","",""
"3664","elephant","petye,pagduol,kito,suka","kito","j","3","html-keyboard-response","438","v","pagduol","false","","4"
"1239.5999999046326","","","","","3","html-slider-response","439","","","","2",""
"null","","","","","3","html-keyboard-response","440","","","","",""
"5851","cave","ganti,kesho,maisha,nyundo","kesho","v","3","html-keyboard-response","441","v","kesho","true","","4"
"1432.9000000953674","","","","","3","html-slider-response","442","","","","2",""
"null","","","","","3","html-keyboard-response","443","","","","",""
"2391","bread","kaili,dizeli,dari,bugas","dari","j","3","html-keyboard-response","444","j","dari","true","","4"
"1584.8000001907349","","","","","3","html-slider-response","445","","","","2",""
"null","","","","","3","html-keyboard-response","446","","","","",""
"5933","stone","wingi,ulimwengu,mkasi,asili","wingi","f","3","html-keyboard-response","447","f","wingi","true","","4"
"1440.0999999046326","","","","","3","html-slider-response","448","","","","2",""
"null","","","","","3","html-keyboard-response","449","","","","",""
"4839","donkey","elfu,bloke,lalake,rombus","elfu","f","3","html-keyboard-response","450","j","lalake","false","","4"
"2100.699999809265","","","","","3","html-slider-response","451","","","","2",""
"null","","","","","3","html-keyboard-response","452","","","","",""
"4274","bridge","daima,sahani,ngono,panya","sahani","v","3","html-keyboard-response","453","j","ngono","false","","4"
"1165.7000000476837","","","","","3","html-slider-response","454","","","","2",""
"null","","","","","3","html-keyboard-response","455","","","","",""
"2684","bonfire","mwezi,goti,mfuko,kusanya","goti","v","3","html-keyboard-response","456","v","goti","true","","4"
"1517.2999999523163","","","","","3","html-slider-response","457","","","","4",""
"null","","","","","3","html-keyboard-response","458","","","","",""
"3662","book","kuhesa,picha,mali,mara","mali","j","3","html-keyboard-response","459","j","mali","true","","4"
"1627.7999999523163","","","","","3","html-slider-response","460","","","","2",""
"null","","","","","3","html-keyboard-response","461","","","","",""
"3670","fish","buli,bala,baho,imani","buli","f","3","html-keyboard-response","462","j","baho","false","","4"
"2422.4000000953674","","","","","3","html-slider-response","463","","","","3",""
"null","","","","","3","html-keyboard-response","464","","","","",""
"5953","spoon","betri,pagsulod,nzuri,ngazi","pagsulod","v","3","html-keyboard-response","465","v","pagsulod","true","","4"
"1679.7999999523163","","","","","3","html-slider-response","466","","","","2",""
"null","","","","","3","html-keyboard-response","467","","","","",""
"3672","scissors","duga,tanuri,mtawa,suga","tanuri","v","3","html-keyboard-response","468","n","suga","false","","4"
"2474.600000143051","","","","","3","html-slider-response","469","","","","2",""
"null","","","","","3","html-keyboard-response","470","","","","",""
"3417","page","wakala,ishiri,skina,wimbo","wimbo","n","3","html-keyboard-response","471","n","wimbo","true","","4"
"1984.5999999046326","","","","","3","html-slider-response","472","","","","2",""
"null","","","","","3","html-keyboard-response","473","","","","",""
"2090","nose","gubat,sehemu,kopa,kidole","sehemu","v","3","html-keyboard-response","474","v","sehemu","true","","1"
"1882.4000000953674","","","","","3","html-slider-response","475","","","","5",""
"null","","","","","3","html-keyboard-response","476","","","","",""
"3178","ceiling","maua,kugita,kawaida,rayna","maua","f","3","html-keyboard-response","477","f","maua","true","","4"
"1466.5","","","","","3","html-slider-response","478","","","","5",""
"null","","","","","3","html-keyboard-response","479","","","","",""
"5267","bucket","baga,ijayo,init,kiatu","kiatu","n","3","html-keyboard-response","480","j","init","false","","4"
"1128.2000000476837","","","","","3","html-slider-response","481","","","","2",""
"null","","","","","3","html-keyboard-response","482","","","","",""
"2099","berry","kofia,abogado,nogozi,kinywa","kofia","f","3","html-keyboard-response","483","f","kofia","true","","1"
"1266","","","","","3","html-slider-response","484","","","","5",""
"null","","","","","3","html-keyboard-response","485","","","","",""
"2056","mother","kahawa,mbuzi,jokofu,babaye","babaye","n","3","html-keyboard-response","486","n","babaye","true","","1"
"1127.6999998092651","","","","","3","html-slider-response","487","","","","5",""
"null","","","","","3","html-keyboard-response","488","","","","",""
"2720","mosquito","isda,taras,martilyo,gutom","martilyo","j","3","html-keyboard-response","489","j","martilyo","true","","4"
"1213.5999999046326","","","","","3","html-slider-response","490","","","","5",""
"null","","","","","3","html-keyboard-response","491","","","","",""
"3572","perfume","bino,katuyoan,sungura,ndogo","katuyoan","v","3","html-keyboard-response","492","f","bino","false","","4"
"1164","","","","","3","html-slider-response","493","","","","2",""
"null","","","","","3","html-keyboard-response","494","","","","",""
"3677","sheet","bililhon,juuya,watu,kamantis","bililhon","f","3","html-keyboard-response","495","n","kamantis","false","","4"
"1229.7000000476837","","","","","3","html-slider-response","496","","","","2",""
"null","","","","","3","html-keyboard-response","497","","","","",""
"2015","puppet","napulo,mazishi,lamok,godoro","mazishi","v","3","html-keyboard-response","498","v","mazishi","true","","1"
"1472.1999998092651","","","","","3","html-slider-response","499","","","","5",""
"null","","","","","3","html-keyboard-response","500","","","","",""
"3140","poster","nchi,madungog,fedha,kasuko","madungog","v","3","html-keyboard-response","501","n","kasuko","false","","4"
"1336.1000001430511","","","","","3","html-slider-response","502","","","","2",""
"null","","","","","3","html-keyboard-response","503","","","","",""
"3715","music","baiski,mraba,mageho,tumbo","baiski","f","3","html-keyboard-response","504","f","baiski","true","","4"
"1610.3999998569489","","","","","3","html-slider-response","505","","","","5",""
"null","","","","","3","html-keyboard-response","506","","","","",""
"3187","key","miaka,chombo,goma,ahos","chombo","v","3","html-keyboard-response","507","j","goma","false","","4"
"1355.9000000953674","","","","","3","html-slider-response","508","","","","4",""
"null","","","","","3","html-keyboard-response","509","","","","",""
"3726","sock","ndoora,mamba,kimysa,mtirka","mamba","v","3","html-keyboard-response","510","n","mtirka","false","","4"
"1127.6999998092651","","","","","3","html-slider-response","511","","","","2",""
"null","","","","","3","html-keyboard-response","512","","","","",""
"3753","marker","mapafu,maji,salita,atay","maji","v","3","html-keyboard-response","513","j","salita","false","","4"
"1307.1999998092651","","","","","3","html-slider-response","514","","","","2",""
"null","","","","","3","html-keyboard-response","515","","","","",""
"4975","office","hazini,leso,yatima,kuna","leso","v","3","html-keyboard-response","516","v","leso","true","","4"
"1722","","","","","3","html-slider-response","517","","","","4",""
"null","","","","","3","html-keyboard-response","518","","","","",""
"3945","shoe","nyeusi,hatua,kama,uyoga","uyoga","n","3","html-keyboard-response","519","n","uyoga","true","","4"
"1980.0999999046326","","","","","3","html-slider-response","520","","","","2",""
"null","","","","","3","html-keyboard-response","521","","","","",""
"11433","cop","mechezo,bustani,jikoni,bakus","mechezo","f","3","html-keyboard-response","522","n","bakus","false","","4"
"1502.8999998569489","","","","","3","html-slider-response","523","","","","2",""
"null","","","","","3","html-keyboard-response","524","","","","",""
"4026","bank","kudhibi,tualya,silingan,ofisi","silingan","j","3","html-keyboard-response","525","v","tualya","false","","4"
"1041.5999999046326","","","","","3","html-slider-response","526","","","","2",""
"null","","","","","3","html-keyboard-response","527","","","","",""
"2612","letter","kifua,filimbi,chuma,uhuru","kifua","f","3","html-keyboard-response","528","f","kifua","true","","1"
"1696.1000001430511","","","","","3","html-slider-response","529","","","","2",""
"null","","","","","3","html-keyboard-response","530","","","","",""
"2197","dog","lubi,washia,bahari,kalamu","bahari","j","3","html-keyboard-response","531","j","bahari","true","","1"
"2605.9000000953674","","","","","3","html-slider-response","532","","","","5",""
"null","","","","","3","html-keyboard-response","533","","","","",""
"3613","shop","samaki,nopya,kerida,ndezu","samaki","f","3","html-keyboard-response","534","f","samaki","true","","4"
"1404.1000001430511","","","","","3","html-slider-response","535","","","","2",""
"null","","","","","3","html-keyboard-response","536","","","","",""
"4941","flower","bega,tamasha,lobo,usiku","bega","f","3","html-keyboard-response","537","n","usiku","false","","4"
"1351.7000000476837","","","","","3","html-slider-response","538","","","","2",""
"null","","","","","3","html-keyboard-response","539","","","","",""
"1795","cigar","ndugu,adhabu,kuta,mlango","adhabu","v","3","html-keyboard-response","540","v","adhabu","true","","1"
"1226.8000001907349","","","","","3","html-slider-response","541","","","","5",""
"null","","","","","3","html-keyboard-response","542","","","","",""
"3064","hammer","napakyas,mekno,kitovu,layag","napakyas","f","3","html-keyboard-response","543","j","kitovu","false","","4"
"1022.2999999523163","","","","","3","html-slider-response","544","","","","2",""
"null","","","","","3","html-keyboard-response","545","","","","",""
"2565","fork","mgonjwa,baboy,paghago,gorisi","mgonjwa","f","3","html-keyboard-response","546","n","gorisi","false","","4"
"1350.4000000953674","","","","","3","html-slider-response","547","","","","2",""
"null","","","","","3","html-keyboard-response","548","","","","",""
"1653","sun","bendi,luha,uongo,basi","basi","n","3","html-keyboard-response","549","n","basi","true","","1"
"1340.7000000476837","","","","","3","html-slider-response","550","","","","5",""
"null","","","","","3","html-keyboard-response","551","","","","",""
"2272","ladder","mashua,mwanga,pangalan,kamba","pangalan","j","3","html-keyboard-response","552","v","mwanga","false","","4"
"1080.4000000953674","","","","","3","html-slider-response","553","","","","2",""
"null","","","","","3","html-keyboard-response","554","","","","",""
"1887","banana","kasamok,hagdan,twai,kazi","kazi","n","3","html-keyboard-response","555","n","kazi","true","","1"
"1470.5999999046326","","","","","3","html-slider-response","556","","","","5",""
"null","","","","","3","html-keyboard-response","557","","","","",""
"3104","pudding","abug,aibu,mpishi,iring","aibu","v","3","html-keyboard-response","558","n","iring","false","","4"
"2371.100000143051","","","","","3","html-slider-response","559","","","","2",""
"null","","","","","3","html-keyboard-response","560","","","","",""
"4905","body","tindashan,nyundu,jibini,kununa","tindashan","f","3","html-keyboard-response","561","n","kununa","false","","4"
"2839.9000000953674","","","","","3","html-slider-response","562","","","","3",""
"null","","","","","3","html-keyboard-response","563","","","","",""
"3255","bed","mapintas,kalipay,haraka,starehe","mapintas","f","3","html-keyboard-response","564","j","haraka","false","","4"
"1609","","","","","3","html-slider-response","565","","","","2",""
"null","","","","","3","html-keyboard-response","566","","","","",""
"3453","tissue","lamigas,kisiwa,ugomvi,katika","ugomvi","j","3","html-keyboard-response","567","f","lamigas","false","","4"
"1862.6999998092651","","","","","3","html-slider-response","568","","","","2",""
"null","","","","","3","html-keyboard-response","569","","","","",""
"4189","candle","gabi,farasi,kupanda,geza","geza","n","3","html-keyboard-response","570","n","geza","true","","4"
"1513.6000001430511","","","","","3","html-slider-response","571","","","","2",""
"null","","","","","3","html-keyboard-response","572","","","","",""
"2390","tomato","chupi,chupa,takatak,mvua","mvua","n","3","html-keyboard-response","573","n","mvua","true","","1"
"1622.1000001430511","","","","","3","html-slider-response","574","","","","5",""
"null","","","","","3","html-keyboard-response","575","","","","",""
"5200","list","alizeti,kuzama,kaso,wingu","wingu","n","3","html-keyboard-response","576","j","kaso","false","","4"
"1440.3000001907349","","","","","3","html-slider-response","577","","","","2",""
"null","","","","","3","html-keyboard-response","578","","","","",""
"3521","olive","bata,jiwe,siagi,welder","jiwe","v","3","html-keyboard-response","579","v","jiwe","true","","4"
"1720.2000000476837","","","","","3","html-slider-response","580","","","","5",""
"null","","","","","3","html-keyboard-response","581","","","","",""
"1759","picture","silya,chaki,kubwa,asin","kubwa","j","3","html-keyboard-response","582","j","kubwa","true","","1"
"1586.8000001907349","","","","","3","html-slider-response","583","","","","5",""
"null","","","","","3","html-keyboard-response","584","","","","",""
