"rt","en_word","options","swa_word","correct_answer","phase","trial_type","trial_index","input_answer","input_word","accuracy","certainty","amt_choices"
"3049","bonfire","mwezi,goti,mfuko,kusanya","goti","v","2","html-keyboard-response","109","v","goti","true","",""
"2691","","","","","2","html-slider-response","110","","","","4",""
"5007","flower","bega,tamasha,lobo,usiku","bega","f","2","html-keyboard-response","111","f","bega","true","",""
"2479","","","","","2","html-slider-response","112","","","","4",""
"2892","column","pundok,dila,pala,ufagio","ufagio","n","2","html-keyboard-response","113","n","ufagio","true","",""
"2849","","","","","2","html-slider-response","114","","","","2",""
"4758","music","baiski,mraba,mageho,tumbo","baiski","f","2","html-keyboard-response","115","f","baiski","true","",""
"2590","","","","","2","html-slider-response","116","","","","4",""
"2455","spider","kamwe,bunyag,mkboa,atop","kamwe","f","2","html-keyboard-response","117","f","kamwe","true","",""
"2377","","","","","2","html-slider-response","118","","","","4",""
"4307","fork","baboy,mgonjwa,paghago,gorisi","mgonjwa","v","2","html-keyboard-response","119","v","mgonjwa","true","",""
"5505","","","","","2","html-slider-response","120","","","","2",""
"2439","mosquito","isda,martilyo,taras,gutom","martilyo","v","2","html-keyboard-response","121","v","martilyo","true","",""
"2549","","","","","2","html-slider-response","122","","","","5",""
"3367","banana","kazi,kasamok,hagdan,twai","kazi","f","2","html-keyboard-response","123","v","kasamok","false","",""
"4139","","","","","2","html-slider-response","124","","","","1",""
"2974","cup","dagat,shimoni,matumai,jeraha","matumai","j","2","html-keyboard-response","125","n","jeraha","false","",""
"2287","","","","","2","html-slider-response","126","","","","1",""
"2522","shop","nopya,kerida,ndezu,samaki","samaki","n","2","html-keyboard-response","127","n","samaki","true","",""
"4538","","","","","2","html-slider-response","128","","","","3",""
"2610","elephant","petye,kito,pagduol,suka","kito","v","2","html-keyboard-response","129","v","kito","true","",""
"2662","","","","","2","html-slider-response","130","","","","5",""
"2391","bucket","kiatu,baga,ijayo,init","kiatu","f","2","html-keyboard-response","131","f","kiatu","true","",""
"2751","","","","","2","html-slider-response","132","","","","5",""
"2943","book","kuhesa,mali,picha,mara","mali","v","2","html-keyboard-response","133","v","mali","true","",""
"2771","","","","","2","html-slider-response","134","","","","5",""
"2500","mirror","rangi,sulagma,kanding,furaha","sulagma","v","2","html-keyboard-response","135","v","sulagma","true","",""
"2894","","","","","2","html-slider-response","136","","","","4",""
"2398","office","leso,hazini,yatima,kuna","leso","f","2","html-keyboard-response","137","f","leso","true","",""
"2270","","","","","2","html-slider-response","138","","","","4",""
"2355","body","nyundu,jibini,kununa,tindashan","tindashan","n","2","html-keyboard-response","139","n","tindashan","true","",""
"2536","","","","","2","html-slider-response","140","","","","5",""
"2014","perfume","bino,sungura,ndogo,katuyoan","katuyoan","n","2","html-keyboard-response","141","n","katuyoan","true","",""
"2321","","","","","2","html-slider-response","142","","","","4",""
"3562","olive","bata,jiwe,siagi,welder","jiwe","v","2","html-keyboard-response","143","v","jiwe","true","",""
"2505","","","","","2","html-slider-response","144","","","","2",""
"3735","magazine","gundi,kiti,mchawi,bahandi","kiti","v","2","html-keyboard-response","145","n","bahandi","false","",""
"2317","","","","","2","html-slider-response","146","","","","2",""
"2538","bread","kaili,dari,dizeli,bugas","dari","v","2","html-keyboard-response","147","v","dari","true","",""
"2606","","","","","2","html-slider-response","148","","","","1",""
"2557","cave","ganti,kesho,maisha,nyundo","kesho","v","2","html-keyboard-response","149","v","kesho","true","",""
"3111","","","","","2","html-slider-response","150","","","","3",""
"4321","ladder","mashua,mwanga,pangalan,kamba","pangalan","j","2","html-keyboard-response","151","v","mwanga","false","",""
"2267","","","","","2","html-slider-response","152","","","","2",""
"6195","human","bado,kikapu,tinapay,punguza","tinapay","j","2","html-keyboard-response","153","f","bado","false","",""
"2435","","","","","2","html-slider-response","154","","","","2",""
"6170","clock","kartasi,mbwa,abang,osha","mbwa","v","2","html-keyboard-response","155","v","mbwa","true","",""
"4145","","","","","2","html-slider-response","156","","","","3",""
"2907","shelf","bungtod,kadaot,awit,pamahaw","pamahaw","n","2","html-keyboard-response","157","n","pamahaw","true","",""
"3308","","","","","2","html-slider-response","158","","","","3",""
"11316","salmon","mzungu,sensilyo,seri,baharia","sensilyo","v","2","html-keyboard-response","159","v","sensilyo","true","",""
"2715","","","","","2","html-slider-response","160","","","","3",""
"2336","coffin","barua,tubag,kioo,hulma","kioo","j","2","html-keyboard-response","161","j","kioo","true","",""
"2240","","","","","2","html-slider-response","162","","","","5",""
"3137","notebook","msitu,kila,kemia,mdudu","kemia","j","2","html-keyboard-response","163","j","kemia","true","",""
"2057","","","","","2","html-slider-response","164","","","","2",""
"4705","shoulder","kelele,ndaniya,guruwe,mkuu","mkuu","n","2","html-keyboard-response","165","n","mkuu","true","",""
"2407","","","","","2","html-slider-response","166","","","","1",""
"2139","park","tambok,pwani,ihalas,bunifu","bunifu","n","2","html-keyboard-response","167","f","tambok","false","",""
"2408","","","","","2","html-slider-response","168","","","","1",""
"2893","number","shule,kengele,choori,mundamo","mundamo","n","2","html-keyboard-response","169","n","mundamo","true","",""
"2482","","","","","2","html-slider-response","170","","","","4",""
"2140","apple","ukame,kisu,estante,edad","kisu","v","2","html-keyboard-response","171","v","kisu","true","",""
"2603","","","","","2","html-slider-response","172","","","","5",""
"2533","letter","filimbi,chuma,kifua,uhuru","kifua","j","2","html-keyboard-response","173","j","kifua","true","",""
"2068","","","","","2","html-slider-response","174","","","","5",""
"2549","eel","msumari,ishara,kunywa,kabuang","msumari","f","2","html-keyboard-response","175","n","kabuang","false","",""
"2681","","","","","2","html-slider-response","176","","","","1",""
"1991","cop","bustani,mechezo,jikoni,bakus","mechezo","v","2","html-keyboard-response","177","v","mechezo","true","",""
"3486","","","","","2","html-slider-response","178","","","","5",""
"2665","wolf","kaburi,ndizi,lugha,mchuzi","lugha","j","2","html-keyboard-response","179","j","lugha","true","",""
"2773","","","","","2","html-slider-response","180","","","","5",""
"2537","squirrel","mahugaw,ukweli,hofu,kichwa","hofu","j","2","html-keyboard-response","181","j","hofu","true","",""
"2088","","","","","2","html-slider-response","182","","","","2",""
"2692","nose","sehemu,gubat,kopa,kidole","sehemu","f","2","html-keyboard-response","183","n","kidole","false","",""
"2340","","","","","2","html-slider-response","184","","","","1",""
"2695","sock","ndoora,mamba,kimysa,mtirka","mamba","v","2","html-keyboard-response","185","n","mtirka","false","",""
"2439","","","","","2","html-slider-response","186","","","","1",""
"5017","bank","kudhibi,tualya,silingan,ofisi","silingan","j","2","html-keyboard-response","187","j","silingan","true","",""
"1947","","","","","2","html-slider-response","188","","","","1",""
"3250","donkey","bloke,elfu,lalake,rombus","elfu","v","2","html-keyboard-response","189","v","elfu","true","",""
"2076","","","","","2","html-slider-response","190","","","","4",""
"4175","poster","nchi,fedha,kasuko,madungog","madungog","n","2","html-keyboard-response","191","v","fedha","false","",""
"2620","","","","","2","html-slider-response","192","","","","2",""
"3084","puppet","napulo,lamok,mazishi,godoro","mazishi","j","2","html-keyboard-response","193","j","mazishi","true","",""
"2206","","","","","2","html-slider-response","194","","","","2",""
"3718","hill","kushoto,matumbo,kukimba,sweta","matumbo","v","2","html-keyboard-response","195","v","matumbo","true","",""
"2816","","","","","2","html-slider-response","196","","","","3",""
"4049","tooth","kijiko,kabalaka,uadui,pahiyum","kabalaka","v","2","html-keyboard-response","197","v","kabalaka","true","",""
"2443","","","","","2","html-slider-response","198","","","","4",""
"2987","woman","bandari,pagtabon,bituin,kovuli","pagtabon","v","2","html-keyboard-response","199","v","pagtabon","true","",""
"2675","","","","","2","html-slider-response","200","","","","4",""
"3950","wheel","punda,tawo,bafuni,baadaye","bafuni","j","2","html-keyboard-response","201","f","punda","false","",""
"2373","","","","","2","html-slider-response","202","","","","1",""
"2439","mother","babaye,kahawa,mbuzi,jokofu","babaye","f","2","html-keyboard-response","203","f","babaye","true","",""
"2502","","","","","2","html-slider-response","204","","","","5",""
"5565","bed","mapintas,kalipay,haraka,starehe","mapintas","f","2","html-keyboard-response","205","v","kalipay","false","",""
"2533","","","","","2","html-slider-response","206","","","","1",""
"6892","key","chombo,miaka,goma,ahos","chombo","f","2","html-keyboard-response","207","f","chombo","true","",""
"2422","","","","","2","html-slider-response","208","","","","2",""
"4820","page","wakala,wimbo,ishiri,skina","wimbo","v","2","html-keyboard-response","209","f","wakala","false","",""
"3312","","","","","2","html-slider-response","210","","","","3",""
"6171","pants","pintal,haki,chuki,hari","haki","v","2","html-keyboard-response","211","v","haki","true","",""
"2460","","","","","2","html-slider-response","212","","","","4",""
"2101","sun","bendi,basi,luha,uongo","basi","v","2","html-keyboard-response","213","f","bendi","false","",""
"3543","","","","","2","html-slider-response","214","","","","3",""
"2877","finger","moyo,simu,sufuria,lima","moyo","f","2","html-keyboard-response","215","f","moyo","true","",""
"3074","","","","","2","html-slider-response","216","","","","3",""
"5321","shoe","nyeusi,hatua,kama,uyoga","uyoga","n","2","html-keyboard-response","217","v","hatua","false","",""
"2201","","","","","2","html-slider-response","218","","","","2",""
"3867","giraffe","daraja,mahitabo,jumatu,hangyo","mahitabo","v","2","html-keyboard-response","219","v","mahitabo","true","",""
"2311","","","","","2","html-slider-response","220","","","","2",""
"5010","dog","lubi,bahari,washia,kalamu","bahari","v","2","html-keyboard-response","221","n","kalamu","false","",""
"2282","","","","","2","html-slider-response","222","","","","2",""
"5122","box","kuacha,adui,rafiki,kitande","adui","v","2","html-keyboard-response","223","f","kuacha","false","",""
"2964","","","","","2","html-slider-response","224","","","","2",""
"5275","scissors","duga,mtawa,tanuri,suga","tanuri","j","2","html-keyboard-response","225","j","tanuri","true","",""
"2087","","","","","2","html-slider-response","226","","","","1",""
"7348","cat","neyemba,paghukom,baki,akili","paghukom","v","2","html-keyboard-response","227","v","paghukom","true","",""
"5512","","","","","2","html-slider-response","228","","","","3",""
"3924","basket","kumba,kumbuka,utepe,hasira","kumba","f","2","html-keyboard-response","229","n","hasira","false","",""
"6232","","","","","2","html-slider-response","230","","","","3",""
"3675","snake","pagtukod,jansa,karon,mvringo","pagtukod","f","2","html-keyboard-response","231","n","mvringo","false","",""
"2219","","","","","2","html-slider-response","232","","","","2",""
"3591","gift","baba,pagtawag,nyange,baso","pagtawag","v","2","html-keyboard-response","233","v","pagtawag","true","",""
"2295","","","","","2","html-slider-response","234","","","","2",""
"4756","train","itik,dakika,sayari,mungu","sayari","j","2","html-keyboard-response","235","v","dakika","false","",""
"2194","","","","","2","html-slider-response","236","","","","1",""
"3392","pudding","abug,aibu,mpishi,iring","aibu","v","2","html-keyboard-response","237","f","abug","false","",""
"2606","","","","","2","html-slider-response","238","","","","1",""
"3535","tomato","chupi,chupa,mvua,takatak","mvua","j","2","html-keyboard-response","239","v","chupa","false","",""
"2361","","","","","2","html-slider-response","240","","","","2",""
"5593","stone","ulimwengu,mkasi,wingi,asili","wingi","j","2","html-keyboard-response","241","v","mkasi","false","",""
"3252","","","","","2","html-slider-response","242","","","","1",""
"6247","hammer","mekno,kitovu,layag,napakyas","napakyas","n","2","html-keyboard-response","243","n","napakyas","true","",""
"2033","","","","","2","html-slider-response","244","","","","1",""
"6383","knee","mvuke,duka,kubale,bili","duka","v","2","html-keyboard-response","245","v","duka","true","",""
"2684","","","","","2","html-slider-response","246","","","","4",""
"2649","ceiling","kugita,maua,kawaida,rayna","maua","v","2","html-keyboard-response","247","f","kugita","false","",""
"2983","","","","","2","html-slider-response","248","","","","3",""
"4038","spoon","betri,nzuri,pagsulod,ngazi","pagsulod","j","2","html-keyboard-response","249","n","ngazi","false","",""
"2138","","","","","2","html-slider-response","250","","","","2",""
"3604","marker","mapafu,salita,atay,maji","maji","n","2","html-keyboard-response","251","f","mapafu","false","",""
"2823","","","","","2","html-slider-response","252","","","","4",""
"5591","candle","gabi,farasi,kupanda,geza","geza","n","2","html-keyboard-response","253","n","geza","true","",""
"2546","","","","","2","html-slider-response","254","","","","1",""
"4873","tissue","ugomvi,lamigas,kisiwa,katika","ugomvi","f","2","html-keyboard-response","255","j","kisiwa","false","",""
"2630","","","","","2","html-slider-response","256","","","","1",""
"5743","bridge","sahani,daima,ngono,panya","sahani","f","2","html-keyboard-response","257","v","daima","false","",""
"2218","","","","","2","html-slider-response","258","","","","1",""
"4298","berry","abogado,nogozi,kofia,kinywa","kofia","j","2","html-keyboard-response","259","f","abogado","false","",""
"2245","","","","","2","html-slider-response","260","","","","1",""
"3099","triangle","kihozi,bentaha,kasadpan,liog","kasadpan","j","2","html-keyboard-response","261","n","liog","false","",""
"2305","","","","","2","html-slider-response","262","","","","1",""
"5601","door","tena,surali,soko,nyota","surali","v","2","html-keyboard-response","263","v","surali","true","",""
"2213","","","","","2","html-slider-response","264","","","","1",""
"3966","fish","bala,baho,buli,imani","buli","j","2","html-keyboard-response","265","j","buli","true","",""
"2570","","","","","2","html-slider-response","266","","","","3",""
"5870","curtain","lisud,bulwawan,mchanga,chubani","mchanga","j","2","html-keyboard-response","267","j","mchanga","true","",""
"2882","","","","","2","html-slider-response","268","","","","3",""
"3134","flag","ndege,mkate,kawa,trekta","trekta","n","2","html-keyboard-response","269","n","trekta","true","",""
"2122","","","","","2","html-slider-response","270","","","","1",""
"4293","boat","agalon,hamsi,pombe,kitanda","agalon","f","2","html-keyboard-response","271","n","kitanda","false","",""
"2261","","","","","2","html-slider-response","272","","","","2",""
"3436","rose","paghalad,singizi,mwanake,amani","paghalad","f","2","html-keyboard-response","273","f","paghalad","true","",""
"2579","","","","","2","html-slider-response","274","","","","4",""
"2878","lamp","daub,afya,bilaska,mbolea","afya","v","2","html-keyboard-response","275","n","mbolea","false","",""
"2095","","","","","2","html-slider-response","276","","","","1",""
"2899","cigar","ndugu,kuta,mlango,adhabu","adhabu","n","2","html-keyboard-response","277","f","ndugu","false","",""
"2694","","","","","2","html-slider-response","278","","","","3",""
"4031","list","wingu,alizeti,kuzama,kaso","wingu","f","2","html-keyboard-response","279","n","kaso","false","",""
"2251","","","","","2","html-slider-response","280","","","","2",""
"2108","sheet","bililhon,juuya,watu,kamantis","bililhon","f","2","html-keyboard-response","281","f","bililhon","true","",""
"2346","","","","","2","html-slider-response","282","","","","4",""
"4459","picture","kubwa,silya,chaki,asin","kubwa","f","2","html-keyboard-response","283","v","silya","false","",""
"2079","","","","","2","html-slider-response","284","","","","1",""
"5603","towel","tembo,pagpalit,funzi,pito","pagpalit","v","2","html-keyboard-response","285","v","pagpalit","true","",""
"1963","","","","","2","html-slider-response","286","","","","2",""
"11060","window","kweli,nanga,kujenga,umaga","kweli","f","2","html-keyboard-response","287","v","nanga","false","",""
"2346","","","","","2","html-slider-response","288","","","","1",""
"2368","box","kuacha,adui,rafiki,kitande","adui","v","3","html-keyboard-response","305","j","rafiki","false","","4"
"2260","","","","","3","html-slider-response","306","","","","2",""
"null","","","","","3","html-keyboard-response","307","","","","",""
"3732","pants","pintal,haki,chuki,hari","haki","v","3","html-keyboard-response","308","v","haki","true","","4"
"2212","","","","","3","html-slider-response","309","","","","4",""
"null","","","","","3","html-keyboard-response","310","","","","",""
"2942","cup","dagat,shimoni,jeraha,matumai","matumai","n","3","html-keyboard-response","311","n","matumai","true","","4"
"2230","","","","","3","html-slider-response","312","","","","2",""
"null","","","","","3","html-keyboard-response","313","","","","",""
"3987","triangle","kihozi,kasadpan,bentaha,liog","kasadpan","v","3","html-keyboard-response","314","n","liog","false","","4"
"2442","","","","","3","html-slider-response","315","","","","1",""
"null","","","","","3","html-keyboard-response","316","","","","",""
"4435","curtain","mchanga,lisud,bulwawan,chubani","mchanga","f","3","html-keyboard-response","317","j","bulwawan","false","","4"
"3240","","","","","3","html-slider-response","318","","","","1",""
"null","","","","","3","html-keyboard-response","319","","","","",""
"2445","clock","kartasi,abang,osha,mbwa","mbwa","n","3","html-keyboard-response","320","j","osha","false","","4"
"2498","","","","","3","html-slider-response","321","","","","1",""
"null","","","","","3","html-keyboard-response","322","","","","",""
"4744","mirror","rangi,sulagma,kanding,furaha","sulagma","v","3","html-keyboard-response","323","v","sulagma","true","","4"
"2685","","","","","3","html-slider-response","324","","","","3",""
"null","","","","","3","html-keyboard-response","325","","","","",""
"2422","coffin","kioo,barua,tubag,hulma","kioo","f","3","html-keyboard-response","326","f","kioo","true","","1"
"2843","","","","","3","html-slider-response","327","","","","5",""
"null","","","","","3","html-keyboard-response","328","","","","",""
"3107","magazine","kiti,gundi,mchawi,bahandi","kiti","f","3","html-keyboard-response","329","n","bahandi","false","","4"
"2535","","","","","3","html-slider-response","330","","","","3",""
"null","","","","","3","html-keyboard-response","331","","","","",""
"2275","column","pundok,dila,ufagio,pala","ufagio","j","3","html-keyboard-response","332","j","ufagio","true","","1"
"2532","","","","","3","html-slider-response","333","","","","5",""
"null","","","","","3","html-keyboard-response","334","","","","",""
"1972","number","shule,kengele,mundamo,choori","mundamo","j","3","html-keyboard-response","335","j","mundamo","true","","4"
"2545","","","","","3","html-slider-response","336","","","","5",""
"null","","","","","3","html-keyboard-response","337","","","","",""
"2225","rose","singizi,mwanake,paghalad,amani","paghalad","j","3","html-keyboard-response","338","j","paghalad","true","","4"
"2209","","","","","3","html-slider-response","339","","","","5",""
"null","","","","","3","html-keyboard-response","340","","","","",""
"3705","eel","ishara,kunywa,msumari,kabuang","msumari","j","3","html-keyboard-response","341","n","kabuang","false","","4"
"2938","","","","","3","html-slider-response","342","","","","3",""
"null","","","","","3","html-keyboard-response","343","","","","",""
"2697","gift","pagtawag,baba,nyange,baso","pagtawag","f","3","html-keyboard-response","344","f","pagtawag","true","","4"
"3015","","","","","3","html-slider-response","345","","","","3",""
"null","","","","","3","html-keyboard-response","346","","","","",""
"2538","apple","ukame,estante,edad,kisu","kisu","n","3","html-keyboard-response","347","n","kisu","true","","1"
"2430","","","","","3","html-slider-response","348","","","","5",""
"null","","","","","3","html-keyboard-response","349","","","","",""
"2513","wheel","bafuni,punda,tawo,baadaye","bafuni","f","3","html-keyboard-response","350","f","bafuni","true","","1"
"2289","","","","","3","html-slider-response","351","","","","5",""
"null","","","","","3","html-keyboard-response","352","","","","",""
"2988","knee","mvuke,duka,kubale,bili","duka","v","3","html-keyboard-response","353","v","duka","true","","4"
"2292","","","","","3","html-slider-response","354","","","","5",""
"null","","","","","3","html-keyboard-response","355","","","","",""
"3945","basket","kumbuka,utepe,kumba,hasira","kumba","j","3","html-keyboard-response","356","j","kumba","true","","1"
"3164","","","","","3","html-slider-response","357","","","","5",""
"null","","","","","3","html-keyboard-response","358","","","","",""
"3382","park","tambok,pwani,ihalas,bunifu","bunifu","n","3","html-keyboard-response","359","n","bunifu","true","","4"
"2249","","","","","3","html-slider-response","360","","","","2",""
"null","","","","","3","html-keyboard-response","361","","","","",""
"2448","finger","simu,sufuria,moyo,lima","moyo","j","3","html-keyboard-response","362","j","moyo","true","","4"
"2323","","","","","3","html-slider-response","363","","","","5",""
"null","","","","","3","html-keyboard-response","364","","","","",""
"3950","boat","agalon,hamsi,pombe,kitanda","agalon","f","3","html-keyboard-response","365","n","kitanda","false","","4"
"1994","","","","","3","html-slider-response","366","","","","2",""
"null","","","","","3","html-keyboard-response","367","","","","",""
"3056","hill","kushoto,matumbo,kukimba,sweta","matumbo","v","3","html-keyboard-response","368","v","matumbo","true","","4"
"1986","","","","","3","html-slider-response","369","","","","2",""
"null","","","","","3","html-keyboard-response","370","","","","",""
"7105","train","itik,dakika,mungu,sayari","sayari","n","3","html-keyboard-response","371","v","dakika","false","","4"
"2420","","","","","3","html-slider-response","372","","","","2",""
"null","","","","","3","html-keyboard-response","373","","","","",""
"2868","wolf","kaburi,lugha,ndizi,mchuzi","lugha","v","3","html-keyboard-response","374","v","lugha","true","","4"
"2321","","","","","3","html-slider-response","375","","","","5",""
"null","","","","","3","html-keyboard-response","376","","","","",""
"6534","snake","pagtukod,jansa,karon,mvringo","pagtukod","f","3","html-keyboard-response","377","n","mvringo","false","","4"
"1922","","","","","3","html-slider-response","378","","","","2",""
"null","","","","","3","html-keyboard-response","379","","","","",""
"3206","tooth","kijiko,uadui,kabalaka,pahiyum","kabalaka","j","3","html-keyboard-response","380","j","kabalaka","true","","4"
"2233","","","","","3","html-slider-response","381","","","","5",""
"null","","","","","3","html-keyboard-response","382","","","","",""
"3350","notebook","msitu,kila,mdudu,kemia","kemia","n","3","html-keyboard-response","383","j","mdudu","false","","4"
"3406","","","","","3","html-slider-response","384","","","","2",""
"null","","","","","3","html-keyboard-response","385","","","","",""
"2354","flag","trekta,ndege,mkate,kawa","trekta","f","3","html-keyboard-response","386","f","trekta","true","","4"
"4239","","","","","3","html-slider-response","387","","","","1",""
"null","","","","","3","html-keyboard-response","388","","","","",""
"3115","squirrel","mahugaw,ukweli,kichwa,hofu","hofu","n","3","html-keyboard-response","389","n","hofu","true","","4"
"2619","","","","","3","html-slider-response","390","","","","2",""
"null","","","","","3","html-keyboard-response","391","","","","",""
"3414","door","tena,soko,nyota,surali","surali","n","3","html-keyboard-response","392","n","surali","true","","4"
"2195","","","","","3","html-slider-response","393","","","","2",""
"null","","","","","3","html-keyboard-response","394","","","","",""
"3590","salmon","mzungu,sensilyo,seri,baharia","sensilyo","v","3","html-keyboard-response","395","v","sensilyo","true","","4"
"2312","","","","","3","html-slider-response","396","","","","3",""
"null","","","","","3","html-keyboard-response","397","","","","",""
"3911","shoulder","mkuu,kelele,ndaniya,guruwe","mkuu","f","3","html-keyboard-response","398","f","mkuu","true","","4"
"2129","","","","","3","html-slider-response","399","","","","2",""
"null","","","","","3","html-keyboard-response","400","","","","",""
"3923","lamp","daub,bilaska,mbolea,afya","afya","n","3","html-keyboard-response","401","n","afya","true","","4"
"2971","","","","","3","html-slider-response","402","","","","2",""
"null","","","","","3","html-keyboard-response","403","","","","",""
"2404","shelf","bungtod,pamahaw,kadaot,awit","pamahaw","v","3","html-keyboard-response","404","v","pamahaw","true","","1"
"2984","","","","","3","html-slider-response","405","","","","5",""
"null","","","","","3","html-keyboard-response","406","","","","",""
"5222","human","bado,kikapu,punguza,tinapay","tinapay","n","3","html-keyboard-response","407","n","tinapay","true","","4"
"2204","","","","","3","html-slider-response","408","","","","2",""
"null","","","","","3","html-keyboard-response","409","","","","",""
"2556","towel","pagpalit,tembo,funzi,pito","pagpalit","f","3","html-keyboard-response","410","f","pagpalit","true","","4"
"2298","","","","","3","html-slider-response","411","","","","4",""
"null","","","","","3","html-keyboard-response","412","","","","",""
"5658","cat","neyemba,baki,akili,paghukom","paghukom","n","3","html-keyboard-response","413","n","paghukom","true","","4"
"2832","","","","","3","html-slider-response","414","","","","3",""
"null","","","","","3","html-keyboard-response","415","","","","",""
"3241","spider","bunyag,mkboa,atop,kamwe","kamwe","n","3","html-keyboard-response","416","n","kamwe","true","","4"
"2486","","","","","3","html-slider-response","417","","","","4",""
"null","","","","","3","html-keyboard-response","418","","","","",""
"3062","window","nanga,kweli,kujenga,umaga","kweli","v","3","html-keyboard-response","419","v","kweli","true","","4"
"2628","","","","","3","html-slider-response","420","","","","3",""
"null","","","","","3","html-keyboard-response","421","","","","",""
"1980","woman","bandari,pagtabon,bituin,kovuli","pagtabon","v","3","html-keyboard-response","422","v","pagtabon","true","","1"
"2568","","","","","3","html-slider-response","423","","","","5",""
"null","","","","","3","html-keyboard-response","424","","","","",""
"3380","giraffe","daraja,mahitabo,jumatu,hangyo","mahitabo","v","3","html-keyboard-response","425","v","mahitabo","true","","4"
"2829","","","","","3","html-slider-response","426","","","","4",""
"null","","","","","3","html-keyboard-response","427","","","","",""
"1954","elephant","petye,pagduol,suka,kito","kito","n","3","html-keyboard-response","428","n","kito","true","","4"
"2184","","","","","3","html-slider-response","429","","","","5",""
"null","","","","","3","html-keyboard-response","430","","","","",""
"3815","cave","kesho,ganti,maisha,nyundo","kesho","f","3","html-keyboard-response","431","v","ganti","false","","4"
"2763","","","","","3","html-slider-response","432","","","","2",""
"null","","","","","3","html-keyboard-response","433","","","","",""
"2588","bread","kaili,dari,dizeli,bugas","dari","v","3","html-keyboard-response","434","v","dari","true","","4"
"2346","","","","","3","html-slider-response","435","","","","2",""
"null","","","","","3","html-keyboard-response","436","","","","",""
"3709","stone","wingi,ulimwengu,mkasi,asili","wingi","f","3","html-keyboard-response","437","v","ulimwengu","false","","4"
"3054","","","","","3","html-slider-response","438","","","","1",""
"null","","","","","3","html-keyboard-response","439","","","","",""
"2183","donkey","bloke,elfu,lalake,rombus","elfu","v","3","html-keyboard-response","440","v","elfu","true","","4"
"2956","","","","","3","html-slider-response","441","","","","4",""
"null","","","","","3","html-keyboard-response","442","","","","",""
"4777","bridge","daima,sahani,ngono,panya","sahani","v","3","html-keyboard-response","443","v","sahani","true","","4"
"4861","","","","","3","html-slider-response","444","","","","3",""
"null","","","","","3","html-keyboard-response","445","","","","",""
"2225","bonfire","mwezi,goti,mfuko,kusanya","goti","v","3","html-keyboard-response","446","v","goti","true","","4"
"2755","","","","","3","html-slider-response","447","","","","4",""
"null","","","","","3","html-keyboard-response","448","","","","",""
"2334","book","kuhesa,picha,mara,mali","mali","n","3","html-keyboard-response","449","n","mali","true","","4"
"2735","","","","","3","html-slider-response","450","","","","4",""
"null","","","","","3","html-keyboard-response","451","","","","",""
"2598","fish","bala,baho,buli,imani","buli","j","3","html-keyboard-response","452","v","baho","false","","4"
"2456","","","","","3","html-slider-response","453","","","","2",""
"null","","","","","3","html-keyboard-response","454","","","","",""
"7748","spoon","betri,nzuri,pagsulod,ngazi","pagsulod","j","3","html-keyboard-response","455","j","pagsulod","true","","4"
"2345","","","","","3","html-slider-response","456","","","","2",""
"null","","","","","3","html-keyboard-response","457","","","","",""
"2816","scissors","duga,mtawa,suga,tanuri","tanuri","n","3","html-keyboard-response","458","n","tanuri","true","","4"
"2467","","","","","3","html-slider-response","459","","","","2",""
"null","","","","","3","html-keyboard-response","460","","","","",""
"3911","page","wimbo,wakala,ishiri,skina","wimbo","f","3","html-keyboard-response","461","f","wimbo","true","","4"
"2423","","","","","3","html-slider-response","462","","","","1",""
"null","","","","","3","html-keyboard-response","463","","","","",""
"2079","nose","gubat,sehemu,kopa,kidole","sehemu","v","3","html-keyboard-response","464","v","sehemu","true","","1"
"2675","","","","","3","html-slider-response","465","","","","5",""
"null","","","","","3","html-keyboard-response","466","","","","",""
"3332","ceiling","kugita,maua,kawaida,rayna","maua","v","3","html-keyboard-response","467","f","kugita","false","","4"
"2616","","","","","3","html-slider-response","468","","","","2",""
"null","","","","","3","html-keyboard-response","469","","","","",""
"2439","bucket","baga,ijayo,kiatu,init","kiatu","j","3","html-keyboard-response","470","j","kiatu","true","","4"
"2702","","","","","3","html-slider-response","471","","","","4",""
"null","","","","","3","html-keyboard-response","472","","","","",""
"1796","berry","abogado,kofia,nogozi,kinywa","kofia","v","3","html-keyboard-response","473","v","kofia","true","","1"
"2953","","","","","3","html-slider-response","474","","","","5",""
"null","","","","","3","html-keyboard-response","475","","","","",""
"1790","mother","babaye,kahawa,mbuzi,jokofu","babaye","f","3","html-keyboard-response","476","f","babaye","true","","1"
"2636","","","","","3","html-slider-response","477","","","","5",""
"null","","","","","3","html-keyboard-response","478","","","","",""
"1778","mosquito","isda,martilyo,taras,gutom","martilyo","v","3","html-keyboard-response","479","v","martilyo","true","","4"
"2654","","","","","3","html-slider-response","480","","","","5",""
"null","","","","","3","html-keyboard-response","481","","","","",""
"2039","perfume","bino,katuyoan,sungura,ndogo","katuyoan","v","3","html-keyboard-response","482","v","katuyoan","true","","4"
"2719","","","","","3","html-slider-response","483","","","","5",""
"null","","","","","3","html-keyboard-response","484","","","","",""
"2538","sheet","bililhon,juuya,watu,kamantis","bililhon","f","3","html-keyboard-response","485","f","bililhon","true","","4"
"2830","","","","","3","html-slider-response","486","","","","5",""
"null","","","","","3","html-keyboard-response","487","","","","",""
"1722","puppet","mazishi,napulo,lamok,godoro","mazishi","f","3","html-keyboard-response","488","f","mazishi","true","","1"
"2266","","","","","3","html-slider-response","489","","","","5",""
"null","","","","","3","html-keyboard-response","490","","","","",""
"3351","poster","nchi,madungog,fedha,kasuko","madungog","v","3","html-keyboard-response","491","n","kasuko","false","","4"
"2846","","","","","3","html-slider-response","492","","","","2",""
"null","","","","","3","html-keyboard-response","493","","","","",""
"2148","music","baiski,mraba,mageho,tumbo","baiski","f","3","html-keyboard-response","494","f","baiski","true","","4"
"4310","","","","","3","html-slider-response","495","","","","4",""
"null","","","","","3","html-keyboard-response","496","","","","",""
"2368","key","miaka,chombo,goma,ahos","chombo","v","3","html-keyboard-response","497","j","goma","false","","4"
"2322","","","","","3","html-slider-response","498","","","","2",""
"null","","","","","3","html-keyboard-response","499","","","","",""
"6195","sock","ndoora,kimysa,mamba,mtirka","mamba","j","3","html-keyboard-response","500","v","kimysa","false","","4"
"2337","","","","","3","html-slider-response","501","","","","3",""
"null","","","","","3","html-keyboard-response","502","","","","",""
"3531","marker","maji,mapafu,salita,atay","maji","f","3","html-keyboard-response","503","v","mapafu","false","","4"
"2565","","","","","3","html-slider-response","504","","","","4",""
"null","","","","","3","html-keyboard-response","505","","","","",""
"3493","office","hazini,leso,yatima,kuna","leso","v","3","html-keyboard-response","506","v","leso","true","","4"
"2874","","","","","3","html-slider-response","507","","","","4",""
"null","","","","","3","html-keyboard-response","508","","","","",""
"2779","shoe","nyeusi,hatua,kama,uyoga","uyoga","n","3","html-keyboard-response","509","n","uyoga","true","","4"
"4442","","","","","3","html-slider-response","510","","","","3",""
"null","","","","","3","html-keyboard-response","511","","","","",""
"2067","cop","bustani,mechezo,jikoni,bakus","mechezo","v","3","html-keyboard-response","512","v","mechezo","true","","4"
"2129","","","","","3","html-slider-response","513","","","","5",""
"null","","","","","3","html-keyboard-response","514","","","","",""
"2374","bank","silingan,kudhibi,tualya,ofisi","silingan","f","3","html-keyboard-response","515","f","silingan","true","","4"
"2805","","","","","3","html-slider-response","516","","","","4",""
"null","","","","","3","html-keyboard-response","517","","","","",""
"1835","letter","kifua,filimbi,chuma,uhuru","kifua","f","3","html-keyboard-response","518","f","kifua","true","","1"
"2413","","","","","3","html-slider-response","519","","","","5",""
"null","","","","","3","html-keyboard-response","520","","","","",""
"2369","dog","lubi,washia,bahari,kalamu","bahari","j","3","html-keyboard-response","521","j","bahari","true","","1"
"2279","","","","","3","html-slider-response","522","","","","5",""
"null","","","","","3","html-keyboard-response","523","","","","",""
"3659","shop","nopya,samaki,kerida,ndezu","samaki","v","3","html-keyboard-response","524","v","samaki","true","","4"
"2495","","","","","3","html-slider-response","525","","","","4",""
"null","","","","","3","html-keyboard-response","526","","","","",""
"1828","flower","bega,tamasha,lobo,usiku","bega","f","3","html-keyboard-response","527","f","bega","true","","4"
"4343","","","","","3","html-slider-response","528","","","","4",""
"null","","","","","3","html-keyboard-response","529","","","","",""
"1857","cigar","adhabu,ndugu,kuta,mlango","adhabu","f","3","html-keyboard-response","530","f","adhabu","true","","1"
"3391","","","","","3","html-slider-response","531","","","","5",""
"null","","","","","3","html-keyboard-response","532","","","","",""
"4581","hammer","mekno,napakyas,kitovu,layag","napakyas","v","3","html-keyboard-response","533","j","kitovu","false","","4"
"2294","","","","","3","html-slider-response","534","","","","2",""
"null","","","","","3","html-keyboard-response","535","","","","",""
"4675","fork","baboy,mgonjwa,paghago,gorisi","mgonjwa","v","3","html-keyboard-response","536","v","mgonjwa","true","","4"
"2496","","","","","3","html-slider-response","537","","","","2",""
"null","","","","","3","html-keyboard-response","538","","","","",""
"1727","sun","basi,bendi,luha,uongo","basi","f","3","html-keyboard-response","539","f","basi","true","","1"
"2796","","","","","3","html-slider-response","540","","","","5",""
"null","","","","","3","html-keyboard-response","541","","","","",""
"2886","ladder","mashua,mwanga,kamba,pangalan","pangalan","n","3","html-keyboard-response","542","n","pangalan","true","","4"
"3792","","","","","3","html-slider-response","543","","","","3",""
"null","","","","","3","html-keyboard-response","544","","","","",""
"3650","banana","kasamok,kazi,hagdan,twai","kazi","v","3","html-keyboard-response","545","v","kazi","true","","1"
"2402","","","","","3","html-slider-response","546","","","","5",""
"null","","","","","3","html-keyboard-response","547","","","","",""
"4753","pudding","abug,mpishi,iring,aibu","aibu","n","3","html-keyboard-response","548","j","iring","false","","4"
"2201","","","","","3","html-slider-response","549","","","","2",""
"null","","","","","3","html-keyboard-response","550","","","","",""
"2201","body","nyundu,tindashan,jibini,kununa","tindashan","v","3","html-keyboard-response","551","v","tindashan","true","","4"
"2224","","","","","3","html-slider-response","552","","","","5",""
"null","","","","","3","html-keyboard-response","553","","","","",""
"3126","bed","mapintas,kalipay,haraka,starehe","mapintas","f","3","html-keyboard-response","554","f","mapintas","true","","4"
"2119","","","","","3","html-slider-response","555","","","","4",""
"null","","","","","3","html-keyboard-response","556","","","","",""
"3226","tissue","lamigas,kisiwa,katika,ugomvi","ugomvi","n","3","html-keyboard-response","557","j","katika","false","","4"
"1796","","","","","3","html-slider-response","558","","","","2",""
"null","","","","","3","html-keyboard-response","559","","","","",""
"5662","candle","geza,gabi,farasi,kupanda","geza","f","3","html-keyboard-response","560","v","gabi","false","","4"
"2484","","","","","3","html-slider-response","561","","","","2",""
"null","","","","","3","html-keyboard-response","562","","","","",""
"1617","tomato","chupi,mvua,chupa,takatak","mvua","v","3","html-keyboard-response","563","v","mvua","true","","1"
"2054","","","","","3","html-slider-response","564","","","","5",""
"null","","","","","3","html-keyboard-response","565","","","","",""
"2417","list","alizeti,kuzama,wingu,kaso","wingu","j","3","html-keyboard-response","566","f","alizeti","false","","4"
"2146","","","","","3","html-slider-response","567","","","","4",""
"null","","","","","3","html-keyboard-response","568","","","","",""
"4212","olive","jiwe,bata,siagi,welder","jiwe","f","3","html-keyboard-response","569","f","jiwe","true","","4"
"1935","","","","","3","html-slider-response","570","","","","4",""
"null","","","","","3","html-keyboard-response","571","","","","",""
"1455","picture","silya,chaki,asin,kubwa","kubwa","n","3","html-keyboard-response","572","n","kubwa","true","","1"
"2733","","","","","3","html-slider-response","573","","","","5",""
"null","","","","","3","html-keyboard-response","574","","","","",""
