"rt","en_word","options","swa_word","correct_answer","phase","trial_type","trial_index","input_answer","input_word","accuracy","certainty","amt_choices"
"3095","bonfire","mwezi,goti,mfuko,kusanya","goti","v","2","html-keyboard-response","119","v","goti","true","",""
"3640","","","","","2","html-slider-response","120","","","","4",""
"3689","flower","tamasha,lobo,usiku,bega","bega","n","2","html-keyboard-response","121","n","bega","true","",""
"5654.599999904633","","","","","2","html-slider-response","122","","","","1",""
"3991","column","ufagio,pundok,dila,pala","ufagio","f","2","html-keyboard-response","123","n","pala","false","",""
"3168.7999999523163","","","","","2","html-slider-response","124","","","","1",""
"4925","music","baiski,mraba,mageho,tumbo","baiski","f","2","html-keyboard-response","125","f","baiski","true","",""
"4870.799999952316","","","","","2","html-slider-response","126","","","","4",""
"3641","spider","bunyag,mkboa,atop,kamwe","kamwe","n","2","html-keyboard-response","127","n","kamwe","true","",""
"3219.5","","","","","2","html-slider-response","128","","","","1",""
"3449","fork","mgonjwa,baboy,paghago,gorisi","mgonjwa","f","2","html-keyboard-response","129","n","gorisi","false","",""
"2962.2000000476837","","","","","2","html-slider-response","130","","","","1",""
"4982","mosquito","isda,taras,martilyo,gutom","martilyo","j","2","html-keyboard-response","131","j","martilyo","true","",""
"2922.4000000953674","","","","","2","html-slider-response","132","","","","2",""
"3521","banana","kasamok,kazi,hagdan,twai","kazi","v","2","html-keyboard-response","133","v","kazi","true","",""
"2759.4000000953674","","","","","2","html-slider-response","134","","","","2",""
"4519","cup","matumai,dagat,shimoni,jeraha","matumai","f","2","html-keyboard-response","135","v","dagat","false","",""
"2545.600000143051","","","","","2","html-slider-response","136","","","","1",""
"5563","shop","nopya,samaki,kerida,ndezu","samaki","v","2","html-keyboard-response","137","j","kerida","false","",""
"3672","","","","","2","html-slider-response","138","","","","1",""
"12626","elephant","petye,pagduol,suka,kito","kito","n","2","html-keyboard-response","139","j","suka","false","",""
"3799.7000000476837","","","","","2","html-slider-response","140","","","","1",""
"3344","bucket","kiatu,baga,ijayo,init","kiatu","f","2","html-keyboard-response","141","n","init","false","",""
"2424.7000000476837","","","","","2","html-slider-response","142","","","","1",""
"7237","book","kuhesa,picha,mara,mali","mali","n","2","html-keyboard-response","143","n","mali","true","",""
"2774.2999999523163","","","","","2","html-slider-response","144","","","","1",""
"8170","mirror","rangi,kanding,furaha,sulagma","sulagma","n","2","html-keyboard-response","145","v","kanding","false","",""
"3473.0999999046326","","","","","2","html-slider-response","146","","","","1",""
"5070","office","leso,hazini,yatima,kuna","leso","f","2","html-keyboard-response","147","f","leso","true","",""
"3297.0999999046326","","","","","2","html-slider-response","148","","","","2",""
"5298","body","tindashan,nyundu,jibini,kununa","tindashan","f","2","html-keyboard-response","149","f","tindashan","true","",""
"2913.2000000476837","","","","","2","html-slider-response","150","","","","2",""
"5379","perfume","bino,sungura,ndogo,katuyoan","katuyoan","n","2","html-keyboard-response","151","j","ndogo","false","",""
"2846.899999856949","","","","","2","html-slider-response","152","","","","1",""
"5368","olive","bata,siagi,jiwe,welder","jiwe","j","2","html-keyboard-response","153","f","bata","false","",""
"2393.4000000953674","","","","","2","html-slider-response","154","","","","2",""
"6448","magazine","kiti,gundi,mchawi,bahandi","kiti","f","2","html-keyboard-response","155","f","kiti","true","",""
"2450.899999856949","","","","","2","html-slider-response","156","","","","2",""
"4414","bread","dari,kaili,dizeli,bugas","dari","f","2","html-keyboard-response","157","f","dari","true","",""
"2883.2999999523163","","","","","2","html-slider-response","158","","","","2",""
"4070","cave","ganti,maisha,nyundo,kesho","kesho","n","2","html-keyboard-response","159","j","nyundo","false","",""
"3123","","","","","2","html-slider-response","160","","","","1",""
"5477","ladder","mashua,pangalan,mwanga,kamba","pangalan","v","2","html-keyboard-response","161","n","kamba","false","",""
"2405.5","","","","","2","html-slider-response","162","","","","1",""
"5429","human","bado,tinapay,kikapu,punguza","tinapay","v","2","html-keyboard-response","163","v","tinapay","true","",""
"2666.5","","","","","2","html-slider-response","164","","","","1",""
"5148","clock","kartasi,mbwa,abang,osha","mbwa","v","2","html-keyboard-response","165","n","osha","false","",""
"2647.5","","","","","2","html-slider-response","166","","","","1",""
"5810","shelf","bungtod,kadaot,awit,pamahaw","pamahaw","n","2","html-keyboard-response","167","j","awit","false","",""
"2053.600000143051","","","","","2","html-slider-response","168","","","","1",""
"4107","salmon","sensilyo,mzungu,seri,baharia","sensilyo","f","2","html-keyboard-response","169","v","mzungu","false","",""
"3258.5999999046326","","","","","2","html-slider-response","170","","","","1",""
"4782","coffin","barua,kioo,tubag,hulma","kioo","v","2","html-keyboard-response","171","v","kioo","true","",""
"3749.5","","","","","2","html-slider-response","172","","","","4",""
"3803","notebook","msitu,kemia,kila,mdudu","kemia","v","2","html-keyboard-response","173","v","kemia","true","",""
"2471.0999999046326","","","","","2","html-slider-response","174","","","","1",""
"4824","shoulder","kelele,ndaniya,guruwe,mkuu","mkuu","n","2","html-keyboard-response","175","n","mkuu","true","",""
"2814.4000000953674","","","","","2","html-slider-response","176","","","","1",""
"6006","park","tambok,bunifu,pwani,ihalas","bunifu","v","2","html-keyboard-response","177","j","pwani","false","",""
"2341.399999856949","","","","","2","html-slider-response","178","","","","1",""
"3634","number","shule,kengele,choori,mundamo","mundamo","n","2","html-keyboard-response","179","j","choori","false","",""
"2470.2000000476837","","","","","2","html-slider-response","180","","","","1",""
"5115","apple","ukame,kisu,estante,edad","kisu","v","2","html-keyboard-response","181","j","estante","false","",""
"2427.5","","","","","2","html-slider-response","182","","","","1",""
"5346","letter","filimbi,chuma,uhuru,kifua","kifua","n","2","html-keyboard-response","183","f","filimbi","false","",""
"2347.800000190735","","","","","2","html-slider-response","184","","","","1",""
"5281","eel","ishara,kunywa,msumari,kabuang","msumari","j","2","html-keyboard-response","185","j","msumari","true","",""
"2385.0999999046326","","","","","2","html-slider-response","186","","","","4",""
"3893","cop","bustani,jikoni,mechezo,bakus","mechezo","j","2","html-keyboard-response","187","j","mechezo","true","",""
"2252.9000000953674","","","","","2","html-slider-response","188","","","","1",""
"4301","wolf","kaburi,lugha,ndizi,mchuzi","lugha","v","2","html-keyboard-response","189","v","lugha","true","",""
"3092.2999999523163","","","","","2","html-slider-response","190","","","","2",""
"5041","squirrel","mahugaw,ukweli,hofu,kichwa","hofu","j","2","html-keyboard-response","191","n","kichwa","false","",""
"2945.199999809265","","","","","2","html-slider-response","192","","","","1",""
"4259","nose","gubat,kopa,sehemu,kidole","sehemu","j","2","html-keyboard-response","193","j","sehemu","true","",""
"5367.400000095367","","","","","2","html-slider-response","194","","","","1",""
"8115","sock","mamba,ndoora,kimysa,mtirka","mamba","f","2","html-keyboard-response","195","f","mamba","true","",""
"2294.9000000953674","","","","","2","html-slider-response","196","","","","1",""
"3829","bank","kudhibi,tualya,silingan,ofisi","silingan","j","2","html-keyboard-response","197","j","silingan","true","",""
"2683.399999856949","","","","","2","html-slider-response","198","","","","1",""
"6687","donkey","bloke,lalake,rombus,elfu","elfu","n","2","html-keyboard-response","199","v","lalake","false","",""
"2706.199999809265","","","","","2","html-slider-response","200","","","","1",""
"5668","poster","nchi,madungog,fedha,kasuko","madungog","v","2","html-keyboard-response","201","n","kasuko","false","",""
"2290.5","","","","","2","html-slider-response","202","","","","1",""
"2972","puppet","napulo,lamok,godoro,mazishi","mazishi","n","2","html-keyboard-response","203","j","godoro","false","",""
"2751.0999999046326","","","","","2","html-slider-response","204","","","","1",""
"3665","hill","matumbo,kushoto,kukimba,sweta","matumbo","f","2","html-keyboard-response","205","n","sweta","false","",""
"2773.2000000476837","","","","","2","html-slider-response","206","","","","1",""
"4139","tooth","kabalaka,kijiko,uadui,pahiyum","kabalaka","f","2","html-keyboard-response","207","n","pahiyum","false","",""
"3356","","","","","2","html-slider-response","208","","","","1",""
"7748","woman","bandari,pagtabon,bituin,kovuli","pagtabon","v","2","html-keyboard-response","209","f","bandari","false","",""
"2721.899999856949","","","","","2","html-slider-response","210","","","","1",""
"4609","wheel","punda,tawo,baadaye,bafuni","bafuni","n","2","html-keyboard-response","211","f","punda","false","",""
"2374.5","","","","","2","html-slider-response","212","","","","1",""
"6418","mother","babaye,kahawa,mbuzi,jokofu","babaye","f","2","html-keyboard-response","213","f","babaye","true","",""
"2162.2000000476837","","","","","2","html-slider-response","214","","","","1",""
"3119","bed","mapintas,kalipay,haraka,starehe","mapintas","f","2","html-keyboard-response","215","j","haraka","false","",""
"2711.9000000953674","","","","","2","html-slider-response","216","","","","1",""
"4284","key","miaka,goma,ahos,chombo","chombo","n","2","html-keyboard-response","217","v","goma","false","",""
"2135.100000143051","","","","","2","html-slider-response","218","","","","1",""
"4375","page","wakala,wimbo,ishiri,skina","wimbo","v","2","html-keyboard-response","219","n","skina","false","",""
"2152.5","","","","","2","html-slider-response","220","","","","1",""
"4940","pants","pintal,chuki,haki,hari","haki","j","2","html-keyboard-response","221","j","haki","true","",""
"2639.899999856949","","","","","2","html-slider-response","222","","","","2",""
"4941","sun","bendi,basi,luha,uongo","basi","v","2","html-keyboard-response","223","j","luha","false","",""
"2930.399999856949","","","","","2","html-slider-response","224","","","","2",""
"2627","finger","simu,moyo,sufuria,lima","moyo","v","2","html-keyboard-response","225","f","simu","false","",""
"2644.9000000953674","","","","","2","html-slider-response","226","","","","1",""
"4019","shoe","uyoga,nyeusi,hatua,kama","uyoga","f","2","html-keyboard-response","227","j","hatua","false","",""
"3027.2000000476837","","","","","2","html-slider-response","228","","","","1",""
"4341","giraffe","daraja,jumatu,mahitabo,hangyo","mahitabo","j","2","html-keyboard-response","229","j","mahitabo","true","",""
"2480.100000143051","","","","","2","html-slider-response","230","","","","1",""
"9635","dog","bahari,lubi,washia,kalamu","bahari","f","2","html-keyboard-response","231","v","lubi","false","",""
"2465.0999999046326","","","","","2","html-slider-response","232","","","","1",""
"4142","box","kuacha,rafiki,adui,kitande","adui","j","2","html-keyboard-response","233","v","rafiki","false","",""
"2555.7999999523163","","","","","2","html-slider-response","234","","","","1",""
"4704","scissors","duga,tanuri,mtawa,suga","tanuri","v","2","html-keyboard-response","235","f","duga","false","",""
"2777.7000000476837","","","","","2","html-slider-response","236","","","","1",""
"7248","cat","neyemba,paghukom,baki,akili","paghukom","v","2","html-keyboard-response","237","v","paghukom","true","",""
"2438.2000000476837","","","","","2","html-slider-response","238","","","","2",""
"3043","basket","kumbuka,kumba,utepe,hasira","kumba","v","2","html-keyboard-response","239","n","hasira","false","",""
"2739.800000190735","","","","","2","html-slider-response","240","","","","1",""
"6802","snake","jansa,pagtukod,karon,mvringo","pagtukod","v","2","html-keyboard-response","241","f","jansa","false","",""
"3040","","","","","2","html-slider-response","242","","","","1",""
"4970","gift","baba,nyange,pagtawag,baso","pagtawag","j","2","html-keyboard-response","243","v","nyange","false","",""
"2375.5","","","","","2","html-slider-response","244","","","","1",""
"3967","train","itik,dakika,sayari,mungu","sayari","j","2","html-keyboard-response","245","n","mungu","false","",""
"2847.2000000476837","","","","","2","html-slider-response","246","","","","1",""
"3748","pudding","abug,mpishi,iring,aibu","aibu","n","2","html-keyboard-response","247","v","mpishi","false","",""
"2369.7999999523163","","","","","2","html-slider-response","248","","","","1",""
"3957","tomato","chupi,mvua,chupa,takatak","mvua","v","2","html-keyboard-response","249","v","mvua","true","",""
"2487.5","","","","","2","html-slider-response","250","","","","1",""
"4078","stone","ulimwengu,mkasi,wingi,asili","wingi","j","2","html-keyboard-response","251","j","wingi","true","",""
"2727.600000143051","","","","","2","html-slider-response","252","","","","1",""
"4585","hammer","napakyas,mekno,kitovu,layag","napakyas","f","2","html-keyboard-response","253","v","mekno","false","",""
"2193.2000000476837","","","","","2","html-slider-response","254","","","","1",""
"3938","knee","mvuke,duka,kubale,bili","duka","v","2","html-keyboard-response","255","n","bili","false","",""
"3072.9000000953674","","","","","2","html-slider-response","256","","","","1",""
"8391","ceiling","maua,kugita,kawaida,rayna","maua","f","2","html-keyboard-response","257","n","rayna","false","",""
"2371.399999856949","","","","","2","html-slider-response","258","","","","2",""
"5127","spoon","betri,pagsulod,nzuri,ngazi","pagsulod","v","2","html-keyboard-response","259","f","betri","false","",""
"2558.899999856949","","","","","2","html-slider-response","260","","","","2",""
"6321","marker","mapafu,salita,maji,atay","maji","j","2","html-keyboard-response","261","n","atay","false","",""
"2285.7999999523163","","","","","2","html-slider-response","262","","","","1",""
"3996","candle","gabi,farasi,kupanda,geza","geza","n","2","html-keyboard-response","263","j","kupanda","false","",""
"2503.4000000953674","","","","","2","html-slider-response","264","","","","1",""
"5132","tissue","ugomvi,lamigas,kisiwa,katika","ugomvi","f","2","html-keyboard-response","265","f","ugomvi","true","",""
"2131.7999999523163","","","","","2","html-slider-response","266","","","","1",""
"3584","bridge","sahani,daima,ngono,panya","sahani","f","2","html-keyboard-response","267","n","panya","false","",""
"2867.5999999046326","","","","","2","html-slider-response","268","","","","1",""
"2729","berry","abogado,nogozi,kofia,kinywa","kofia","j","2","html-keyboard-response","269","j","kofia","true","",""
"2680","","","","","2","html-slider-response","270","","","","1",""
"2617","triangle","kihozi,kasadpan,bentaha,liog","kasadpan","v","2","html-keyboard-response","271","n","liog","false","",""
"2476","","","","","2","html-slider-response","272","","","","1",""
"3642","door","tena,soko,surali,nyota","surali","j","2","html-keyboard-response","273","f","tena","false","",""
"2469.0999999046326","","","","","2","html-slider-response","274","","","","1",""
"3238","fish","buli,bala,baho,imani","buli","f","2","html-keyboard-response","275","f","buli","true","",""
"2333.199999809265","","","","","2","html-slider-response","276","","","","4",""
"4641","curtain","lisud,mchanga,bulwawan,chubani","mchanga","v","2","html-keyboard-response","277","v","mchanga","true","",""
"2600.899999856949","","","","","2","html-slider-response","278","","","","1",""
"4356","flag","trekta,ndege,mkate,kawa","trekta","f","2","html-keyboard-response","279","f","trekta","true","",""
"2553.0999999046326","","","","","2","html-slider-response","280","","","","4",""
"6013","boat","hamsi,pombe,agalon,kitanda","agalon","j","2","html-keyboard-response","281","f","hamsi","false","",""
"2934","","","","","2","html-slider-response","282","","","","2",""
"7946","rose","singizi,mwanake,paghalad,amani","paghalad","j","2","html-keyboard-response","283","j","paghalad","true","",""
"3047.800000190735","","","","","2","html-slider-response","284","","","","2",""
"4785","lamp","daub,afya,bilaska,mbolea","afya","v","2","html-keyboard-response","285","j","bilaska","false","",""
"2688.5999999046326","","","","","2","html-slider-response","286","","","","1",""
"4640","cigar","ndugu,kuta,adhabu,mlango","adhabu","j","2","html-keyboard-response","287","n","mlango","false","",""
"2247.2999999523163","","","","","2","html-slider-response","288","","","","1",""
"4942","list","alizeti,kuzama,kaso,wingu","wingu","n","2","html-keyboard-response","289","v","kuzama","false","",""
"2677.5999999046326","","","","","2","html-slider-response","290","","","","1",""
"4784","sheet","juuya,watu,kamantis,bililhon","bililhon","n","2","html-keyboard-response","291","n","bililhon","true","",""
"2035.7000000476837","","","","","2","html-slider-response","292","","","","1",""
"3567","picture","silya,kubwa,chaki,asin","kubwa","v","2","html-keyboard-response","293","v","kubwa","true","",""
"2180.9000000953674","","","","","2","html-slider-response","294","","","","1",""
"3635","towel","tembo,funzi,pagpalit,pito","pagpalit","j","2","html-keyboard-response","295","n","pito","false","",""
"3861.600000143051","","","","","2","html-slider-response","296","","","","1",""
"3923","window","nanga,kujenga,umaga,kweli","kweli","n","2","html-keyboard-response","297","f","nanga","false","",""
"2180.899999856949","","","","","2","html-slider-response","298","","","","1",""
"4928","box","kuacha,rafiki,kitande,adui","adui","n","3","html-keyboard-response","315","v","rafiki","false","","4"
"3838.0999999046326","","","","","3","html-slider-response","316","","","","1",""
"null","","","","","3","html-keyboard-response","317","","","","",""
"3963","pants","haki,pintal,chuki,hari","haki","f","3","html-keyboard-response","318","f","haki","true","","4"
"3416.2999999523163","","","","","3","html-slider-response","319","","","","2",""
"null","","","","","3","html-keyboard-response","320","","","","",""
"3484","cup","dagat,shimoni,jeraha,matumai","matumai","n","3","html-keyboard-response","321","f","dagat","false","","4"
"2845.2000000476837","","","","","3","html-slider-response","322","","","","2",""
"null","","","","","3","html-keyboard-response","323","","","","",""
"3997","triangle","kihozi,bentaha,liog,kasadpan","kasadpan","n","3","html-keyboard-response","324","j","liog","false","","4"
"2750.5999999046326","","","","","3","html-slider-response","325","","","","1",""
"null","","","","","3","html-keyboard-response","326","","","","",""
"3543","curtain","lisud,mchanga,bulwawan,chubani","mchanga","v","3","html-keyboard-response","327","v","mchanga","true","","4"
"3432.7000000476837","","","","","3","html-slider-response","328","","","","1",""
"null","","","","","3","html-keyboard-response","329","","","","",""
"3848","clock","kartasi,abang,osha,mbwa","mbwa","n","3","html-keyboard-response","330","j","osha","false","","4"
"2395.5","","","","","3","html-slider-response","331","","","","1",""
"null","","","","","3","html-keyboard-response","332","","","","",""
"3258","mirror","sulagma,rangi,kanding,furaha","sulagma","f","3","html-keyboard-response","333","v","rangi","false","","4"
"2173.0999999046326","","","","","3","html-slider-response","334","","","","1",""
"null","","","","","3","html-keyboard-response","335","","","","",""
"3125","coffin","barua,tubag,kioo,hulma","kioo","j","3","html-keyboard-response","336","j","kioo","true","","1"
"3247.7999999523163","","","","","3","html-slider-response","337","","","","5",""
"null","","","","","3","html-keyboard-response","338","","","","",""
"4009","magazine","gundi,mchawi,bahandi,kiti","kiti","n","3","html-keyboard-response","339","n","kiti","true","","4"
"2529.600000143051","","","","","3","html-slider-response","340","","","","2",""
"null","","","","","3","html-keyboard-response","341","","","","",""
"3015","column","pundok,ufagio,dila,pala","ufagio","v","3","html-keyboard-response","342","v","ufagio","true","","1"
"2801.4000000953674","","","","","3","html-slider-response","343","","","","5",""
"null","","","","","3","html-keyboard-response","344","","","","",""
"3078","number","shule,kengele,choori,mundamo","mundamo","n","3","html-keyboard-response","345","j","choori","false","","4"
"2835.600000143051","","","","","3","html-slider-response","346","","","","1",""
"null","","","","","3","html-keyboard-response","347","","","","",""
"5571","rose","singizi,paghalad,mwanake,amani","paghalad","v","3","html-keyboard-response","348","j","mwanake","false","","4"
"2305.4000000953674","","","","","3","html-slider-response","349","","","","1",""
"null","","","","","3","html-keyboard-response","350","","","","",""
"4706","eel","ishara,kunywa,kabuang,msumari","msumari","n","3","html-keyboard-response","351","n","msumari","true","","4"
"2818.7000000476837","","","","","3","html-slider-response","352","","","","2",""
"null","","","","","3","html-keyboard-response","353","","","","",""
"4405","gift","baba,nyange,baso,pagtawag","pagtawag","n","3","html-keyboard-response","354","v","nyange","false","","4"
"4067.5","","","","","3","html-slider-response","355","","","","1",""
"null","","","","","3","html-keyboard-response","356","","","","",""
"2107","apple","ukame,estante,edad,kisu","kisu","n","3","html-keyboard-response","357","n","kisu","true","","1"
"2465.5","","","","","3","html-slider-response","358","","","","5",""
"null","","","","","3","html-keyboard-response","359","","","","",""
"2073","wheel","punda,tawo,baadaye,bafuni","bafuni","n","3","html-keyboard-response","360","n","bafuni","true","","1"
"3938.2999999523163","","","","","3","html-slider-response","361","","","","5",""
"null","","","","","3","html-keyboard-response","362","","","","",""
"6222","knee","mvuke,duka,kubale,bili","duka","v","3","html-keyboard-response","363","j","kubale","false","","4"
"2687.100000143051","","","","","3","html-slider-response","364","","","","1",""
"null","","","","","3","html-keyboard-response","365","","","","",""
"2599","basket","kumbuka,kumba,utepe,hasira","kumba","v","3","html-keyboard-response","366","v","kumba","true","","1"
"3876.7999999523163","","","","","3","html-slider-response","367","","","","5",""
"null","","","","","3","html-keyboard-response","368","","","","",""
"3858","park","tambok,pwani,bunifu,ihalas","bunifu","j","3","html-keyboard-response","369","v","pwani","false","","4"
"2694.5","","","","","3","html-slider-response","370","","","","2",""
"null","","","","","3","html-keyboard-response","371","","","","",""
"4053","finger","simu,sufuria,lima,moyo","moyo","n","3","html-keyboard-response","372","f","simu","false","","4"
"2637.7999999523163","","","","","3","html-slider-response","373","","","","2",""
"null","","","","","3","html-keyboard-response","374","","","","",""
"4195","boat","hamsi,agalon,pombe,kitanda","agalon","v","3","html-keyboard-response","375","f","hamsi","false","","4"
"3802.100000143051","","","","","3","html-slider-response","376","","","","2",""
"null","","","","","3","html-keyboard-response","377","","","","",""
"4438","hill","kushoto,kukimba,matumbo,sweta","matumbo","j","3","html-keyboard-response","378","v","kukimba","false","","4"
"2712.2999999523163","","","","","3","html-slider-response","379","","","","1",""
"null","","","","","3","html-keyboard-response","380","","","","",""
"4321","train","itik,dakika,sayari,mungu","sayari","j","3","html-keyboard-response","381","n","mungu","false","","4"
"3586.2999999523163","","","","","3","html-slider-response","382","","","","1",""
"null","","","","","3","html-keyboard-response","383","","","","",""
"3236","wolf","kaburi,ndizi,lugha,mchuzi","lugha","j","3","html-keyboard-response","384","j","lugha","true","","4"
"2435.5999999046326","","","","","3","html-slider-response","385","","","","1",""
"null","","","","","3","html-keyboard-response","386","","","","",""
"5548","snake","jansa,karon,pagtukod,mvringo","pagtukod","j","3","html-keyboard-response","387","j","pagtukod","true","","4"
"3455.100000143051","","","","","3","html-slider-response","388","","","","1",""
"null","","","","","3","html-keyboard-response","389","","","","",""
"3596","tooth","kijiko,kabalaka,uadui,pahiyum","kabalaka","v","3","html-keyboard-response","390","n","pahiyum","false","","4"
"2660.7999999523163","","","","","3","html-slider-response","391","","","","1",""
"null","","","","","3","html-keyboard-response","392","","","","",""
"2221","notebook","msitu,kila,mdudu,kemia","kemia","n","3","html-keyboard-response","393","n","kemia","true","","4"
"2961.899999856949","","","","","3","html-slider-response","394","","","","1",""
"null","","","","","3","html-keyboard-response","395","","","","",""
"3176","flag","ndege,trekta,mkate,kawa","trekta","v","3","html-keyboard-response","396","v","trekta","true","","4"
"3835.2000000476837","","","","","3","html-slider-response","397","","","","5",""
"null","","","","","3","html-keyboard-response","398","","","","",""
"3883","squirrel","hofu,mahugaw,ukweli,kichwa","hofu","f","3","html-keyboard-response","399","v","mahugaw","false","","4"
"3297.7999999523163","","","","","3","html-slider-response","400","","","","1",""
"null","","","","","3","html-keyboard-response","401","","","","",""
"4287","door","tena,soko,nyota,surali","surali","n","3","html-keyboard-response","402","v","soko","false","","4"
"3519.7000000476837","","","","","3","html-slider-response","403","","","","1",""
"null","","","","","3","html-keyboard-response","404","","","","",""
"4218","salmon","sensilyo,mzungu,seri,baharia","sensilyo","f","3","html-keyboard-response","405","n","baharia","false","","4"
"2346","","","","","3","html-slider-response","406","","","","1",""
"null","","","","","3","html-keyboard-response","407","","","","",""
"4674","shoulder","kelele,ndaniya,mkuu,guruwe","mkuu","j","3","html-keyboard-response","408","n","guruwe","false","","4"
"2728.0999999046326","","","","","3","html-slider-response","409","","","","1",""
"null","","","","","3","html-keyboard-response","410","","","","",""
"4824","lamp","afya,daub,bilaska,mbolea","afya","f","3","html-keyboard-response","411","f","afya","true","","4"
"2827.9000000953674","","","","","3","html-slider-response","412","","","","1",""
"null","","","","","3","html-keyboard-response","413","","","","",""
"2023","shelf","bungtod,kadaot,pamahaw,awit","pamahaw","j","3","html-keyboard-response","414","j","pamahaw","true","","1"
"4429","","","","","3","html-slider-response","415","","","","5",""
"null","","","","","3","html-keyboard-response","416","","","","",""
"5222","human","bado,kikapu,punguza,tinapay","tinapay","n","3","html-keyboard-response","417","n","tinapay","true","","4"
"2612.5999999046326","","","","","3","html-slider-response","418","","","","1",""
"null","","","","","3","html-keyboard-response","419","","","","",""
"4640","towel","tembo,pagpalit,funzi,pito","pagpalit","v","3","html-keyboard-response","420","n","pito","false","","4"
"2586.4000000953674","","","","","3","html-slider-response","421","","","","1",""
"null","","","","","3","html-keyboard-response","422","","","","",""
"4650","cat","neyemba,paghukom,baki,akili","paghukom","v","3","html-keyboard-response","423","v","paghukom","true","","4"
"2421.2999999523163","","","","","3","html-slider-response","424","","","","2",""
"null","","","","","3","html-keyboard-response","425","","","","",""
"3381","spider","kamwe,bunyag,mkboa,atop","kamwe","f","3","html-keyboard-response","426","v","bunyag","false","","4"
"2913.2000000476837","","","","","3","html-slider-response","427","","","","1",""
"null","","","","","3","html-keyboard-response","428","","","","",""
"5812","window","nanga,kujenga,umaga,kweli","kweli","n","3","html-keyboard-response","429","v","kujenga","false","","4"
"2457.699999809265","","","","","3","html-slider-response","430","","","","1",""
"null","","","","","3","html-keyboard-response","431","","","","",""
"2589","woman","pagtabon,bandari,bituin,kovuli","pagtabon","f","3","html-keyboard-response","432","f","pagtabon","true","","1"
"2884.9000000953674","","","","","3","html-slider-response","433","","","","5",""
"null","","","","","3","html-keyboard-response","434","","","","",""
"4260","giraffe","daraja,jumatu,mahitabo,hangyo","mahitabo","j","3","html-keyboard-response","435","j","mahitabo","true","","4"
"2909.7000000476837","","","","","3","html-slider-response","436","","","","1",""
"null","","","","","3","html-keyboard-response","437","","","","",""
"3792","elephant","petye,kito,pagduol,suka","kito","v","3","html-keyboard-response","438","j","pagduol","false","","4"
"2950.5","","","","","3","html-slider-response","439","","","","1",""
"null","","","","","3","html-keyboard-response","440","","","","",""
"2615","cave","ganti,kesho,maisha,nyundo","kesho","v","3","html-keyboard-response","441","j","maisha","false","","4"
"2624","","","","","3","html-slider-response","442","","","","1",""
"null","","","","","3","html-keyboard-response","443","","","","",""
"3195","bread","kaili,dari,dizeli,bugas","dari","v","3","html-keyboard-response","444","v","dari","true","","4"
"2328.5999999046326","","","","","3","html-slider-response","445","","","","2",""
"null","","","","","3","html-keyboard-response","446","","","","",""
"3018","stone","ulimwengu,mkasi,asili,wingi","wingi","n","3","html-keyboard-response","447","j","asili","false","","4"
"2527.9000000953674","","","","","3","html-slider-response","448","","","","1",""
"null","","","","","3","html-keyboard-response","449","","","","",""
"4376","donkey","bloke,lalake,elfu,rombus","elfu","j","3","html-keyboard-response","450","v","lalake","false","","4"
"2727.199999809265","","","","","3","html-slider-response","451","","","","1",""
"null","","","","","3","html-keyboard-response","452","","","","",""
"3024","bridge","sahani,daima,ngono,panya","sahani","f","3","html-keyboard-response","453","n","panya","false","","4"
"2437.4000000953674","","","","","3","html-slider-response","454","","","","1",""
"null","","","","","3","html-keyboard-response","455","","","","",""
"3259","bonfire","mwezi,goti,mfuko,kusanya","goti","v","3","html-keyboard-response","456","v","goti","true","","4"
"3797.5","","","","","3","html-slider-response","457","","","","5",""
"null","","","","","3","html-keyboard-response","458","","","","",""
"3557","book","kuhesa,picha,mali,mara","mali","j","3","html-keyboard-response","459","j","mali","true","","4"
"2184.5","","","","","3","html-slider-response","460","","","","1",""
"null","","","","","3","html-keyboard-response","461","","","","",""
"5091","fish","buli,bala,baho,imani","buli","f","3","html-keyboard-response","462","f","buli","true","","4"
"2658","","","","","3","html-slider-response","463","","","","4",""
"null","","","","","3","html-keyboard-response","464","","","","",""
"9034","spoon","pagsulod,betri,nzuri,ngazi","pagsulod","f","3","html-keyboard-response","465","j","nzuri","false","","4"
"3089.5","","","","","3","html-slider-response","466","","","","1",""
"null","","","","","3","html-keyboard-response","467","","","","",""
"4840","scissors","tanuri,duga,mtawa,suga","tanuri","f","3","html-keyboard-response","468","f","tanuri","true","","4"
"2995.199999809265","","","","","3","html-slider-response","469","","","","1",""
"null","","","","","3","html-keyboard-response","470","","","","",""
"2830","page","wakala,ishiri,skina,wimbo","wimbo","n","3","html-keyboard-response","471","j","skina","false","","4"
"2262","","","","","3","html-slider-response","472","","","","1",""
"null","","","","","3","html-keyboard-response","473","","","","",""
"1687","nose","gubat,kopa,sehemu,kidole","sehemu","j","3","html-keyboard-response","474","j","sehemu","true","","1"
"2765.2999999523163","","","","","3","html-slider-response","475","","","","1",""
"null","","","","","3","html-keyboard-response","476","","","","",""
"4902","ceiling","kugita,kawaida,rayna,maua","maua","n","3","html-keyboard-response","477","j","rayna","false","","4"
"3956.800000190735","","","","","3","html-slider-response","478","","","","2",""
"null","","","","","3","html-keyboard-response","479","","","","",""
"3831","bucket","baga,ijayo,kiatu,init","kiatu","j","3","html-keyboard-response","480","n","init","false","","4"
"2632.300000190735","","","","","3","html-slider-response","481","","","","1",""
"null","","","","","3","html-keyboard-response","482","","","","",""
"2880","berry","kofia,abogado,nogozi,kinywa","kofia","f","3","html-keyboard-response","483","f","kofia","true","","1"
"4023.5","","","","","3","html-slider-response","484","","","","5",""
"null","","","","","3","html-keyboard-response","485","","","","",""
"2092","mother","kahawa,babaye,mbuzi,jokofu","babaye","v","3","html-keyboard-response","486","v","babaye","true","","1"
"3318.9000000953674","","","","","3","html-slider-response","487","","","","5",""
"null","","","","","3","html-keyboard-response","488","","","","",""
"4332","mosquito","isda,taras,martilyo,gutom","martilyo","j","3","html-keyboard-response","489","j","martilyo","true","","4"
"2978","","","","","3","html-slider-response","490","","","","4",""
"null","","","","","3","html-keyboard-response","491","","","","",""
"2636","perfume","katuyoan,bino,sungura,ndogo","katuyoan","f","3","html-keyboard-response","492","v","bino","false","","4"
"2685.7000000476837","","","","","3","html-slider-response","493","","","","1",""
"null","","","","","3","html-keyboard-response","494","","","","",""
"2245","sheet","juuya,bililhon,watu,kamantis","bililhon","v","3","html-keyboard-response","495","j","watu","false","","4"
"2493.0999999046326","","","","","3","html-slider-response","496","","","","1",""
"null","","","","","3","html-keyboard-response","497","","","","",""
"1921","puppet","napulo,lamok,godoro,mazishi","mazishi","n","3","html-keyboard-response","498","n","mazishi","true","","1"
"4307.899999856949","","","","","3","html-slider-response","499","","","","5",""
"null","","","","","3","html-keyboard-response","500","","","","",""
"4704","poster","nchi,fedha,madungog,kasuko","madungog","j","3","html-keyboard-response","501","f","nchi","false","","4"
"2625.2999999523163","","","","","3","html-slider-response","502","","","","1",""
"null","","","","","3","html-keyboard-response","503","","","","",""
"2381","music","mraba,mageho,baiski,tumbo","baiski","j","3","html-keyboard-response","504","j","baiski","true","","4"
"2682.5999999046326","","","","","3","html-slider-response","505","","","","4",""
"null","","","","","3","html-keyboard-response","506","","","","",""
"2358","key","miaka,goma,chombo,ahos","chombo","j","3","html-keyboard-response","507","n","ahos","false","","4"
"2892.7999999523163","","","","","3","html-slider-response","508","","","","1",""
"null","","","","","3","html-keyboard-response","509","","","","",""
"2260","sock","ndoora,mamba,kimysa,mtirka","mamba","v","3","html-keyboard-response","510","j","kimysa","false","","4"
"2526","","","","","3","html-slider-response","511","","","","1",""
"null","","","","","3","html-keyboard-response","512","","","","",""
"3875","marker","mapafu,salita,atay,maji","maji","n","3","html-keyboard-response","513","j","atay","false","","4"
"2651.199999809265","","","","","3","html-slider-response","514","","","","1",""
"null","","","","","3","html-keyboard-response","515","","","","",""
"3785","office","hazini,yatima,kuna,leso","leso","n","3","html-keyboard-response","516","n","leso","true","","4"
"2039.8999998569489","","","","","3","html-slider-response","517","","","","2",""
"null","","","","","3","html-keyboard-response","518","","","","",""
"5651","shoe","nyeusi,uyoga,hatua,kama","uyoga","v","3","html-keyboard-response","519","f","nyeusi","false","","4"
"2535.2000000476837","","","","","3","html-slider-response","520","","","","1",""
"null","","","","","3","html-keyboard-response","521","","","","",""
"27219","cop","bustani,mechezo,jikoni,bakus","mechezo","v","3","html-keyboard-response","522","v","mechezo","true","","4"
"5031.900000095367","","","","","3","html-slider-response","523","","","","2",""
"null","","","","","3","html-keyboard-response","524","","","","",""
"4651","bank","kudhibi,tualya,ofisi,silingan","silingan","n","3","html-keyboard-response","525","j","ofisi","false","","4"
"3808.5999999046326","","","","","3","html-slider-response","526","","","","1",""
"null","","","","","3","html-keyboard-response","527","","","","",""
"2802","letter","filimbi,chuma,kifua,uhuru","kifua","j","3","html-keyboard-response","528","j","kifua","true","","1"
"3480","","","","","3","html-slider-response","529","","","","5",""
"null","","","","","3","html-keyboard-response","530","","","","",""
"3078","dog","bahari,lubi,washia,kalamu","bahari","f","3","html-keyboard-response","531","f","bahari","true","","1"
"3761.7000000476837","","","","","3","html-slider-response","532","","","","5",""
"null","","","","","3","html-keyboard-response","533","","","","",""
"5050","shop","nopya,samaki,kerida,ndezu","samaki","v","3","html-keyboard-response","534","j","kerida","false","","4"
"3766.7999999523163","","","","","3","html-slider-response","535","","","","1",""
"null","","","","","3","html-keyboard-response","536","","","","",""
"5934","flower","tamasha,lobo,bega,usiku","bega","j","3","html-keyboard-response","537","n","usiku","false","","4"
"3274.100000143051","","","","","3","html-slider-response","538","","","","1",""
"null","","","","","3","html-keyboard-response","539","","","","",""
"2442","cigar","ndugu,kuta,mlango,adhabu","adhabu","n","3","html-keyboard-response","540","n","adhabu","true","","1"
"9018.799999952316","","","","","3","html-slider-response","541","","","","5",""
"null","","","","","3","html-keyboard-response","542","","","","",""
"2963","hammer","mekno,napakyas,kitovu,layag","napakyas","v","3","html-keyboard-response","543","j","kitovu","false","","4"
"4279.799999952316","","","","","3","html-slider-response","544","","","","1",""
"null","","","","","3","html-keyboard-response","545","","","","",""
"4871","fork","baboy,paghago,mgonjwa,gorisi","mgonjwa","j","3","html-keyboard-response","546","n","gorisi","false","","4"
"2819.0999999046326","","","","","3","html-slider-response","547","","","","1",""
"null","","","","","3","html-keyboard-response","548","","","","",""
"2457","sun","bendi,luha,uongo,basi","basi","n","3","html-keyboard-response","549","n","basi","true","","1"
"3392.0999999046326","","","","","3","html-slider-response","550","","","","5",""
"null","","","","","3","html-keyboard-response","551","","","","",""
"3997","ladder","mashua,pangalan,mwanga,kamba","pangalan","v","3","html-keyboard-response","552","n","kamba","false","","4"
"2208.399999856949","","","","","3","html-slider-response","553","","","","1",""
"null","","","","","3","html-keyboard-response","554","","","","",""
"1927","banana","kazi,kasamok,hagdan,twai","kazi","f","3","html-keyboard-response","555","f","kazi","true","","1"
"4021.699999809265","","","","","3","html-slider-response","556","","","","5",""
"null","","","","","3","html-keyboard-response","557","","","","",""
"4062","pudding","abug,aibu,mpishi,iring","aibu","v","3","html-keyboard-response","558","v","aibu","true","","4"
"2398.7000000476837","","","","","3","html-slider-response","559","","","","1",""
"null","","","","","3","html-keyboard-response","560","","","","",""
"3263","body","nyundu,jibini,kununa,tindashan","tindashan","n","3","html-keyboard-response","561","n","tindashan","true","","4"
"3004.0999999046326","","","","","3","html-slider-response","562","","","","4",""
"null","","","","","3","html-keyboard-response","563","","","","",""
"3447","bed","kalipay,mapintas,haraka,starehe","mapintas","v","3","html-keyboard-response","564","j","haraka","false","","4"
"2292.0999999046326","","","","","3","html-slider-response","565","","","","1",""
"null","","","","","3","html-keyboard-response","566","","","","",""
"3491","tissue","lamigas,ugomvi,kisiwa,katika","ugomvi","v","3","html-keyboard-response","567","f","lamigas","false","","4"
"2570.5","","","","","3","html-slider-response","568","","","","1",""
"null","","","","","3","html-keyboard-response","569","","","","",""
"3335","candle","gabi,geza,farasi,kupanda","geza","v","3","html-keyboard-response","570","j","farasi","false","","4"
"2713","","","","","3","html-slider-response","571","","","","1",""
"null","","","","","3","html-keyboard-response","572","","","","",""
"1611","tomato","chupi,mvua,chupa,takatak","mvua","v","3","html-keyboard-response","573","v","mvua","true","","1"
"2961.800000190735","","","","","3","html-slider-response","574","","","","5",""
"null","","","","","3","html-keyboard-response","575","","","","",""
"2555","list","alizeti,wingu,kuzama,kaso","wingu","v","3","html-keyboard-response","576","n","kaso","false","","4"
"2891.9000000953674","","","","","3","html-slider-response","577","","","","1",""
"null","","","","","3","html-keyboard-response","578","","","","",""
"2766","olive","jiwe,bata,siagi,welder","jiwe","f","3","html-keyboard-response","579","v","bata","false","","4"
"2307.4000000953674","","","","","3","html-slider-response","580","","","","2",""
"null","","","","","3","html-keyboard-response","581","","","","",""
"1654","picture","silya,chaki,asin,kubwa","kubwa","n","3","html-keyboard-response","582","n","kubwa","true","","1"
"3057.7999999523163","","","","","3","html-slider-response","583","","","","5",""
"null","","","","","3","html-keyboard-response","584","","","","",""
