"rt","en_word","options","swa_word","correct_answer","phase","trial_type","trial_index","input_answer","input_word","accuracy","certainty","amt_choices"
"2203","bonfire","mwezi,mfuko,kusanya,goti","goti","n","2","html-keyboard-response","114","n","goti","true","",""
"5376.39999961853","","","","","2","html-slider-response","115","","","","3",""
"3783","flower","bega,tamasha,lobo,usiku","bega","f","2","html-keyboard-response","116","f","bega","true","",""
"3676.6000003814697","","","","","2","html-slider-response","117","","","","2",""
"3730","column","pundok,dila,pala,ufagio","ufagio","n","2","html-keyboard-response","118","j","pala","false","",""
"2480.400001525879","","","","","2","html-slider-response","119","","","","2",""
"2905","music","mraba,baiski,mageho,tumbo","baiski","v","2","html-keyboard-response","120","v","baiski","true","",""
"4072.400001525879","","","","","2","html-slider-response","121","","","","4",""
"3532","spider","bunyag,mkboa,atop,kamwe","kamwe","n","2","html-keyboard-response","122","n","kamwe","true","",""
"2590.6000003814697","","","","","2","html-slider-response","123","","","","2",""
"3742","fork","baboy,mgonjwa,paghago,gorisi","mgonjwa","v","2","html-keyboard-response","124","j","paghago","false","",""
"2906.2000007629395","","","","","2","html-slider-response","125","","","","2",""
"1868","mosquito","martilyo,isda,taras,gutom","martilyo","f","2","html-keyboard-response","126","f","martilyo","true","",""
"2412.7999992370605","","","","","2","html-slider-response","127","","","","5",""
"1816","banana","kasamok,hagdan,kazi,twai","kazi","j","2","html-keyboard-response","128","j","kazi","true","",""
"2619.699998855591","","","","","2","html-slider-response","129","","","","5",""
"1827","cup","dagat,shimoni,matumai,jeraha","matumai","j","2","html-keyboard-response","130","f","dagat","false","",""
"2310.099998474121","","","","","2","html-slider-response","131","","","","2",""
"3299","shop","nopya,kerida,ndezu,samaki","samaki","n","2","html-keyboard-response","132","f","nopya","false","",""
"2528.300001144409","","","","","2","html-slider-response","133","","","","2",""
"4089","elephant","petye,pagduol,kito,suka","kito","j","2","html-keyboard-response","134","j","kito","true","",""
"2544.2000007629395","","","","","2","html-slider-response","135","","","","2",""
"2317","bucket","baga,kiatu,ijayo,init","kiatu","v","2","html-keyboard-response","136","f","baga","false","",""
"2913.1000003814697","","","","","2","html-slider-response","137","","","","2",""
"2774","book","kuhesa,mali,picha,mara","mali","v","2","html-keyboard-response","138","j","picha","false","",""
"2224.2000007629395","","","","","2","html-slider-response","139","","","","2",""
"2513","mirror","sulagma,rangi,kanding,furaha","sulagma","f","2","html-keyboard-response","140","v","rangi","false","",""
"2702.1000003814697","","","","","2","html-slider-response","141","","","","2",""
"3118","office","leso,hazini,yatima,kuna","leso","f","2","html-keyboard-response","142","v","hazini","false","",""
"2867.699998855591","","","","","2","html-slider-response","143","","","","2",""
"3707","body","nyundu,jibini,kununa,tindashan","tindashan","n","2","html-keyboard-response","144","n","tindashan","true","",""
"3224.7999992370605","","","","","2","html-slider-response","145","","","","4",""
"6314","perfume","bino,sungura,katuyoan,ndogo","katuyoan","j","2","html-keyboard-response","146","j","katuyoan","true","",""
"2945.5","","","","","2","html-slider-response","147","","","","4",""
"2904","olive","jiwe,bata,siagi,welder","jiwe","f","2","html-keyboard-response","148","j","siagi","false","",""
"3386.3999996185303","","","","","2","html-slider-response","149","","","","2",""
"3066","magazine","gundi,mchawi,bahandi,kiti","kiti","n","2","html-keyboard-response","150","j","bahandi","false","",""
"3079.5","","","","","2","html-slider-response","151","","","","2",""
"2293","bread","kaili,dari,dizeli,bugas","dari","v","2","html-keyboard-response","152","v","dari","true","",""
"3638.1000003814697","","","","","2","html-slider-response","153","","","","3",""
"4337","cave","kesho,ganti,maisha,nyundo","kesho","f","2","html-keyboard-response","154","f","kesho","true","",""
"2442.6000003814697","","","","","2","html-slider-response","155","","","","2",""
"2584","ladder","mashua,mwanga,kamba,pangalan","pangalan","n","2","html-keyboard-response","156","v","mwanga","false","",""
"2941.5","","","","","2","html-slider-response","157","","","","2",""
"5321","human","bado,tinapay,kikapu,punguza","tinapay","v","2","html-keyboard-response","158","n","punguza","false","",""
"2980.7999992370605","","","","","2","html-slider-response","159","","","","2",""
"2585","clock","kartasi,abang,osha,mbwa","mbwa","n","2","html-keyboard-response","160","j","osha","false","",""
"3376.2000007629395","","","","","2","html-slider-response","161","","","","2",""
"4660","shelf","bungtod,pamahaw,kadaot,awit","pamahaw","v","2","html-keyboard-response","162","n","awit","false","",""
"2685.3999996185303","","","","","2","html-slider-response","163","","","","2",""
"3400","salmon","sensilyo,mzungu,seri,baharia","sensilyo","f","2","html-keyboard-response","164","n","baharia","false","",""
"3340.099998474121","","","","","2","html-slider-response","165","","","","3",""
"2545","coffin","barua,tubag,kioo,hulma","kioo","j","2","html-keyboard-response","166","n","hulma","false","",""
"2654.800001144409","","","","","2","html-slider-response","167","","","","2",""
"2745","notebook","kemia,msitu,kila,mdudu","kemia","f","2","html-keyboard-response","168","n","mdudu","false","",""
"2787.3999996185303","","","","","2","html-slider-response","169","","","","2",""
"2901","shoulder","kelele,mkuu,ndaniya,guruwe","mkuu","v","2","html-keyboard-response","170","n","guruwe","false","",""
"2307.099998474121","","","","","2","html-slider-response","171","","","","2",""
"2411","park","tambok,bunifu,pwani,ihalas","bunifu","v","2","html-keyboard-response","172","n","ihalas","false","",""
"2347.199998855591","","","","","2","html-slider-response","173","","","","2",""
"3329","number","shule,kengele,mundamo,choori","mundamo","j","2","html-keyboard-response","174","j","mundamo","true","",""
"2296.300001144409","","","","","2","html-slider-response","175","","","","2",""
"3868","apple","ukame,estante,edad,kisu","kisu","n","2","html-keyboard-response","176","j","edad","false","",""
"2216.7000007629395","","","","","2","html-slider-response","177","","","","2",""
"3832","letter","kifua,filimbi,chuma,uhuru","kifua","f","2","html-keyboard-response","178","n","uhuru","false","",""
"2364.8999996185303","","","","","2","html-slider-response","179","","","","2",""
"3168","eel","msumari,ishara,kunywa,kabuang","msumari","f","2","html-keyboard-response","180","f","msumari","true","",""
"2489.8999996185303","","","","","2","html-slider-response","181","","","","2",""
"3937","cop","bustani,jikoni,mechezo,bakus","mechezo","j","2","html-keyboard-response","182","j","mechezo","true","",""
"2378","","","","","2","html-slider-response","183","","","","2",""
"2222","wolf","kaburi,ndizi,mchuzi,lugha","lugha","n","2","html-keyboard-response","184","n","lugha","true","",""
"2594.8999996185303","","","","","2","html-slider-response","185","","","","2",""
"3476","squirrel","mahugaw,ukweli,hofu,kichwa","hofu","j","2","html-keyboard-response","186","f","mahugaw","false","",""
"3667.6000003814697","","","","","2","html-slider-response","187","","","","2",""
"2020","nose","gubat,kopa,kidole,sehemu","sehemu","n","2","html-keyboard-response","188","v","kopa","false","",""
"2690.5","","","","","2","html-slider-response","189","","","","2",""
"2573","sock","ndoora,mamba,kimysa,mtirka","mamba","v","2","html-keyboard-response","190","j","kimysa","false","",""
"2713.400001525879","","","","","2","html-slider-response","191","","","","2",""
"9698","bank","kudhibi,tualya,ofisi,silingan","silingan","n","2","html-keyboard-response","192","v","tualya","false","",""
"4275.799999237061","","","","","2","html-slider-response","193","","","","2",""
"2154","donkey","bloke,lalake,rombus,elfu","elfu","n","2","html-keyboard-response","194","j","rombus","false","",""
"2329.300001144409","","","","","2","html-slider-response","195","","","","2",""
"2485","poster","nchi,madungog,fedha,kasuko","madungog","v","2","html-keyboard-response","196","n","kasuko","false","",""
"2378","","","","","2","html-slider-response","197","","","","2",""
"1770","puppet","napulo,lamok,mazishi,godoro","mazishi","j","2","html-keyboard-response","198","v","lamok","false","",""
"3385.8999996185303","","","","","2","html-slider-response","199","","","","2",""
"3537","hill","kushoto,matumbo,kukimba,sweta","matumbo","v","2","html-keyboard-response","200","j","kukimba","false","",""
"2854.300001144409","","","","","2","html-slider-response","201","","","","2",""
"2575","tooth","kijiko,uadui,pahiyum,kabalaka","kabalaka","n","2","html-keyboard-response","202","v","uadui","false","",""
"3687.800001144409","","","","","2","html-slider-response","203","","","","2",""
"1806","woman","pagtabon,bandari,bituin,kovuli","pagtabon","f","2","html-keyboard-response","204","v","bandari","false","",""
"2501.3999996185303","","","","","2","html-slider-response","205","","","","2",""
"2266","wheel","punda,bafuni,tawo,baadaye","bafuni","v","2","html-keyboard-response","206","j","tawo","false","",""
"2570.2999992370605","","","","","2","html-slider-response","207","","","","2",""
"5766","mother","kahawa,mbuzi,jokofu,babaye","babaye","n","2","html-keyboard-response","208","n","babaye","true","",""
"2556","","","","","2","html-slider-response","209","","","","4",""
"3985","bed","kalipay,haraka,starehe,mapintas","mapintas","n","2","html-keyboard-response","210","f","kalipay","false","",""
"2292.5","","","","","2","html-slider-response","211","","","","2",""
"2379","key","miaka,goma,ahos,chombo","chombo","n","2","html-keyboard-response","212","v","goma","false","",""
"2175.5","","","","","2","html-slider-response","213","","","","2",""
"2070","page","wakala,ishiri,wimbo,skina","wimbo","j","2","html-keyboard-response","214","n","skina","false","",""
"4735.5","","","","","2","html-slider-response","215","","","","2",""
"3059","pants","haki,pintal,chuki,hari","haki","f","2","html-keyboard-response","216","n","hari","false","",""
"2967.5","","","","","2","html-slider-response","217","","","","2",""
"3515","sun","bendi,luha,basi,uongo","basi","j","2","html-keyboard-response","218","j","basi","true","",""
"4406.300001144409","","","","","2","html-slider-response","219","","","","2",""
"10637","finger","simu,moyo,sufuria,lima","moyo","v","2","html-keyboard-response","220","n","lima","false","",""
"3111.6000003814697","","","","","2","html-slider-response","221","","","","2",""
"2559","shoe","nyeusi,uyoga,hatua,kama","uyoga","v","2","html-keyboard-response","222","f","nyeusi","false","",""
"2463.8999996185303","","","","","2","html-slider-response","223","","","","2",""
"2813","giraffe","daraja,jumatu,mahitabo,hangyo","mahitabo","j","2","html-keyboard-response","224","j","mahitabo","true","",""
"2476.1000003814697","","","","","2","html-slider-response","225","","","","2",""
"4234","dog","bahari,lubi,washia,kalamu","bahari","f","2","html-keyboard-response","226","n","kalamu","false","",""
"2918.6000003814697","","","","","2","html-slider-response","227","","","","2",""
"3326","box","adui,kuacha,rafiki,kitande","adui","f","2","html-keyboard-response","228","v","kuacha","false","",""
"2487.3999996185303","","","","","2","html-slider-response","229","","","","2",""
"2139","scissors","duga,tanuri,mtawa,suga","tanuri","v","2","html-keyboard-response","230","v","tanuri","true","",""
"2371.400001525879","","","","","2","html-slider-response","231","","","","2",""
"3836","cat","neyemba,baki,akili,paghukom","paghukom","n","2","html-keyboard-response","232","j","akili","false","",""
"2045.1999988555908","","","","","2","html-slider-response","233","","","","2",""
"4620","basket","kumbuka,utepe,hasira,kumba","kumba","n","2","html-keyboard-response","234","f","kumbuka","false","",""
"3020.5","","","","","2","html-slider-response","235","","","","2",""
"2795","snake","pagtukod,jansa,karon,mvringo","pagtukod","f","2","html-keyboard-response","236","n","mvringo","false","",""
"3076.099998474121","","","","","2","html-slider-response","237","","","","2",""
"2545","gift","baba,nyange,pagtawag,baso","pagtawag","j","2","html-keyboard-response","238","j","pagtawag","true","",""
"3122.2000007629395","","","","","2","html-slider-response","239","","","","2",""
"2149","train","sayari,itik,dakika,mungu","sayari","f","2","html-keyboard-response","240","f","sayari","true","",""
"3150.400001525879","","","","","2","html-slider-response","241","","","","4",""
"2728","pudding","abug,mpishi,iring,aibu","aibu","n","2","html-keyboard-response","242","v","mpishi","false","",""
"2474.7999992370605","","","","","2","html-slider-response","243","","","","2",""
"2518","tomato","chupi,chupa,mvua,takatak","mvua","j","2","html-keyboard-response","244","n","takatak","false","",""
"4540.39999961853","","","","","2","html-slider-response","245","","","","3",""
"2456","stone","ulimwengu,mkasi,asili,wingi","wingi","n","2","html-keyboard-response","246","n","wingi","true","",""
"2567.2000007629395","","","","","2","html-slider-response","247","","","","2",""
"2551","hammer","mekno,kitovu,napakyas,layag","napakyas","j","2","html-keyboard-response","248","n","layag","false","",""
"2372.699998855591","","","","","2","html-slider-response","249","","","","2",""
"2393","knee","mvuke,kubale,bili,duka","duka","n","2","html-keyboard-response","250","j","bili","false","",""
"3623","","","","","2","html-slider-response","251","","","","2",""
"2099","ceiling","maua,kugita,kawaida,rayna","maua","f","2","html-keyboard-response","252","v","kugita","false","",""
"2175.8999996185303","","","","","2","html-slider-response","253","","","","2",""
"3050","spoon","betri,nzuri,pagsulod,ngazi","pagsulod","j","2","html-keyboard-response","254","v","nzuri","false","",""
"2386.900001525879","","","","","2","html-slider-response","255","","","","2",""
"4584","marker","mapafu,salita,maji,atay","maji","j","2","html-keyboard-response","256","j","maji","true","",""
"2710.3999996185303","","","","","2","html-slider-response","257","","","","4",""
"2939","candle","gabi,geza,farasi,kupanda","geza","v","2","html-keyboard-response","258","n","kupanda","false","",""
"3523.400001525879","","","","","2","html-slider-response","259","","","","2",""
"10440","tissue","lamigas,ugomvi,kisiwa,katika","ugomvi","v","2","html-keyboard-response","260","j","kisiwa","false","",""
"3327","","","","","2","html-slider-response","261","","","","2",""
"2645","bridge","sahani,daima,ngono,panya","sahani","f","2","html-keyboard-response","262","v","daima","false","",""
"2839.699998855591","","","","","2","html-slider-response","263","","","","2",""
"3032","berry","kofia,abogado,nogozi,kinywa","kofia","f","2","html-keyboard-response","264","j","nogozi","false","",""
"2693.3999996185303","","","","","2","html-slider-response","265","","","","2",""
"3751","triangle","kihozi,kasadpan,bentaha,liog","kasadpan","v","2","html-keyboard-response","266","f","kihozi","false","",""
"2562.6000003814697","","","","","2","html-slider-response","267","","","","2",""
"3057","door","tena,surali,soko,nyota","surali","v","2","html-keyboard-response","268","j","soko","false","",""
"2876.2999992370605","","","","","2","html-slider-response","269","","","","1",""
"2780","fish","bala,baho,imani,buli","buli","n","2","html-keyboard-response","270","v","baho","false","",""
"3478.3999996185303","","","","","2","html-slider-response","271","","","","2",""
"2518","curtain","lisud,mchanga,bulwawan,chubani","mchanga","v","2","html-keyboard-response","272","n","chubani","false","",""
"2483","","","","","2","html-slider-response","273","","","","2",""
"15202","flag","ndege,mkate,kawa,trekta","trekta","n","2","html-keyboard-response","274","j","kawa","false","",""
"2344.8999996185303","","","","","2","html-slider-response","275","","","","2",""
"3290","boat","hamsi,pombe,agalon,kitanda","agalon","j","2","html-keyboard-response","276","v","pombe","false","",""
"2509.2000007629395","","","","","2","html-slider-response","277","","","","2",""
"4668","rose","paghalad,singizi,mwanake,amani","paghalad","f","2","html-keyboard-response","278","v","singizi","false","",""
"2518.1000003814697","","","","","2","html-slider-response","279","","","","2",""
"1873","lamp","daub,bilaska,afya,mbolea","afya","j","2","html-keyboard-response","280","j","afya","true","",""
"5410.199998855591","","","","","2","html-slider-response","281","","","","4",""
"2415","cigar","ndugu,kuta,mlango,adhabu","adhabu","n","2","html-keyboard-response","282","n","adhabu","true","",""
"2461.300001144409","","","","","2","html-slider-response","283","","","","2",""
"2812","list","alizeti,kuzama,kaso,wingu","wingu","n","2","html-keyboard-response","284","n","wingu","true","",""
"2320.7000007629395","","","","","2","html-slider-response","285","","","","2",""
"3499","sheet","bililhon,juuya,watu,kamantis","bililhon","f","2","html-keyboard-response","286","v","juuya","false","",""
"2631.3999996185303","","","","","2","html-slider-response","287","","","","2",""
"3233","picture","silya,kubwa,chaki,asin","kubwa","v","2","html-keyboard-response","288","f","silya","false","",""
"2465.400001525879","","","","","2","html-slider-response","289","","","","2",""
"2036","towel","tembo,funzi,pagpalit,pito","pagpalit","j","2","html-keyboard-response","290","v","funzi","false","",""
"2667.6000003814697","","","","","2","html-slider-response","291","","","","2",""
"3920","window","nanga,kujenga,kweli,umaga","kweli","j","2","html-keyboard-response","292","f","nanga","false","",""
"2464.300001144409","","","","","2","html-slider-response","293","","","","2",""
"1573","box","kuacha,rafiki,kitande,adui","adui","n","3","html-keyboard-response","310","n","adui","true","","4"
"2553.199998855591","","","","","3","html-slider-response","311","","","","2",""
"null","","","","","3","html-keyboard-response","312","","","","",""
"3252","pants","pintal,chuki,haki,hari","haki","j","3","html-keyboard-response","313","v","chuki","false","","4"
"2576.800001144409","","","","","3","html-slider-response","314","","","","2",""
"null","","","","","3","html-keyboard-response","315","","","","",""
"2100","cup","dagat,matumai,shimoni,jeraha","matumai","v","3","html-keyboard-response","316","f","dagat","false","","4"
"2298.2000007629395","","","","","3","html-slider-response","317","","","","2",""
"null","","","","","3","html-keyboard-response","318","","","","",""
"2666","triangle","kihozi,bentaha,liog,kasadpan","kasadpan","n","3","html-keyboard-response","319","f","kihozi","false","","4"
"2247.6000003814697","","","","","3","html-slider-response","320","","","","2",""
"null","","","","","3","html-keyboard-response","321","","","","",""
"3124","curtain","lisud,mchanga,bulwawan,chubani","mchanga","v","3","html-keyboard-response","322","n","chubani","false","","4"
"2485.300001144409","","","","","3","html-slider-response","323","","","","2",""
"null","","","","","3","html-keyboard-response","324","","","","",""
"2554","clock","kartasi,abang,mbwa,osha","mbwa","j","3","html-keyboard-response","325","v","abang","false","","4"
"2338.7000007629395","","","","","3","html-slider-response","326","","","","2",""
"null","","","","","3","html-keyboard-response","327","","","","",""
"2642","mirror","sulagma,rangi,kanding,furaha","sulagma","f","3","html-keyboard-response","328","n","furaha","false","","4"
"2820.8999996185303","","","","","3","html-slider-response","329","","","","2",""
"null","","","","","3","html-keyboard-response","330","","","","",""
"1677","coffin","barua,tubag,kioo,hulma","kioo","j","3","html-keyboard-response","331","j","kioo","true","","1"
"2442.599998474121","","","","","3","html-slider-response","332","","","","5",""
"null","","","","","3","html-keyboard-response","333","","","","",""
"2941","magazine","kiti,gundi,mchawi,bahandi","kiti","f","3","html-keyboard-response","334","j","mchawi","false","","4"
"2590.6000003814697","","","","","3","html-slider-response","335","","","","2",""
"null","","","","","3","html-keyboard-response","336","","","","",""
"2269","column","pundok,dila,pala,ufagio","ufagio","n","3","html-keyboard-response","337","n","ufagio","true","","1"
"2359.099998474121","","","","","3","html-slider-response","338","","","","5",""
"null","","","","","3","html-keyboard-response","339","","","","",""
"2765","number","shule,kengele,mundamo,choori","mundamo","j","3","html-keyboard-response","340","v","kengele","false","","4"
"2738.3999996185303","","","","","3","html-slider-response","341","","","","2",""
"null","","","","","3","html-keyboard-response","342","","","","",""
"2221","rose","paghalad,singizi,mwanake,amani","paghalad","f","3","html-keyboard-response","343","v","singizi","false","","4"
"3160.599998474121","","","","","3","html-slider-response","344","","","","2",""
"null","","","","","3","html-keyboard-response","345","","","","",""
"3361","eel","msumari,ishara,kunywa,kabuang","msumari","f","3","html-keyboard-response","346","f","msumari","true","","4"
"2346.400001525879","","","","","3","html-slider-response","347","","","","2",""
"null","","","","","3","html-keyboard-response","348","","","","",""
"4061","gift","baba,pagtawag,nyange,baso","pagtawag","v","3","html-keyboard-response","349","v","pagtawag","true","","4"
"4607.799999237061","","","","","3","html-slider-response","350","","","","2",""
"null","","","","","3","html-keyboard-response","351","","","","",""
"2238","apple","kisu,ukame,estante,edad","kisu","f","3","html-keyboard-response","352","f","kisu","true","","1"
"2475.5","","","","","3","html-slider-response","353","","","","5",""
"null","","","","","3","html-keyboard-response","354","","","","",""
"1655","wheel","punda,tawo,baadaye,bafuni","bafuni","n","3","html-keyboard-response","355","n","bafuni","true","","1"
"3766.2000007629395","","","","","3","html-slider-response","356","","","","5",""
"null","","","","","3","html-keyboard-response","357","","","","",""
"2573","knee","duka,mvuke,kubale,bili","duka","f","3","html-keyboard-response","358","f","duka","true","","4"
"2263.2000007629395","","","","","3","html-slider-response","359","","","","2",""
"null","","","","","3","html-keyboard-response","360","","","","",""
"1525","basket","kumba,kumbuka,utepe,hasira","kumba","f","3","html-keyboard-response","361","f","kumba","true","","1"
"2456","","","","","3","html-slider-response","362","","","","5",""
"null","","","","","3","html-keyboard-response","363","","","","",""
"2265","park","bunifu,tambok,pwani,ihalas","bunifu","f","3","html-keyboard-response","364","n","ihalas","false","","4"
"2326.199998855591","","","","","3","html-slider-response","365","","","","2",""
"null","","","","","3","html-keyboard-response","366","","","","",""
"2868","finger","simu,sufuria,moyo,lima","moyo","j","3","html-keyboard-response","367","n","lima","false","","4"
"2759.3999996185303","","","","","3","html-slider-response","368","","","","2",""
"null","","","","","3","html-keyboard-response","369","","","","",""
"3827","boat","hamsi,pombe,kitanda,agalon","agalon","n","3","html-keyboard-response","370","n","agalon","true","","4"
"2335","","","","","3","html-slider-response","371","","","","2",""
"null","","","","","3","html-keyboard-response","372","","","","",""
"2961","hill","kushoto,kukimba,sweta,matumbo","matumbo","n","3","html-keyboard-response","373","n","matumbo","true","","4"
"2283.1000003814697","","","","","3","html-slider-response","374","","","","2",""
"null","","","","","3","html-keyboard-response","375","","","","",""
"1406","train","itik,dakika,mungu,sayari","sayari","n","3","html-keyboard-response","376","n","sayari","true","","4"
"2351.3999996185303","","","","","3","html-slider-response","377","","","","5",""
"null","","","","","3","html-keyboard-response","378","","","","",""
"1906","wolf","lugha,kaburi,ndizi,mchuzi","lugha","f","3","html-keyboard-response","379","v","kaburi","false","","4"
"2300.7000007629395","","","","","3","html-slider-response","380","","","","2",""
"null","","","","","3","html-keyboard-response","381","","","","",""
"2356","snake","jansa,karon,mvringo,pagtukod","pagtukod","n","3","html-keyboard-response","382","v","karon","false","","4"
"2543.2999992370605","","","","","3","html-slider-response","383","","","","2",""
"null","","","","","3","html-keyboard-response","384","","","","",""
"2365","tooth","kijiko,kabalaka,uadui,pahiyum","kabalaka","v","3","html-keyboard-response","385","n","pahiyum","false","","4"
"2241.800001144409","","","","","3","html-slider-response","386","","","","2",""
"null","","","","","3","html-keyboard-response","387","","","","",""
"3120","notebook","msitu,kila,kemia,mdudu","kemia","j","3","html-keyboard-response","388","n","mdudu","false","","4"
"2354.5","","","","","3","html-slider-response","389","","","","2",""
"null","","","","","3","html-keyboard-response","390","","","","",""
"3086","flag","ndege,trekta,mkate,kawa","trekta","v","3","html-keyboard-response","391","v","trekta","true","","4"
"2357.199998855591","","","","","3","html-slider-response","392","","","","2",""
"null","","","","","3","html-keyboard-response","393","","","","",""
"3941","squirrel","mahugaw,ukweli,hofu,kichwa","hofu","j","3","html-keyboard-response","394","f","mahugaw","false","","4"
"2220.6000003814697","","","","","3","html-slider-response","395","","","","2",""
"null","","","","","3","html-keyboard-response","396","","","","",""
"2493","door","tena,soko,nyota,surali","surali","n","3","html-keyboard-response","397","v","soko","false","","4"
"2508.6000003814697","","","","","3","html-slider-response","398","","","","2",""
"null","","","","","3","html-keyboard-response","399","","","","",""
"3568","salmon","mzungu,seri,sensilyo,baharia","sensilyo","j","3","html-keyboard-response","400","j","sensilyo","true","","4"
"3449.2999992370605","","","","","3","html-slider-response","401","","","","2",""
"null","","","","","3","html-keyboard-response","402","","","","",""
"3706","shoulder","kelele,ndaniya,guruwe,mkuu","mkuu","n","3","html-keyboard-response","403","f","kelele","false","","4"
"2556.7999992370605","","","","","3","html-slider-response","404","","","","2",""
"null","","","","","3","html-keyboard-response","405","","","","",""
"1884","lamp","daub,afya,bilaska,mbolea","afya","v","3","html-keyboard-response","406","v","afya","true","","4"
"2737.699998855591","","","","","3","html-slider-response","407","","","","4",""
"null","","","","","3","html-keyboard-response","408","","","","",""
"1988","shelf","bungtod,kadaot,awit,pamahaw","pamahaw","n","3","html-keyboard-response","409","n","pamahaw","true","","1"
"2383.5","","","","","3","html-slider-response","410","","","","5",""
"null","","","","","3","html-keyboard-response","411","","","","",""
"4622","human","bado,kikapu,tinapay,punguza","tinapay","j","3","html-keyboard-response","412","n","punguza","false","","4"
"3318.2000007629395","","","","","3","html-slider-response","413","","","","2",""
"null","","","","","3","html-keyboard-response","414","","","","",""
"2985","towel","tembo,funzi,pagpalit,pito","pagpalit","j","3","html-keyboard-response","415","n","pito","false","","4"
"2173.6000003814697","","","","","3","html-slider-response","416","","","","2",""
"null","","","","","3","html-keyboard-response","417","","","","",""
"4328","cat","neyemba,baki,akili,paghukom","paghukom","n","3","html-keyboard-response","418","v","baki","false","","4"
"3119","","","","","3","html-slider-response","419","","","","2",""
"null","","","","","3","html-keyboard-response","420","","","","",""
"2921","spider","bunyag,kamwe,mkboa,atop","kamwe","v","3","html-keyboard-response","421","j","mkboa","false","","4"
"2617.8999996185303","","","","","3","html-slider-response","422","","","","2",""
"null","","","","","3","html-keyboard-response","423","","","","",""
"3241","window","nanga,kujenga,kweli,umaga","kweli","j","3","html-keyboard-response","424","j","kweli","true","","4"
"2539.599998474121","","","","","3","html-slider-response","425","","","","2",""
"null","","","","","3","html-keyboard-response","426","","","","",""
"1651","woman","bandari,bituin,pagtabon,kovuli","pagtabon","j","3","html-keyboard-response","427","j","pagtabon","true","","1"
"2400.1000003814697","","","","","3","html-slider-response","428","","","","5",""
"null","","","","","3","html-keyboard-response","429","","","","",""
"5140","giraffe","daraja,jumatu,hangyo,mahitabo","mahitabo","n","3","html-keyboard-response","430","n","mahitabo","true","","4"
"2427.3999996185303","","","","","3","html-slider-response","431","","","","2",""
"null","","","","","3","html-keyboard-response","432","","","","",""
"2664","elephant","petye,pagduol,kito,suka","kito","j","3","html-keyboard-response","433","n","suka","false","","4"
"2641.6000003814697","","","","","3","html-slider-response","434","","","","2",""
"null","","","","","3","html-keyboard-response","435","","","","",""
"3350","cave","ganti,maisha,kesho,nyundo","kesho","j","3","html-keyboard-response","436","v","maisha","false","","4"
"2814.800001144409","","","","","3","html-slider-response","437","","","","2",""
"null","","","","","3","html-keyboard-response","438","","","","",""
"2465","bread","kaili,dari,dizeli,bugas","dari","v","3","html-keyboard-response","439","v","dari","true","","4"
"2546","","","","","3","html-slider-response","440","","","","2",""
"null","","","","","3","html-keyboard-response","441","","","","",""
"2327","stone","ulimwengu,mkasi,asili,wingi","wingi","n","3","html-keyboard-response","442","v","mkasi","false","","4"
"2627.8999996185303","","","","","3","html-slider-response","443","","","","2",""
"null","","","","","3","html-keyboard-response","444","","","","",""
"2887","donkey","bloke,lalake,rombus,elfu","elfu","n","3","html-keyboard-response","445","v","lalake","false","","4"
"2623.900001525879","","","","","3","html-slider-response","446","","","","2",""
"null","","","","","3","html-keyboard-response","447","","","","",""
"3258","bridge","daima,ngono,sahani,panya","sahani","j","3","html-keyboard-response","448","n","panya","false","","4"
"2588.7999992370605","","","","","3","html-slider-response","449","","","","2",""
"null","","","","","3","html-keyboard-response","450","","","","",""
"1696","bonfire","mwezi,goti,mfuko,kusanya","goti","v","3","html-keyboard-response","451","v","goti","true","","4"
"2513.2000007629395","","","","","3","html-slider-response","452","","","","2",""
"null","","","","","3","html-keyboard-response","453","","","","",""
"3093","book","kuhesa,picha,mali,mara","mali","j","3","html-keyboard-response","454","v","picha","false","","4"
"2568.6000003814697","","","","","3","html-slider-response","455","","","","2",""
"null","","","","","3","html-keyboard-response","456","","","","",""
"3631","fish","bala,baho,buli,imani","buli","j","3","html-keyboard-response","457","v","baho","false","","4"
"3107.2000007629395","","","","","3","html-slider-response","458","","","","2",""
"null","","","","","3","html-keyboard-response","459","","","","",""
"3573","spoon","betri,nzuri,ngazi,pagsulod","pagsulod","n","3","html-keyboard-response","460","n","pagsulod","true","","4"
"2579.5","","","","","3","html-slider-response","461","","","","2",""
"null","","","","","3","html-keyboard-response","462","","","","",""
"3660","scissors","duga,mtawa,suga,tanuri","tanuri","n","3","html-keyboard-response","463","v","mtawa","false","","4"
"2353.300001144409","","","","","3","html-slider-response","464","","","","2",""
"null","","","","","3","html-keyboard-response","465","","","","",""
"3156","page","wimbo,wakala,ishiri,skina","wimbo","f","3","html-keyboard-response","466","f","wimbo","true","","4"
"2953.6000003814697","","","","","3","html-slider-response","467","","","","2",""
"null","","","","","3","html-keyboard-response","468","","","","",""
"1671","nose","gubat,sehemu,kopa,kidole","sehemu","v","3","html-keyboard-response","469","v","sehemu","true","","1"
"2508.2000007629395","","","","","3","html-slider-response","470","","","","5",""
"null","","","","","3","html-keyboard-response","471","","","","",""
"4953","ceiling","kugita,maua,kawaida,rayna","maua","v","3","html-keyboard-response","472","j","kawaida","false","","4"
"3001","","","","","3","html-slider-response","473","","","","2",""
"null","","","","","3","html-keyboard-response","474","","","","",""
"3518","bucket","baga,ijayo,init,kiatu","kiatu","n","3","html-keyboard-response","475","f","baga","false","","4"
"2376","","","","","3","html-slider-response","476","","","","2",""
"null","","","","","3","html-keyboard-response","477","","","","",""
"1546","berry","abogado,nogozi,kinywa,kofia","kofia","n","3","html-keyboard-response","478","n","kofia","true","","1"
"2379.699998855591","","","","","3","html-slider-response","479","","","","5",""
"null","","","","","3","html-keyboard-response","480","","","","",""
"2133","mother","kahawa,babaye,mbuzi,jokofu","babaye","v","3","html-keyboard-response","481","v","babaye","true","","1"
"2677.5","","","","","3","html-slider-response","482","","","","5",""
"null","","","","","3","html-keyboard-response","483","","","","",""
"1475","mosquito","isda,taras,gutom,martilyo","martilyo","n","3","html-keyboard-response","484","n","martilyo","true","","4"
"2412.199998855591","","","","","3","html-slider-response","485","","","","5",""
"null","","","","","3","html-keyboard-response","486","","","","",""
"79362","perfume","bino,sungura,katuyoan,ndogo","katuyoan","j","3","html-keyboard-response","487","j","katuyoan","true","","4"
"4371.39999961853","","","","","3","html-slider-response","488","","","","2",""
"null","","","","","3","html-keyboard-response","489","","","","",""
"2178","sheet","juuya,watu,kamantis,bililhon","bililhon","n","3","html-keyboard-response","490","v","watu","false","","4"
"2888","","","","","3","html-slider-response","491","","","","4",""
"null","","","","","3","html-keyboard-response","492","","","","",""
"1947","puppet","napulo,lamok,mazishi,godoro","mazishi","j","3","html-keyboard-response","493","j","mazishi","true","","1"
"3767.6000003814697","","","","","3","html-slider-response","494","","","","5",""
"null","","","","","3","html-keyboard-response","495","","","","",""
"3156","poster","nchi,fedha,kasuko,madungog","madungog","n","3","html-keyboard-response","496","f","nchi","false","","4"
"2767.7999992370605","","","","","3","html-slider-response","497","","","","2",""
"null","","","","","3","html-keyboard-response","498","","","","",""
"2238","music","mraba,baiski,mageho,tumbo","baiski","v","3","html-keyboard-response","499","v","baiski","true","","4"
"3109.2999992370605","","","","","3","html-slider-response","500","","","","5",""
"null","","","","","3","html-keyboard-response","501","","","","",""
"3196","key","miaka,chombo,goma,ahos","chombo","v","3","html-keyboard-response","502","v","chombo","true","","4"
"2361.3999996185303","","","","","3","html-slider-response","503","","","","2",""
"null","","","","","3","html-keyboard-response","504","","","","",""
"2450","sock","ndoora,mamba,kimysa,mtirka","mamba","v","3","html-keyboard-response","505","v","mamba","true","","4"
"2065.7000007629395","","","","","3","html-slider-response","506","","","","2",""
"null","","","","","3","html-keyboard-response","507","","","","",""
"2176","marker","mapafu,salita,maji,atay","maji","j","3","html-keyboard-response","508","j","maji","true","","4"
"3544.199998855591","","","","","3","html-slider-response","509","","","","5",""
"null","","","","","3","html-keyboard-response","510","","","","",""
"2321","office","leso,hazini,yatima,kuna","leso","f","3","html-keyboard-response","511","v","hazini","false","","4"
"3374.8999996185303","","","","","3","html-slider-response","512","","","","1",""
"null","","","","","3","html-keyboard-response","513","","","","",""
"2479","shoe","nyeusi,hatua,uyoga,kama","uyoga","j","3","html-keyboard-response","514","n","kama","false","","4"
"2601.2000007629395","","","","","3","html-slider-response","515","","","","2",""
"null","","","","","3","html-keyboard-response","516","","","","",""
"3364","cop","bustani,mechezo,jikoni,bakus","mechezo","v","3","html-keyboard-response","517","f","bustani","false","","4"
"2603.2999992370605","","","","","3","html-slider-response","518","","","","2",""
"null","","","","","3","html-keyboard-response","519","","","","",""
"2838","bank","kudhibi,tualya,silingan,ofisi","silingan","j","3","html-keyboard-response","520","j","silingan","true","","4"
"2459.199998855591","","","","","3","html-slider-response","521","","","","2",""
"null","","","","","3","html-keyboard-response","522","","","","",""
"1634","letter","filimbi,kifua,chuma,uhuru","kifua","v","3","html-keyboard-response","523","v","kifua","true","","1"
"2513","","","","","3","html-slider-response","524","","","","5",""
"null","","","","","3","html-keyboard-response","525","","","","",""
"1287","dog","lubi,washia,kalamu,bahari","bahari","n","3","html-keyboard-response","526","n","bahari","true","","1"
"2700.8999996185303","","","","","3","html-slider-response","527","","","","5",""
"null","","","","","3","html-keyboard-response","528","","","","",""
"3138","shop","nopya,samaki,kerida,ndezu","samaki","v","3","html-keyboard-response","529","j","kerida","false","","4"
"2443.7000007629395","","","","","3","html-slider-response","530","","","","2",""
"null","","","","","3","html-keyboard-response","531","","","","",""
"4247","flower","tamasha,lobo,usiku,bega","bega","n","3","html-keyboard-response","532","n","bega","true","","4"
"2638.8999996185303","","","","","3","html-slider-response","533","","","","2",""
"null","","","","","3","html-keyboard-response","534","","","","",""
"1859","cigar","ndugu,kuta,adhabu,mlango","adhabu","j","3","html-keyboard-response","535","j","adhabu","true","","1"
"2548.7000007629395","","","","","3","html-slider-response","536","","","","5",""
"null","","","","","3","html-keyboard-response","537","","","","",""
"3846","hammer","mekno,kitovu,napakyas,layag","napakyas","j","3","html-keyboard-response","538","f","mekno","false","","4"
"3451.1000003814697","","","","","3","html-slider-response","539","","","","2",""
"null","","","","","3","html-keyboard-response","540","","","","",""
"2847","fork","baboy,paghago,gorisi,mgonjwa","mgonjwa","n","3","html-keyboard-response","541","f","baboy","false","","4"
"2804.8999996185303","","","","","3","html-slider-response","542","","","","2",""
"null","","","","","3","html-keyboard-response","543","","","","",""
"1380","sun","bendi,luha,uongo,basi","basi","n","3","html-keyboard-response","544","n","basi","true","","1"
"2905.3999996185303","","","","","3","html-slider-response","545","","","","5",""
"null","","","","","3","html-keyboard-response","546","","","","",""
"3549","ladder","mashua,mwanga,kamba,pangalan","pangalan","n","3","html-keyboard-response","547","n","pangalan","true","","4"
"3220.7999992370605","","","","","3","html-slider-response","548","","","","2",""
"null","","","","","3","html-keyboard-response","549","","","","",""
"1360","banana","kasamok,hagdan,kazi,twai","kazi","j","3","html-keyboard-response","550","j","kazi","true","","1"
"3171.3999996185303","","","","","3","html-slider-response","551","","","","5",""
"null","","","","","3","html-keyboard-response","552","","","","",""
"2736","pudding","abug,aibu,mpishi,iring","aibu","v","3","html-keyboard-response","553","f","abug","false","","4"
"3313.6000003814697","","","","","3","html-slider-response","554","","","","2",""
"null","","","","","3","html-keyboard-response","555","","","","",""
"3152","body","nyundu,jibini,kununa,tindashan","tindashan","n","3","html-keyboard-response","556","n","tindashan","true","","4"
"2256.199998855591","","","","","3","html-slider-response","557","","","","2",""
"null","","","","","3","html-keyboard-response","558","","","","",""
"3823","bed","kalipay,haraka,starehe,mapintas","mapintas","n","3","html-keyboard-response","559","n","mapintas","true","","4"
"2323.199998855591","","","","","3","html-slider-response","560","","","","2",""
"null","","","","","3","html-keyboard-response","561","","","","",""
"3287","tissue","lamigas,kisiwa,ugomvi,katika","ugomvi","j","3","html-keyboard-response","562","v","kisiwa","false","","4"
"2946.1000003814697","","","","","3","html-slider-response","563","","","","2",""
"null","","","","","3","html-keyboard-response","564","","","","",""
"2600","candle","gabi,farasi,kupanda,geza","geza","n","3","html-keyboard-response","565","j","kupanda","false","","4"
"2190.8999996185303","","","","","3","html-slider-response","566","","","","2",""
"null","","","","","3","html-keyboard-response","567","","","","",""
"1345","tomato","mvua,chupi,chupa,takatak","mvua","f","3","html-keyboard-response","568","f","mvua","true","","1"
"2447.5","","","","","3","html-slider-response","569","","","","5",""
"null","","","","","3","html-keyboard-response","570","","","","",""
"3945","list","alizeti,kuzama,kaso,wingu","wingu","n","3","html-keyboard-response","571","j","kaso","false","","4"
"2364.2999992370605","","","","","3","html-slider-response","572","","","","2",""
"null","","","","","3","html-keyboard-response","573","","","","",""
"3113","olive","jiwe,bata,siagi,welder","jiwe","f","3","html-keyboard-response","574","f","jiwe","true","","4"
"2292.7000007629395","","","","","3","html-slider-response","575","","","","2",""
"null","","","","","3","html-keyboard-response","576","","","","",""
"1876","picture","silya,chaki,kubwa,asin","kubwa","j","3","html-keyboard-response","577","j","kubwa","true","","1"
"2367.5","","","","","3","html-slider-response","578","","","","5",""
"null","","","","","3","html-keyboard-response","579","","","","",""
