"rt","en_word","options","swa_word","correct_answer","phase","trial_type","trial_index","input_answer","input_word","accuracy","certainty","amt_choices"
"11110","bonfire","mwezi,mfuko,kusanya,goti","goti","n","2","html-keyboard-response","114","n","goti","true","",""
"2301.300000011921","","","","","2","html-slider-response","115","","","","4",""
"20385","flower","tamasha,lobo,usiku,bega","bega","n","2","html-keyboard-response","116","n","bega","true","",""
"6834.699999988079","","","","","2","html-slider-response","117","","","","3",""
"18542","column","pundok,ufagio,dila,pala","ufagio","v","2","html-keyboard-response","118","v","ufagio","true","",""
"2991.2000000476837","","","","","2","html-slider-response","119","","","","4",""
"11153","music","mraba,baiski,mageho,tumbo","baiski","v","2","html-keyboard-response","120","v","baiski","true","",""
"2037","","","","","2","html-slider-response","121","","","","4",""
"5203","spider","bunyag,kamwe,mkboa,atop","kamwe","v","2","html-keyboard-response","122","j","mkboa","false","",""
"3067.400000035763","","","","","2","html-slider-response","123","","","","2",""
"7260","fork","baboy,mgonjwa,paghago,gorisi","mgonjwa","v","2","html-keyboard-response","124","f","baboy","false","",""
"2256.2000000476837","","","","","2","html-slider-response","125","","","","2",""
"26580","mosquito","isda,taras,gutom,martilyo","martilyo","n","2","html-keyboard-response","126","n","martilyo","true","",""
"10234.399999976158","","","","","2","html-slider-response","127","","","","3",""
"3466","banana","kasamok,kazi,hagdan,twai","kazi","v","2","html-keyboard-response","128","v","kazi","true","",""
"2250.7000000476837","","","","","2","html-slider-response","129","","","","4",""
"12249","cup","matumai,dagat,shimoni,jeraha","matumai","f","2","html-keyboard-response","130","v","dagat","false","",""
"3189","","","","","2","html-slider-response","131","","","","1",""
"15254","shop","samaki,nopya,kerida,ndezu","samaki","f","2","html-keyboard-response","132","f","samaki","true","",""
"2279","","","","","2","html-slider-response","133","","","","4",""
"7251","elephant","petye,kito,pagduol,suka","kito","v","2","html-keyboard-response","134","v","kito","true","",""
"2689","","","","","2","html-slider-response","135","","","","4",""
"11153","bucket","kiatu,baga,ijayo,init","kiatu","f","2","html-keyboard-response","136","n","init","false","",""
"2164.699999988079","","","","","2","html-slider-response","137","","","","1",""
"10702","book","mali,kuhesa,picha,mara","mali","f","2","html-keyboard-response","138","f","mali","true","",""
"2280.899999976158","","","","","2","html-slider-response","139","","","","4",""
"12310","mirror","rangi,sulagma,kanding,furaha","sulagma","v","2","html-keyboard-response","140","v","sulagma","true","",""
"2427.400000035763","","","","","2","html-slider-response","141","","","","4",""
"8749","office","hazini,yatima,kuna,leso","leso","n","2","html-keyboard-response","142","n","leso","true","",""
"1867.800000011921","","","","","2","html-slider-response","143","","","","4",""
"5066","body","nyundu,tindashan,jibini,kununa","tindashan","v","2","html-keyboard-response","144","v","tindashan","true","",""
"2067.5","","","","","2","html-slider-response","145","","","","1",""
"11084","perfume","bino,katuyoan,sungura,ndogo","katuyoan","v","2","html-keyboard-response","146","f","bino","false","",""
"4993.899999976158","","","","","2","html-slider-response","147","","","","3",""
"4810","olive","bata,siagi,welder,jiwe","jiwe","n","2","html-keyboard-response","148","n","jiwe","true","",""
"2290.600000023842","","","","","2","html-slider-response","149","","","","1",""
"3593","magazine","gundi,kiti,mchawi,bahandi","kiti","v","2","html-keyboard-response","150","j","mchawi","false","",""
"2843.599999964237","","","","","2","html-slider-response","151","","","","1",""
"12014","bread","kaili,dari,dizeli,bugas","dari","v","2","html-keyboard-response","152","v","dari","true","",""
"3663.400000035763","","","","","2","html-slider-response","153","","","","5",""
"10221","cave","ganti,maisha,kesho,nyundo","kesho","j","2","html-keyboard-response","154","j","kesho","true","",""
"2120.399999976158","","","","","2","html-slider-response","155","","","","5",""
"3647","ladder","mashua,mwanga,pangalan,kamba","pangalan","j","2","html-keyboard-response","156","f","mashua","false","",""
"1967.6000000238419","","","","","2","html-slider-response","157","","","","1",""
"14190","human","tinapay,bado,kikapu,punguza","tinapay","f","2","html-keyboard-response","158","f","tinapay","true","",""
"1863.5","","","","","2","html-slider-response","159","","","","4",""
"14073","clock","kartasi,abang,osha,mbwa","mbwa","n","2","html-keyboard-response","160","n","mbwa","true","",""
"1989.800000011921","","","","","2","html-slider-response","161","","","","4",""
"12031","shelf","bungtod,kadaot,awit,pamahaw","pamahaw","n","2","html-keyboard-response","162","n","pamahaw","true","",""
"1765.800000011921","","","","","2","html-slider-response","163","","","","4",""
"2497","salmon","mzungu,sensilyo,seri,baharia","sensilyo","v","2","html-keyboard-response","164","v","sensilyo","true","",""
"2300.199999988079","","","","","2","html-slider-response","165","","","","1",""
"7786","coffin","barua,tubag,kioo,hulma","kioo","j","2","html-keyboard-response","166","j","kioo","true","",""
"2306.5","","","","","2","html-slider-response","167","","","","5",""
"17403","notebook","msitu,kemia,kila,mdudu","kemia","v","2","html-keyboard-response","168","v","kemia","true","",""
"2441.399999976158","","","","","2","html-slider-response","169","","","","4",""
"4156","shoulder","kelele,ndaniya,guruwe,mkuu","mkuu","n","2","html-keyboard-response","170","f","kelele","false","",""
"1760.699999988079","","","","","2","html-slider-response","171","","","","1",""
"13733","park","bunifu,tambok,pwani,ihalas","bunifu","f","2","html-keyboard-response","172","f","bunifu","true","",""
"2016.6000000238419","","","","","2","html-slider-response","173","","","","4",""
"3452","number","mundamo,shule,kengele,choori","mundamo","f","2","html-keyboard-response","174","f","mundamo","true","",""
"2952.600000023842","","","","","2","html-slider-response","175","","","","1",""
"7487","apple","ukame,estante,edad,kisu","kisu","n","2","html-keyboard-response","176","n","kisu","true","",""
"2406.800000011921","","","","","2","html-slider-response","177","","","","5",""
"12945","letter","filimbi,kifua,chuma,uhuru","kifua","v","2","html-keyboard-response","178","v","kifua","true","",""
"1948.6000000238419","","","","","2","html-slider-response","179","","","","4",""
"3769","eel","ishara,msumari,kunywa,kabuang","msumari","v","2","html-keyboard-response","180","f","ishara","false","",""
"1804.5","","","","","2","html-slider-response","181","","","","1",""
"11810","cop","bustani,jikoni,mechezo,bakus","mechezo","j","2","html-keyboard-response","182","j","mechezo","true","",""
"4403.800000011921","","","","","2","html-slider-response","183","","","","3",""
"12559","wolf","kaburi,ndizi,lugha,mchuzi","lugha","j","2","html-keyboard-response","184","j","lugha","true","",""
"2526.699999988079","","","","","2","html-slider-response","185","","","","2",""
"5285","squirrel","mahugaw,ukweli,hofu,kichwa","hofu","j","2","html-keyboard-response","186","n","kichwa","false","",""
"2184.5","","","","","2","html-slider-response","187","","","","1",""
"3510","nose","gubat,kopa,kidole,sehemu","sehemu","n","2","html-keyboard-response","188","f","gubat","false","",""
"2605.7999999523163","","","","","2","html-slider-response","189","","","","1",""
"15657","sock","ndoora,mamba,kimysa,mtirka","mamba","v","2","html-keyboard-response","190","v","mamba","true","",""
"1981.0999999642372","","","","","2","html-slider-response","191","","","","4",""
"13220","bank","kudhibi,tualya,silingan,ofisi","silingan","j","2","html-keyboard-response","192","j","silingan","true","",""
"2456.600000023842","","","","","2","html-slider-response","193","","","","4",""
"5962","donkey","bloke,lalake,rombus,elfu","elfu","n","2","html-keyboard-response","194","v","lalake","false","",""
"2242.800000011921","","","","","2","html-slider-response","195","","","","1",""
"4476","poster","nchi,fedha,kasuko,madungog","madungog","n","2","html-keyboard-response","196","j","kasuko","false","",""
"1889.800000011921","","","","","2","html-slider-response","197","","","","1",""
"14272","puppet","mazishi,napulo,lamok,godoro","mazishi","f","2","html-keyboard-response","198","f","mazishi","true","",""
"4780.899999976158","","","","","2","html-slider-response","199","","","","3",""
"12361","hill","kushoto,matumbo,kukimba,sweta","matumbo","v","2","html-keyboard-response","200","v","matumbo","true","",""
"2708.099999964237","","","","","2","html-slider-response","201","","","","3",""
"2898","tooth","kijiko,kabalaka,uadui,pahiyum","kabalaka","v","2","html-keyboard-response","202","j","uadui","false","",""
"2412.199999988079","","","","","2","html-slider-response","203","","","","1",""
"13315","woman","bandari,pagtabon,bituin,kovuli","pagtabon","v","2","html-keyboard-response","204","v","pagtabon","true","",""
"1994.8999999761581","","","","","2","html-slider-response","205","","","","2",""
"8079","wheel","punda,bafuni,tawo,baadaye","bafuni","v","2","html-keyboard-response","206","v","bafuni","true","",""
"2189.5","","","","","2","html-slider-response","207","","","","4",""
"3555","mother","kahawa,mbuzi,babaye,jokofu","babaye","j","2","html-keyboard-response","208","v","mbuzi","false","",""
"1979.699999988079","","","","","2","html-slider-response","209","","","","1",""
"14405","bed","kalipay,haraka,mapintas,starehe","mapintas","j","2","html-keyboard-response","210","j","mapintas","true","",""
"1903.199999988079","","","","","2","html-slider-response","211","","","","4",""
"11011","key","miaka,goma,ahos,chombo","chombo","n","2","html-keyboard-response","212","n","chombo","true","",""
"1986.4000000357628","","","","","2","html-slider-response","213","","","","4",""
"2790","page","wakala,wimbo,ishiri,skina","wimbo","v","2","html-keyboard-response","214","v","wimbo","true","",""
"2383","","","","","2","html-slider-response","215","","","","2",""
"2864","pants","haki,pintal,chuki,hari","haki","f","2","html-keyboard-response","216","f","haki","true","",""
"2069.2000000476837","","","","","2","html-slider-response","217","","","","5",""
"18892","sun","bendi,luha,basi,uongo","basi","j","2","html-keyboard-response","218","j","basi","true","",""
"2273.099999964237","","","","","2","html-slider-response","219","","","","5",""
"7918","finger","moyo,simu,sufuria,lima","moyo","f","2","html-keyboard-response","220","f","moyo","true","",""
"2254.699999988079","","","","","2","html-slider-response","221","","","","4",""
"2695","shoe","nyeusi,hatua,uyoga,kama","uyoga","j","2","html-keyboard-response","222","j","uyoga","true","",""
"3527.599999964237","","","","","2","html-slider-response","223","","","","2",""
"16776","giraffe","daraja,jumatu,hangyo,mahitabo","mahitabo","n","2","html-keyboard-response","224","j","hangyo","false","",""
"1972.5","","","","","2","html-slider-response","225","","","","2",""
"4573","dog","lubi,bahari,washia,kalamu","bahari","v","2","html-keyboard-response","226","f","lubi","false","",""
"1832.5999999642372","","","","","2","html-slider-response","227","","","","2",""
"2865","box","kuacha,rafiki,kitande,adui","adui","n","2","html-keyboard-response","228","n","adui","true","",""
"2092.199999988079","","","","","2","html-slider-response","229","","","","4",""
"11573","scissors","tanuri,duga,mtawa,suga","tanuri","f","2","html-keyboard-response","230","f","tanuri","true","",""
"2273.599999964237","","","","","2","html-slider-response","231","","","","2",""
"5807","cat","neyemba,baki,paghukom,akili","paghukom","j","2","html-keyboard-response","232","v","baki","false","",""
"1941.800000011921","","","","","2","html-slider-response","233","","","","2",""
"12858","basket","kumbuka,kumba,utepe,hasira","kumba","v","2","html-keyboard-response","234","v","kumba","true","",""
"2563.300000011921","","","","","2","html-slider-response","235","","","","4",""
"2718","snake","jansa,karon,pagtukod,mvringo","pagtukod","j","2","html-keyboard-response","236","v","karon","false","",""
"1943.2999999523163","","","","","2","html-slider-response","237","","","","2",""
"2677","gift","pagtawag,baba,nyange,baso","pagtawag","f","2","html-keyboard-response","238","f","pagtawag","true","",""
"2799.800000011921","","","","","2","html-slider-response","239","","","","3",""
"4354","train","itik,dakika,mungu,sayari","sayari","n","2","html-keyboard-response","240","f","itik","false","",""
"2026.8999999761581","","","","","2","html-slider-response","241","","","","2",""
"15485","pudding","abug,aibu,mpishi,iring","aibu","v","2","html-keyboard-response","242","v","aibu","true","",""
"2174.800000011921","","","","","2","html-slider-response","243","","","","4",""
"8682","tomato","chupi,chupa,mvua,takatak","mvua","j","2","html-keyboard-response","244","j","mvua","true","",""
"2244.100000023842","","","","","2","html-slider-response","245","","","","4",""
"12383","stone","wingi,ulimwengu,mkasi,asili","wingi","f","2","html-keyboard-response","246","f","wingi","true","",""
"2455.100000023842","","","","","2","html-slider-response","247","","","","3",""
"2657","hammer","mekno,kitovu,layag,napakyas","napakyas","n","2","html-keyboard-response","248","v","kitovu","false","",""
"2308.199999988079","","","","","2","html-slider-response","249","","","","2",""
"6000","knee","mvuke,kubale,duka,bili","duka","j","2","html-keyboard-response","250","j","duka","true","",""
"1782.199999988079","","","","","2","html-slider-response","251","","","","5",""
"2640","ceiling","kugita,maua,kawaida,rayna","maua","v","2","html-keyboard-response","252","j","kawaida","false","",""
"1860.4000000357628","","","","","2","html-slider-response","253","","","","1",""
"2799","spoon","pagsulod,betri,nzuri,ngazi","pagsulod","f","2","html-keyboard-response","254","v","betri","false","",""
"1863","","","","","2","html-slider-response","255","","","","2",""
"8663","marker","mapafu,salita,atay,maji","maji","n","2","html-keyboard-response","256","f","mapafu","false","",""
"1998.5","","","","","2","html-slider-response","257","","","","2",""
"5670","candle","gabi,geza,farasi,kupanda","geza","v","2","html-keyboard-response","258","v","geza","true","",""
"2063.600000023842","","","","","2","html-slider-response","259","","","","5",""
"2689","tissue","lamigas,kisiwa,katika,ugomvi","ugomvi","n","2","html-keyboard-response","260","v","kisiwa","false","",""
"1790.0999999642372","","","","","2","html-slider-response","261","","","","2",""
"7930","bridge","sahani,daima,ngono,panya","sahani","f","2","html-keyboard-response","262","f","sahani","true","",""
"1850.1000000238419","","","","","2","html-slider-response","263","","","","4",""
"8778","berry","abogado,nogozi,kofia,kinywa","kofia","j","2","html-keyboard-response","264","j","kofia","true","",""
"1834.199999988079","","","","","2","html-slider-response","265","","","","4",""
"2362","triangle","kihozi,kasadpan,bentaha,liog","kasadpan","v","2","html-keyboard-response","266","v","kasadpan","true","",""
"2019.2000000476837","","","","","2","html-slider-response","267","","","","1",""
"8722","door","tena,surali,soko,nyota","surali","v","2","html-keyboard-response","268","v","surali","true","",""
"1796","","","","","2","html-slider-response","269","","","","4",""
"5693","fish","bala,baho,imani,buli","buli","n","2","html-keyboard-response","270","n","buli","true","",""
"1960.7999999523163","","","","","2","html-slider-response","271","","","","5",""
"3280","curtain","mchanga,lisud,bulwawan,chubani","mchanga","f","2","html-keyboard-response","272","n","chubani","false","",""
"2021.1000000238419","","","","","2","html-slider-response","273","","","","1",""
"2919","flag","trekta,ndege,mkate,kawa","trekta","f","2","html-keyboard-response","274","f","trekta","true","",""
"1791.199999988079","","","","","2","html-slider-response","275","","","","4",""
"7051","boat","agalon,hamsi,pombe,kitanda","agalon","f","2","html-keyboard-response","276","f","agalon","true","",""
"2698.800000011921","","","","","2","html-slider-response","277","","","","3",""
"3259","rose","paghalad,singizi,mwanake,amani","paghalad","f","2","html-keyboard-response","278","n","amani","false","",""
"1962.3999999761581","","","","","2","html-slider-response","279","","","","1",""
"6048","lamp","afya,daub,bilaska,mbolea","afya","f","2","html-keyboard-response","280","f","afya","true","",""
"2508.899999976158","","","","","2","html-slider-response","281","","","","3",""
"5646","cigar","ndugu,adhabu,kuta,mlango","adhabu","v","2","html-keyboard-response","282","j","kuta","false","",""
"1679","","","","","2","html-slider-response","283","","","","1",""
"3436","list","wingu,alizeti,kuzama,kaso","wingu","f","2","html-keyboard-response","284","f","wingu","true","",""
"1713.9000000357628","","","","","2","html-slider-response","285","","","","4",""
"6986","sheet","juuya,watu,kamantis,bililhon","bililhon","n","2","html-keyboard-response","286","v","watu","false","",""
"1844.800000011921","","","","","2","html-slider-response","287","","","","1",""
"4058","picture","silya,kubwa,chaki,asin","kubwa","v","2","html-keyboard-response","288","f","silya","false","",""
"2490","","","","","2","html-slider-response","289","","","","1",""
"5441","towel","pagpalit,tembo,funzi,pito","pagpalit","f","2","html-keyboard-response","290","v","tembo","false","",""
"1956.1000000238419","","","","","2","html-slider-response","291","","","","1",""
"16546","window","nanga,kujenga,kweli,umaga","kweli","j","2","html-keyboard-response","292","j","kweli","true","",""
"4139.900000035763","","","","","2","html-slider-response","293","","","","3",""
"5905","box","adui,kuacha,rafiki,kitande","adui","f","3","html-keyboard-response","310","f","adui","true","","4"
"2453.600000023842","","","","","3","html-slider-response","311","","","","4",""
"null","","","","","3","html-keyboard-response","312","","","","",""
"2431","pants","haki,pintal,chuki,hari","haki","f","3","html-keyboard-response","313","f","haki","true","","4"
"2209.900000035763","","","","","3","html-slider-response","314","","","","4",""
"null","","","","","3","html-keyboard-response","315","","","","",""
"3437","cup","matumai,dagat,shimoni,jeraha","matumai","f","3","html-keyboard-response","316","v","dagat","false","","4"
"2318","","","","","3","html-slider-response","317","","","","2",""
"null","","","","","3","html-keyboard-response","318","","","","",""
"6740","triangle","kihozi,kasadpan,bentaha,liog","kasadpan","v","3","html-keyboard-response","319","v","kasadpan","true","","4"
"2095","","","","","3","html-slider-response","320","","","","2",""
"null","","","","","3","html-keyboard-response","321","","","","",""
"9841","curtain","lisud,bulwawan,mchanga,chubani","mchanga","j","3","html-keyboard-response","322","j","mchanga","true","","4"
"2406.199999988079","","","","","3","html-slider-response","323","","","","2",""
"null","","","","","3","html-keyboard-response","324","","","","",""
"8404","clock","mbwa,kartasi,abang,osha","mbwa","f","3","html-keyboard-response","325","f","mbwa","true","","4"
"2313.800000011921","","","","","3","html-slider-response","326","","","","4",""
"null","","","","","3","html-keyboard-response","327","","","","",""
"4047","mirror","rangi,kanding,sulagma,furaha","sulagma","j","3","html-keyboard-response","328","j","sulagma","true","","4"
"2192.899999976158","","","","","3","html-slider-response","329","","","","1",""
"null","","","","","3","html-keyboard-response","330","","","","",""
"2204","coffin","barua,tubag,kioo,hulma","kioo","j","3","html-keyboard-response","331","j","kioo","true","","1"
"1916.4000000357628","","","","","3","html-slider-response","332","","","","5",""
"null","","","","","3","html-keyboard-response","333","","","","",""
"3803","magazine","gundi,mchawi,kiti,bahandi","kiti","j","3","html-keyboard-response","334","v","mchawi","false","","4"
"2272.899999976158","","","","","3","html-slider-response","335","","","","1",""
"null","","","","","3","html-keyboard-response","336","","","","",""
"4684","column","pundok,dila,ufagio,pala","ufagio","j","3","html-keyboard-response","337","j","ufagio","true","","1"
"2023","","","","","3","html-slider-response","338","","","","5",""
"null","","","","","3","html-keyboard-response","339","","","","",""
"2570","number","shule,kengele,mundamo,choori","mundamo","j","3","html-keyboard-response","340","j","mundamo","true","","4"
"2922.899999976158","","","","","3","html-slider-response","341","","","","3",""
"null","","","","","3","html-keyboard-response","342","","","","",""
"3107","rose","paghalad,singizi,mwanake,amani","paghalad","f","3","html-keyboard-response","343","n","amani","false","","4"
"2120.600000023842","","","","","3","html-slider-response","344","","","","2",""
"null","","","","","3","html-keyboard-response","345","","","","",""
"5086","eel","ishara,kunywa,kabuang,msumari","msumari","n","3","html-keyboard-response","346","v","kunywa","false","","4"
"1928.9000000357628","","","","","3","html-slider-response","347","","","","2",""
"null","","","","","3","html-keyboard-response","348","","","","",""
"3235","gift","baba,pagtawag,nyange,baso","pagtawag","v","3","html-keyboard-response","349","v","pagtawag","true","","4"
"2144.5","","","","","3","html-slider-response","350","","","","4",""
"null","","","","","3","html-keyboard-response","351","","","","",""
"1811","apple","ukame,estante,kisu,edad","kisu","j","3","html-keyboard-response","352","j","kisu","true","","1"
"1980.5999999642372","","","","","3","html-slider-response","353","","","","5",""
"null","","","","","3","html-keyboard-response","354","","","","",""
"1301","wheel","bafuni,punda,tawo,baadaye","bafuni","f","3","html-keyboard-response","355","f","bafuni","true","","1"
"2152.7000000476837","","","","","3","html-slider-response","356","","","","5",""
"null","","","","","3","html-keyboard-response","357","","","","",""
"2075","knee","duka,mvuke,kubale,bili","duka","f","3","html-keyboard-response","358","f","duka","true","","4"
"2002.0999999642372","","","","","3","html-slider-response","359","","","","2",""
"null","","","","","3","html-keyboard-response","360","","","","",""
"1893","basket","kumba,kumbuka,utepe,hasira","kumba","f","3","html-keyboard-response","361","f","kumba","true","","1"
"2065.300000011921","","","","","3","html-slider-response","362","","","","5",""
"null","","","","","3","html-keyboard-response","363","","","","",""
"4037","park","tambok,bunifu,pwani,ihalas","bunifu","v","3","html-keyboard-response","364","v","bunifu","true","","4"
"1926.699999988079","","","","","3","html-slider-response","365","","","","1",""
"null","","","","","3","html-keyboard-response","366","","","","",""
"4105","finger","simu,moyo,sufuria,lima","moyo","v","3","html-keyboard-response","367","n","lima","false","","4"
"3033","","","","","3","html-slider-response","368","","","","3",""
"null","","","","","3","html-keyboard-response","369","","","","",""
"3445","boat","hamsi,pombe,agalon,kitanda","agalon","j","3","html-keyboard-response","370","j","agalon","true","","4"
"2188.199999988079","","","","","3","html-slider-response","371","","","","2",""
"null","","","","","3","html-keyboard-response","372","","","","",""
"2241","hill","kushoto,matumbo,kukimba,sweta","matumbo","v","3","html-keyboard-response","373","v","matumbo","true","","4"
"2114.600000023842","","","","","3","html-slider-response","374","","","","4",""
"null","","","","","3","html-keyboard-response","375","","","","",""
"4221","train","itik,dakika,sayari,mungu","sayari","j","3","html-keyboard-response","376","j","sayari","true","","4"
"1690.3999999761581","","","","","3","html-slider-response","377","","","","2",""
"null","","","","","3","html-keyboard-response","378","","","","",""
"2329","wolf","lugha,kaburi,ndizi,mchuzi","lugha","f","3","html-keyboard-response","379","f","lugha","true","","4"
"1964.8999999761581","","","","","3","html-slider-response","380","","","","4",""
"null","","","","","3","html-keyboard-response","381","","","","",""
"2735","snake","jansa,karon,mvringo,pagtukod","pagtukod","n","3","html-keyboard-response","382","v","karon","false","","4"
"1990.800000011921","","","","","3","html-slider-response","383","","","","2",""
"null","","","","","3","html-keyboard-response","384","","","","",""
"3688","tooth","kabalaka,kijiko,uadui,pahiyum","kabalaka","f","3","html-keyboard-response","385","v","kijiko","false","","4"
"20170.30000001192","","","","","3","html-slider-response","386","","","","2",""
"null","","","","","3","html-keyboard-response","387","","","","",""
"3940","notebook","msitu,kila,kemia,mdudu","kemia","j","3","html-keyboard-response","388","j","kemia","true","","4"
"1946.2000000476837","","","","","3","html-slider-response","389","","","","4",""
"null","","","","","3","html-keyboard-response","390","","","","",""
"3512","flag","ndege,trekta,mkate,kawa","trekta","v","3","html-keyboard-response","391","v","trekta","true","","4"
"1756.199999988079","","","","","3","html-slider-response","392","","","","4",""
"null","","","","","3","html-keyboard-response","393","","","","",""
"3086","squirrel","mahugaw,ukweli,kichwa,hofu","hofu","n","3","html-keyboard-response","394","f","mahugaw","false","","4"
"1899.9000000357628","","","","","3","html-slider-response","395","","","","1",""
"null","","","","","3","html-keyboard-response","396","","","","",""
"7188","door","surali,tena,soko,nyota","surali","f","3","html-keyboard-response","397","f","surali","true","","4"
"1634.5","","","","","3","html-slider-response","398","","","","2",""
"null","","","","","3","html-keyboard-response","399","","","","",""
"2903","salmon","mzungu,seri,sensilyo,baharia","sensilyo","j","3","html-keyboard-response","400","n","baharia","false","","4"
"1545.4000000357628","","","","","3","html-slider-response","401","","","","1",""
"null","","","","","3","html-keyboard-response","402","","","","",""
"5512","shoulder","kelele,ndaniya,guruwe,mkuu","mkuu","n","3","html-keyboard-response","403","n","mkuu","true","","4"
"1795.199999988079","","","","","3","html-slider-response","404","","","","1",""
"null","","","","","3","html-keyboard-response","405","","","","",""
"4420","lamp","afya,daub,bilaska,mbolea","afya","f","3","html-keyboard-response","406","f","afya","true","","4"
"1524.300000011921","","","","","3","html-slider-response","407","","","","4",""
"null","","","","","3","html-keyboard-response","408","","","","",""
"1704","shelf","pamahaw,bungtod,kadaot,awit","pamahaw","f","3","html-keyboard-response","409","f","pamahaw","true","","1"
"1538.7000000476837","","","","","3","html-slider-response","410","","","","5",""
"null","","","","","3","html-keyboard-response","411","","","","",""
"2408","human","bado,kikapu,tinapay,punguza","tinapay","j","3","html-keyboard-response","412","j","tinapay","true","","4"
"1724.5999999642372","","","","","3","html-slider-response","413","","","","4",""
"null","","","","","3","html-keyboard-response","414","","","","",""
"3427","towel","tembo,funzi,pagpalit,pito","pagpalit","j","3","html-keyboard-response","415","f","tembo","false","","4"
"2255.800000011921","","","","","3","html-slider-response","416","","","","2",""
"null","","","","","3","html-keyboard-response","417","","","","",""
"2856","cat","neyemba,baki,paghukom,akili","paghukom","j","3","html-keyboard-response","418","v","baki","false","","4"
"1708.0999999642372","","","","","3","html-slider-response","419","","","","2",""
"null","","","","","3","html-keyboard-response","420","","","","",""
"3681","spider","bunyag,mkboa,atop,kamwe","kamwe","n","3","html-keyboard-response","421","v","mkboa","false","","4"
"1754","","","","","3","html-slider-response","422","","","","1",""
"null","","","","","3","html-keyboard-response","423","","","","",""
"3265","window","kweli,nanga,kujenga,umaga","kweli","f","3","html-keyboard-response","424","f","kweli","true","","4"
"1658.800000011921","","","","","3","html-slider-response","425","","","","5",""
"null","","","","","3","html-keyboard-response","426","","","","",""
"5373","woman","bandari,bituin,kovuli,pagtabon","pagtabon","n","3","html-keyboard-response","427","n","pagtabon","true","","1"
"2175.399999976158","","","","","3","html-slider-response","428","","","","5",""
"null","","","","","3","html-keyboard-response","429","","","","",""
"2187","giraffe","daraja,jumatu,hangyo,mahitabo","mahitabo","n","3","html-keyboard-response","430","n","mahitabo","true","","4"
"1827.800000011921","","","","","3","html-slider-response","431","","","","4",""
"null","","","","","3","html-keyboard-response","432","","","","",""
"3512","elephant","petye,kito,pagduol,suka","kito","v","3","html-keyboard-response","433","n","suka","false","","4"
"1571.0999999642372","","","","","3","html-slider-response","434","","","","2",""
"null","","","","","3","html-keyboard-response","435","","","","",""
"3777","cave","ganti,maisha,nyundo,kesho","kesho","n","3","html-keyboard-response","436","f","ganti","false","","4"
"2093.600000023842","","","","","3","html-slider-response","437","","","","1",""
"null","","","","","3","html-keyboard-response","438","","","","",""
"2839","bread","kaili,dizeli,bugas,dari","dari","n","3","html-keyboard-response","439","n","dari","true","","4"
"2340.199999988079","","","","","3","html-slider-response","440","","","","4",""
"null","","","","","3","html-keyboard-response","441","","","","",""
"3186","stone","ulimwengu,wingi,mkasi,asili","wingi","v","3","html-keyboard-response","442","v","wingi","true","","4"
"1567.7999999523163","","","","","3","html-slider-response","443","","","","5",""
"null","","","","","3","html-keyboard-response","444","","","","",""
"3059","donkey","bloke,lalake,rombus,elfu","elfu","n","3","html-keyboard-response","445","n","elfu","true","","4"
"2701.099999964237","","","","","3","html-slider-response","446","","","","3",""
"null","","","","","3","html-keyboard-response","447","","","","",""
"3113","bridge","daima,ngono,panya,sahani","sahani","n","3","html-keyboard-response","448","n","sahani","true","","4"
"1426.699999988079","","","","","3","html-slider-response","449","","","","4",""
"null","","","","","3","html-keyboard-response","450","","","","",""
"3583","bonfire","mwezi,mfuko,kusanya,goti","goti","n","3","html-keyboard-response","451","n","goti","true","","4"
"2367.2000000476837","","","","","3","html-slider-response","452","","","","5",""
"null","","","","","3","html-keyboard-response","453","","","","",""
"3115","book","mali,kuhesa,picha,mara","mali","f","3","html-keyboard-response","454","n","mara","false","","4"
"1573.800000011921","","","","","3","html-slider-response","455","","","","2",""
"null","","","","","3","html-keyboard-response","456","","","","",""
"4166","fish","bala,baho,buli,imani","buli","j","3","html-keyboard-response","457","f","bala","false","","4"
"1309.0999999642372","","","","","3","html-slider-response","458","","","","4",""
"null","","","","","3","html-keyboard-response","459","","","","",""
"2814","spoon","betri,nzuri,ngazi,pagsulod","pagsulod","n","3","html-keyboard-response","460","f","betri","false","","4"
"1511.300000011921","","","","","3","html-slider-response","461","","","","1",""
"null","","","","","3","html-keyboard-response","462","","","","",""
"3631","scissors","duga,tanuri,mtawa,suga","tanuri","v","3","html-keyboard-response","463","v","tanuri","true","","4"
"8668.900000035763","","","","","3","html-slider-response","464","","","","2",""
"null","","","","","3","html-keyboard-response","465","","","","",""
"2819","page","wakala,wimbo,ishiri,skina","wimbo","v","3","html-keyboard-response","466","j","ishiri","false","","4"
"1514","","","","","3","html-slider-response","467","","","","2",""
"null","","","","","3","html-keyboard-response","468","","","","",""
"5870","nose","gubat,sehemu,kopa,kidole","sehemu","v","3","html-keyboard-response","469","v","sehemu","true","","1"
"1850.2999999523163","","","","","3","html-slider-response","470","","","","5",""
"null","","","","","3","html-keyboard-response","471","","","","",""
"2178","ceiling","maua,kugita,kawaida,rayna","maua","f","3","html-keyboard-response","472","j","kawaida","false","","4"
"1897.5","","","","","3","html-slider-response","473","","","","2",""
"null","","","","","3","html-keyboard-response","474","","","","",""
"4284","bucket","baga,ijayo,kiatu,init","kiatu","j","3","html-keyboard-response","475","f","baga","false","","4"
"1567.7999999523163","","","","","3","html-slider-response","476","","","","4",""
"null","","","","","3","html-keyboard-response","477","","","","",""
"1551","berry","kofia,abogado,nogozi,kinywa","kofia","f","3","html-keyboard-response","478","f","kofia","true","","1"
"1937.199999988079","","","","","3","html-slider-response","479","","","","5",""
"null","","","","","3","html-keyboard-response","480","","","","",""
"1361","mother","kahawa,babaye,mbuzi,jokofu","babaye","v","3","html-keyboard-response","481","v","babaye","true","","1"
"2103","","","","","3","html-slider-response","482","","","","5",""
"null","","","","","3","html-keyboard-response","483","","","","",""
"3770","mosquito","martilyo,isda,taras,gutom","martilyo","f","3","html-keyboard-response","484","f","martilyo","true","","4"
"1445.5","","","","","3","html-slider-response","485","","","","2",""
"null","","","","","3","html-keyboard-response","486","","","","",""
"4244","perfume","bino,sungura,ndogo,katuyoan","katuyoan","n","3","html-keyboard-response","487","f","bino","false","","4"
"1571.5","","","","","3","html-slider-response","488","","","","1",""
"null","","","","","3","html-keyboard-response","489","","","","",""
"3634","sheet","juuya,bililhon,watu,kamantis","bililhon","v","3","html-keyboard-response","490","f","juuya","false","","4"
"1597.2999999523163","","","","","3","html-slider-response","491","","","","2",""
"null","","","","","3","html-keyboard-response","492","","","","",""
"1452","puppet","napulo,mazishi,lamok,godoro","mazishi","v","3","html-keyboard-response","493","v","mazishi","true","","1"
"1612","","","","","3","html-slider-response","494","","","","5",""
"null","","","","","3","html-keyboard-response","495","","","","",""
"5019","poster","nchi,fedha,madungog,kasuko","madungog","j","3","html-keyboard-response","496","j","madungog","true","","4"
"1728.3999999761581","","","","","3","html-slider-response","497","","","","2",""
"null","","","","","3","html-keyboard-response","498","","","","",""
"2621","music","mraba,mageho,baiski,tumbo","baiski","j","3","html-keyboard-response","499","j","baiski","true","","4"
"1589.3999999761581","","","","","3","html-slider-response","500","","","","4",""
"null","","","","","3","html-keyboard-response","501","","","","",""
"3260","key","miaka,chombo,goma,ahos","chombo","v","3","html-keyboard-response","502","n","ahos","false","","4"
"1526.699999988079","","","","","3","html-slider-response","503","","","","2",""
"null","","","","","3","html-keyboard-response","504","","","","",""
"3796","sock","ndoora,kimysa,mtirka,mamba","mamba","n","3","html-keyboard-response","505","n","mamba","true","","4"
"1740.0999999642372","","","","","3","html-slider-response","506","","","","2",""
"null","","","","","3","html-keyboard-response","507","","","","",""
"2348","marker","maji,mapafu,salita,atay","maji","f","3","html-keyboard-response","508","f","maji","true","","4"
"1504.1000000238419","","","","","3","html-slider-response","509","","","","4",""
"null","","","","","3","html-keyboard-response","510","","","","",""
"1861","office","leso,hazini,yatima,kuna","leso","f","3","html-keyboard-response","511","f","leso","true","","4"
"1434.6000000238419","","","","","3","html-slider-response","512","","","","4",""
"null","","","","","3","html-keyboard-response","513","","","","",""
"3663","shoe","nyeusi,hatua,uyoga,kama","uyoga","j","3","html-keyboard-response","514","v","hatua","false","","4"
"1529.8999999761581","","","","","3","html-slider-response","515","","","","2",""
"null","","","","","3","html-keyboard-response","516","","","","",""
"4294","cop","bustani,mechezo,jikoni,bakus","mechezo","v","3","html-keyboard-response","517","v","mechezo","true","","4"
"1631.699999988079","","","","","3","html-slider-response","518","","","","5",""
"null","","","","","3","html-keyboard-response","519","","","","",""
"3943","bank","kudhibi,silingan,tualya,ofisi","silingan","v","3","html-keyboard-response","520","v","silingan","true","","4"
"1270.800000011921","","","","","3","html-slider-response","521","","","","2",""
"null","","","","","3","html-keyboard-response","522","","","","",""
"1926","letter","filimbi,chuma,uhuru,kifua","kifua","n","3","html-keyboard-response","523","n","kifua","true","","1"
"1675.199999988079","","","","","3","html-slider-response","524","","","","5",""
"null","","","","","3","html-keyboard-response","525","","","","",""
"1230","dog","lubi,bahari,washia,kalamu","bahari","v","3","html-keyboard-response","526","v","bahari","true","","1"
"1511.8999999761581","","","","","3","html-slider-response","527","","","","5",""
"null","","","","","3","html-keyboard-response","528","","","","",""
"3516","shop","samaki,nopya,kerida,ndezu","samaki","f","3","html-keyboard-response","529","f","samaki","true","","4"
"3085.699999988079","","","","","3","html-slider-response","530","","","","4",""
"null","","","","","3","html-keyboard-response","531","","","","",""
"3586","flower","tamasha,bega,lobo,usiku","bega","v","3","html-keyboard-response","532","f","tamasha","false","","4"
"1855.199999988079","","","","","3","html-slider-response","533","","","","2",""
"null","","","","","3","html-keyboard-response","534","","","","",""
"4671","cigar","ndugu,kuta,adhabu,mlango","adhabu","j","3","html-keyboard-response","535","j","adhabu","true","","1"
"2044","","","","","3","html-slider-response","536","","","","5",""
"null","","","","","3","html-keyboard-response","537","","","","",""
"3177","hammer","mekno,napakyas,kitovu,layag","napakyas","v","3","html-keyboard-response","538","f","mekno","false","","4"
"1968","","","","","3","html-slider-response","539","","","","1",""
"null","","","","","3","html-keyboard-response","540","","","","",""
"2856","fork","baboy,mgonjwa,paghago,gorisi","mgonjwa","v","3","html-keyboard-response","541","n","gorisi","false","","4"
"3032.600000023842","","","","","3","html-slider-response","542","","","","3",""
"null","","","","","3","html-keyboard-response","543","","","","",""
"1310","sun","bendi,luha,uongo,basi","basi","n","3","html-keyboard-response","544","n","basi","true","","1"
"2000.5","","","","","3","html-slider-response","545","","","","5",""
"null","","","","","3","html-keyboard-response","546","","","","",""
"3352","ladder","mashua,mwanga,kamba,pangalan","pangalan","n","3","html-keyboard-response","547","v","mwanga","false","","4"
"1663.199999988079","","","","","3","html-slider-response","548","","","","2",""
"null","","","","","3","html-keyboard-response","549","","","","",""
"2773","banana","kazi,kasamok,hagdan,twai","kazi","f","3","html-keyboard-response","550","f","kazi","true","","1"
"1664.6000000238419","","","","","3","html-slider-response","551","","","","5",""
"null","","","","","3","html-keyboard-response","552","","","","",""
"1902","pudding","aibu,abug,mpishi,iring","aibu","f","3","html-keyboard-response","553","f","aibu","true","","4"
"6341.699999988079","","","","","3","html-slider-response","554","","","","4",""
"null","","","","","3","html-keyboard-response","555","","","","",""
"2484","body","tindashan,nyundu,jibini,kununa","tindashan","f","3","html-keyboard-response","556","f","tindashan","true","","4"
"1446.5","","","","","3","html-slider-response","557","","","","4",""
"null","","","","","3","html-keyboard-response","558","","","","",""
"3997","bed","kalipay,mapintas,haraka,starehe","mapintas","v","3","html-keyboard-response","559","v","mapintas","true","","4"
"1746.5","","","","","3","html-slider-response","560","","","","2",""
"null","","","","","3","html-keyboard-response","561","","","","",""
"2614","tissue","lamigas,kisiwa,ugomvi,katika","ugomvi","j","3","html-keyboard-response","562","v","kisiwa","false","","4"
"1588.8999999761581","","","","","3","html-slider-response","563","","","","1",""
"null","","","","","3","html-keyboard-response","564","","","","",""
"1759","candle","gabi,farasi,kupanda,geza","geza","n","3","html-keyboard-response","565","f","gabi","false","","4"
"1365.3999999761581","","","","","3","html-slider-response","566","","","","4",""
"null","","","","","3","html-keyboard-response","567","","","","",""
"1390","tomato","chupi,mvua,chupa,takatak","mvua","v","3","html-keyboard-response","568","v","mvua","true","","1"
"2293.599999964237","","","","","3","html-slider-response","569","","","","5",""
"null","","","","","3","html-keyboard-response","570","","","","",""
"2330","list","wingu,alizeti,kuzama,kaso","wingu","f","3","html-keyboard-response","571","f","wingu","true","","4"
"1399.3999999761581","","","","","3","html-slider-response","572","","","","5",""
"null","","","","","3","html-keyboard-response","573","","","","",""
"2996","olive","bata,siagi,jiwe,welder","jiwe","j","3","html-keyboard-response","574","j","jiwe","true","","4"
"1860.5","","","","","3","html-slider-response","575","","","","1",""
"null","","","","","3","html-keyboard-response","576","","","","",""
"4567","picture","silya,kubwa,chaki,asin","kubwa","v","3","html-keyboard-response","577","v","kubwa","true","","1"
"1778.5","","","","","3","html-slider-response","578","","","","5",""
"null","","","","","3","html-keyboard-response","579","","","","",""
