"rt","en_word","options","swa_word","correct_answer","phase","trial_type","trial_index","input_answer","input_word","accuracy","certainty","amt_choices"
"3085","bonfire","mwezi,goti,mfuko,kusanya","goti","v","2","html-keyboard-response","114","v","goti","true","",""
"2878.600000023842","","","","","2","html-slider-response","115","","","","5",""
"2606","flower","tamasha,lobo,usiku,bega","bega","n","2","html-keyboard-response","116","n","bega","true","",""
"3039.2999999523163","","","","","2","html-slider-response","117","","","","5",""
"3612","column","pundok,dila,ufagio,pala","ufagio","j","2","html-keyboard-response","118","j","ufagio","true","",""
"2876","","","","","2","html-slider-response","119","","","","4",""
"4822","music","mraba,mageho,tumbo,baiski","baiski","n","2","html-keyboard-response","120","n","baiski","true","",""
"2522","","","","","2","html-slider-response","121","","","","4",""
"2270","spider","bunyag,mkboa,atop,kamwe","kamwe","n","2","html-keyboard-response","122","n","kamwe","true","",""
"4992.299999952316","","","","","2","html-slider-response","123","","","","5",""
"6188","fork","baboy,paghago,mgonjwa,gorisi","mgonjwa","j","2","html-keyboard-response","124","j","mgonjwa","true","",""
"2809.5","","","","","2","html-slider-response","125","","","","2",""
"3065","mosquito","isda,taras,gutom,martilyo","martilyo","n","2","html-keyboard-response","126","n","martilyo","true","",""
"2385.399999976158","","","","","2","html-slider-response","127","","","","4",""
"4992","banana","kasamok,kazi,hagdan,twai","kazi","v","2","html-keyboard-response","128","v","kazi","true","",""
"7487.200000047684","","","","","2","html-slider-response","129","","","","3",""
"6180","cup","dagat,shimoni,jeraha,matumai","matumai","n","2","html-keyboard-response","130","n","matumai","true","",""
"2700.6999999284744","","","","","2","html-slider-response","131","","","","1",""
"2900","shop","samaki,nopya,kerida,ndezu","samaki","f","2","html-keyboard-response","132","f","samaki","true","",""
"2349.600000023842","","","","","2","html-slider-response","133","","","","4",""
"4762","elephant","petye,pagduol,kito,suka","kito","j","2","html-keyboard-response","134","j","kito","true","",""
"4311.600000023842","","","","","2","html-slider-response","135","","","","3",""
"6641","bucket","baga,ijayo,kiatu,init","kiatu","j","2","html-keyboard-response","136","f","baga","false","",""
"2517.4000000953674","","","","","2","html-slider-response","137","","","","2",""
"3155","book","kuhesa,picha,mali,mara","mali","j","2","html-keyboard-response","138","j","mali","true","",""
"2907.3000000715256","","","","","2","html-slider-response","139","","","","2",""
"4888","mirror","sulagma,rangi,kanding,furaha","sulagma","f","2","html-keyboard-response","140","f","sulagma","true","",""
"3252.7000000476837","","","","","2","html-slider-response","141","","","","2",""
"2159","office","hazini,leso,yatima,kuna","leso","v","2","html-keyboard-response","142","v","leso","true","",""
"3132.8000000715256","","","","","2","html-slider-response","143","","","","4",""
"3688","body","tindashan,nyundu,jibini,kununa","tindashan","f","2","html-keyboard-response","144","f","tindashan","true","",""
"3717","","","","","2","html-slider-response","145","","","","4",""
"5287","perfume","bino,sungura,ndogo,katuyoan","katuyoan","n","2","html-keyboard-response","146","n","katuyoan","true","",""
"2211.600000023842","","","","","2","html-slider-response","147","","","","4",""
"2747","olive","bata,jiwe,siagi,welder","jiwe","v","2","html-keyboard-response","148","v","jiwe","true","",""
"2559.399999976158","","","","","2","html-slider-response","149","","","","4",""
"3105","magazine","gundi,kiti,mchawi,bahandi","kiti","v","2","html-keyboard-response","150","v","kiti","true","",""
"2189.8000000715256","","","","","2","html-slider-response","151","","","","4",""
"3215","bread","kaili,dizeli,bugas,dari","dari","n","2","html-keyboard-response","152","n","dari","true","",""
"6375.400000095367","","","","","2","html-slider-response","153","","","","3",""
"8897","cave","ganti,kesho,maisha,nyundo","kesho","v","2","html-keyboard-response","154","n","nyundo","false","",""
"3478.5","","","","","2","html-slider-response","155","","","","1",""
"5144","ladder","mashua,pangalan,mwanga,kamba","pangalan","v","2","html-keyboard-response","156","j","mwanga","false","",""
"3836.1999999284744","","","","","2","html-slider-response","157","","","","2",""
"3858","human","bado,kikapu,punguza,tinapay","tinapay","n","2","html-keyboard-response","158","n","tinapay","true","",""
"3794.600000023842","","","","","2","html-slider-response","159","","","","4",""
"3841","clock","kartasi,mbwa,abang,osha","mbwa","v","2","html-keyboard-response","160","v","mbwa","true","",""
"4669.299999952316","","","","","2","html-slider-response","161","","","","3",""
"5324","shelf","pamahaw,bungtod,kadaot,awit","pamahaw","f","2","html-keyboard-response","162","f","pamahaw","true","",""
"4228.599999904633","","","","","2","html-slider-response","163","","","","3",""
"2899","salmon","mzungu,sensilyo,seri,baharia","sensilyo","v","2","html-keyboard-response","164","v","sensilyo","true","",""
"2312","","","","","2","html-slider-response","165","","","","5",""
"2676","coffin","barua,kioo,tubag,hulma","kioo","v","2","html-keyboard-response","166","v","kioo","true","",""
"2311.100000023842","","","","","2","html-slider-response","167","","","","5",""
"4305","notebook","kemia,msitu,kila,mdudu","kemia","f","2","html-keyboard-response","168","j","kila","false","",""
"2615","","","","","2","html-slider-response","169","","","","2",""
"6159","shoulder","mkuu,kelele,ndaniya,guruwe","mkuu","f","2","html-keyboard-response","170","f","mkuu","true","",""
"3711.100000023842","","","","","2","html-slider-response","171","","","","2",""
"5964","park","tambok,bunifu,pwani,ihalas","bunifu","v","2","html-keyboard-response","172","v","bunifu","true","",""
"2943.3000000715256","","","","","2","html-slider-response","173","","","","2",""
"6903","number","shule,kengele,choori,mundamo","mundamo","n","2","html-keyboard-response","174","n","mundamo","true","",""
"4757.800000071526","","","","","2","html-slider-response","175","","","","3",""
"3977","apple","ukame,estante,kisu,edad","kisu","j","2","html-keyboard-response","176","j","kisu","true","",""
"2182.600000023842","","","","","2","html-slider-response","177","","","","2",""
"4321","letter","filimbi,kifua,chuma,uhuru","kifua","v","2","html-keyboard-response","178","j","chuma","false","",""
"2503","","","","","2","html-slider-response","179","","","","2",""
"6321","eel","ishara,kunywa,kabuang,msumari","msumari","n","2","html-keyboard-response","180","n","msumari","true","",""
"3012","","","","","2","html-slider-response","181","","","","2",""
"5131","cop","bustani,jikoni,mechezo,bakus","mechezo","j","2","html-keyboard-response","182","j","mechezo","true","",""
"2158.7000000476837","","","","","2","html-slider-response","183","","","","2",""
"5122","wolf","lugha,kaburi,ndizi,mchuzi","lugha","f","2","html-keyboard-response","184","f","lugha","true","",""
"3069.100000023842","","","","","2","html-slider-response","185","","","","2",""
"4240","squirrel","mahugaw,ukweli,hofu,kichwa","hofu","j","2","html-keyboard-response","186","n","kichwa","false","",""
"3567.3000000715256","","","","","2","html-slider-response","187","","","","1",""
"5641","nose","sehemu,gubat,kopa,kidole","sehemu","f","2","html-keyboard-response","188","v","gubat","false","",""
"2857.100000023842","","","","","2","html-slider-response","189","","","","1",""
"5324","sock","ndoora,kimysa,mtirka,mamba","mamba","n","2","html-keyboard-response","190","v","kimysa","false","",""
"2481.5","","","","","2","html-slider-response","191","","","","1",""
"3831","bank","kudhibi,silingan,tualya,ofisi","silingan","v","2","html-keyboard-response","192","n","ofisi","false","",""
"2774.7000000476837","","","","","2","html-slider-response","193","","","","1",""
"3940","donkey","bloke,elfu,lalake,rombus","elfu","v","2","html-keyboard-response","194","j","lalake","false","",""
"2812.100000023842","","","","","2","html-slider-response","195","","","","2",""
"5230","poster","nchi,fedha,madungog,kasuko","madungog","j","2","html-keyboard-response","196","n","kasuko","false","",""
"2795","","","","","2","html-slider-response","197","","","","1",""
"8126","puppet","napulo,lamok,godoro,mazishi","mazishi","n","2","html-keyboard-response","198","n","mazishi","true","",""
"3149.8000000715256","","","","","2","html-slider-response","199","","","","2",""
"7900","hill","kushoto,kukimba,matumbo,sweta","matumbo","j","2","html-keyboard-response","200","v","kukimba","false","",""
"2535.7999999523163","","","","","2","html-slider-response","201","","","","2",""
"6649","tooth","kabalaka,kijiko,uadui,pahiyum","kabalaka","f","2","html-keyboard-response","202","f","kabalaka","true","",""
"2087.899999976158","","","","","2","html-slider-response","203","","","","2",""
"8652","woman","bandari,bituin,kovuli,pagtabon","pagtabon","n","2","html-keyboard-response","204","n","pagtabon","true","",""
"2477.2999999523163","","","","","2","html-slider-response","205","","","","2",""
"5391","wheel","bafuni,punda,tawo,baadaye","bafuni","f","2","html-keyboard-response","206","j","tawo","false","",""
"2153.7999999523163","","","","","2","html-slider-response","207","","","","2",""
"2033","mother","kahawa,babaye,mbuzi,jokofu","babaye","v","2","html-keyboard-response","208","v","babaye","true","",""
"2402.9000000953674","","","","","2","html-slider-response","209","","","","5",""
"4657","bed","kalipay,haraka,starehe,mapintas","mapintas","n","2","html-keyboard-response","210","f","kalipay","false","",""
"2923","","","","","2","html-slider-response","211","","","","2",""
"3843","key","miaka,goma,ahos,chombo","chombo","n","2","html-keyboard-response","212","n","chombo","true","",""
"2494.7999999523163","","","","","2","html-slider-response","213","","","","2",""
"10142","page","wakala,ishiri,wimbo,skina","wimbo","j","2","html-keyboard-response","214","f","wakala","false","",""
"2475.100000023842","","","","","2","html-slider-response","215","","","","2",""
"6120","pants","pintal,haki,chuki,hari","haki","v","2","html-keyboard-response","216","n","hari","false","",""
"1941.6999999284744","","","","","2","html-slider-response","217","","","","2",""
"7230","sun","basi,bendi,luha,uongo","basi","f","2","html-keyboard-response","218","n","uongo","false","",""
"2263.600000023842","","","","","2","html-slider-response","219","","","","1",""
"4250","finger","simu,sufuria,moyo,lima","moyo","j","2","html-keyboard-response","220","j","moyo","true","",""
"3034.7000000476837","","","","","2","html-slider-response","221","","","","4",""
"7725","shoe","nyeusi,hatua,kama,uyoga","uyoga","n","2","html-keyboard-response","222","n","uyoga","true","",""
"4653.299999952316","","","","","2","html-slider-response","223","","","","3",""
"4882","giraffe","daraja,jumatu,mahitabo,hangyo","mahitabo","j","2","html-keyboard-response","224","j","mahitabo","true","",""
"2945.7999999523163","","","","","2","html-slider-response","225","","","","2",""
"4630","dog","lubi,washia,bahari,kalamu","bahari","j","2","html-keyboard-response","226","j","bahari","true","",""
"2646.3000000715256","","","","","2","html-slider-response","227","","","","4",""
"4735","box","adui,kuacha,rafiki,kitande","adui","f","2","html-keyboard-response","228","f","adui","true","",""
"2305.6999999284744","","","","","2","html-slider-response","229","","","","1",""
"21200","scissors","tanuri,duga,mtawa,suga","tanuri","f","2","html-keyboard-response","230","f","tanuri","true","",""
"2399","","","","","2","html-slider-response","231","","","","2",""
"3399","cat","paghukom,neyemba,baki,akili","paghukom","f","2","html-keyboard-response","232","j","baki","false","",""
"2687","","","","","2","html-slider-response","233","","","","2",""
"8788","basket","kumbuka,utepe,kumba,hasira","kumba","j","2","html-keyboard-response","234","f","kumbuka","false","",""
"2676.100000023842","","","","","2","html-slider-response","235","","","","2",""
"5924","snake","jansa,karon,pagtukod,mvringo","pagtukod","j","2","html-keyboard-response","236","f","jansa","false","",""
"2054","","","","","2","html-slider-response","237","","","","2",""
"3615","gift","baba,pagtawag,nyange,baso","pagtawag","v","2","html-keyboard-response","238","v","pagtawag","true","",""
"2120.8000000715256","","","","","2","html-slider-response","239","","","","2",""
"3006","train","itik,dakika,mungu,sayari","sayari","n","2","html-keyboard-response","240","j","mungu","false","",""
"1744.6000000238419","","","","","2","html-slider-response","241","","","","2",""
"3680","pudding","abug,mpishi,aibu,iring","aibu","j","2","html-keyboard-response","242","j","aibu","true","",""
"2482.600000023842","","","","","2","html-slider-response","243","","","","2",""
"8767","tomato","chupi,chupa,mvua,takatak","mvua","j","2","html-keyboard-response","244","j","mvua","true","",""
"2247.5","","","","","2","html-slider-response","245","","","","2",""
"2769","stone","ulimwengu,mkasi,asili,wingi","wingi","n","2","html-keyboard-response","246","n","wingi","true","",""
"2170.2000000476837","","","","","2","html-slider-response","247","","","","4",""
"6045","hammer","napakyas,mekno,kitovu,layag","napakyas","f","2","html-keyboard-response","248","f","napakyas","true","",""
"2181.899999976158","","","","","2","html-slider-response","249","","","","4",""
"8253","knee","mvuke,duka,kubale,bili","duka","v","2","html-keyboard-response","250","j","kubale","false","",""
"3422.399999976158","","","","","2","html-slider-response","251","","","","1",""
"4216","ceiling","kugita,kawaida,maua,rayna","maua","j","2","html-keyboard-response","252","j","maua","true","",""
"2353.399999976158","","","","","2","html-slider-response","253","","","","1",""
"3977","spoon","betri,nzuri,ngazi,pagsulod","pagsulod","n","2","html-keyboard-response","254","n","pagsulod","true","",""
"2766.899999976158","","","","","2","html-slider-response","255","","","","2",""
"3740","marker","maji,mapafu,salita,atay","maji","f","2","html-keyboard-response","256","f","maji","true","",""
"2022.8999999761581","","","","","2","html-slider-response","257","","","","4",""
"3666","candle","gabi,farasi,kupanda,geza","geza","n","2","html-keyboard-response","258","j","kupanda","false","",""
"2421.2999999523163","","","","","2","html-slider-response","259","","","","2",""
"5204","tissue","ugomvi,lamigas,kisiwa,katika","ugomvi","f","2","html-keyboard-response","260","f","ugomvi","true","",""
"2579.5999999046326","","","","","2","html-slider-response","261","","","","2",""
"5704","bridge","daima,sahani,ngono,panya","sahani","v","2","html-keyboard-response","262","v","sahani","true","",""
"1886.8999999761581","","","","","2","html-slider-response","263","","","","2",""
"4924","berry","abogado,nogozi,kinywa,kofia","kofia","n","2","html-keyboard-response","264","n","kofia","true","",""
"3703.2999999523163","","","","","2","html-slider-response","265","","","","3",""
"4517","triangle","kihozi,kasadpan,bentaha,liog","kasadpan","v","2","html-keyboard-response","266","v","kasadpan","true","",""
"2576.899999976158","","","","","2","html-slider-response","267","","","","1",""
"2800","door","tena,soko,surali,nyota","surali","j","2","html-keyboard-response","268","j","surali","true","",""
"2637.0999999046326","","","","","2","html-slider-response","269","","","","1",""
"3234","fish","buli,bala,baho,imani","buli","f","2","html-keyboard-response","270","j","baho","false","",""
"1990.2000000476837","","","","","2","html-slider-response","271","","","","1",""
"5508","curtain","lisud,bulwawan,mchanga,chubani","mchanga","j","2","html-keyboard-response","272","j","mchanga","true","",""
"2301.1999999284744","","","","","2","html-slider-response","273","","","","1",""
"27169","flag","ndege,trekta,mkate,kawa","trekta","v","2","html-keyboard-response","274","n","kawa","false","",""
"2223.5","","","","","2","html-slider-response","275","","","","2",""
"5526","boat","hamsi,pombe,kitanda,agalon","agalon","n","2","html-keyboard-response","276","j","kitanda","false","",""
"2049.600000023842","","","","","2","html-slider-response","277","","","","1",""
"5785","rose","singizi,mwanake,paghalad,amani","paghalad","j","2","html-keyboard-response","278","j","paghalad","true","",""
"2438.7999999523163","","","","","2","html-slider-response","279","","","","1",""
"3188","lamp","daub,bilaska,afya,mbolea","afya","j","2","html-keyboard-response","280","v","bilaska","false","",""
"2877.600000023842","","","","","2","html-slider-response","281","","","","1",""
"4562","cigar","ndugu,adhabu,kuta,mlango","adhabu","v","2","html-keyboard-response","282","v","adhabu","true","",""
"2132","","","","","2","html-slider-response","283","","","","1",""
"8271","list","alizeti,kuzama,wingu,kaso","wingu","j","2","html-keyboard-response","284","f","alizeti","false","",""
"2358.2000000476837","","","","","2","html-slider-response","285","","","","1",""
"8952","sheet","juuya,watu,kamantis,bililhon","bililhon","n","2","html-keyboard-response","286","j","kamantis","false","",""
"2845.2999999523163","","","","","2","html-slider-response","287","","","","2",""
"14466","picture","silya,chaki,asin,kubwa","kubwa","n","2","html-keyboard-response","288","n","kubwa","true","",""
"2604.6999999284744","","","","","2","html-slider-response","289","","","","1",""
"9745","towel","pagpalit,tembo,funzi,pito","pagpalit","f","2","html-keyboard-response","290","f","pagpalit","true","",""
"2540.6999999284744","","","","","2","html-slider-response","291","","","","1",""
"7214","window","nanga,kujenga,kweli,umaga","kweli","j","2","html-keyboard-response","292","j","kweli","true","",""
"1914.6000000238419","","","","","2","html-slider-response","293","","","","2",""
"3353","box","kuacha,rafiki,adui,kitande","adui","j","3","html-keyboard-response","310","j","adui","true","","4"
"2470.8000000715256","","","","","3","html-slider-response","311","","","","2",""
"null","","","","","3","html-keyboard-response","312","","","","",""
"4125","pants","pintal,haki,chuki,hari","haki","v","3","html-keyboard-response","313","n","hari","false","","4"
"2303.2000000476837","","","","","3","html-slider-response","314","","","","2",""
"null","","","","","3","html-keyboard-response","315","","","","",""
"6285","cup","dagat,matumai,shimoni,jeraha","matumai","v","3","html-keyboard-response","316","v","matumai","true","","4"
"1887.2999999523163","","","","","3","html-slider-response","317","","","","2",""
"null","","","","","3","html-keyboard-response","318","","","","",""
"2778","triangle","kihozi,bentaha,liog,kasadpan","kasadpan","n","3","html-keyboard-response","319","n","kasadpan","true","","4"
"2395.600000023842","","","","","3","html-slider-response","320","","","","2",""
"null","","","","","3","html-keyboard-response","321","","","","",""
"3350","curtain","lisud,mchanga,bulwawan,chubani","mchanga","v","3","html-keyboard-response","322","j","bulwawan","false","","4"
"2114.3000000715256","","","","","3","html-slider-response","323","","","","2",""
"null","","","","","3","html-keyboard-response","324","","","","",""
"3681","clock","mbwa,kartasi,abang,osha","mbwa","f","3","html-keyboard-response","325","f","mbwa","true","","4"
"3299.600000023842","","","","","3","html-slider-response","326","","","","1",""
"null","","","","","3","html-keyboard-response","327","","","","",""
"4266","mirror","rangi,sulagma,kanding,furaha","sulagma","v","3","html-keyboard-response","328","v","sulagma","true","","4"
"1824.6000000238419","","","","","3","html-slider-response","329","","","","2",""
"null","","","","","3","html-keyboard-response","330","","","","",""
"2095","coffin","barua,kioo,tubag,hulma","kioo","v","3","html-keyboard-response","331","v","kioo","true","","1"
"2996.8000000715256","","","","","3","html-slider-response","332","","","","4",""
"null","","","","","3","html-keyboard-response","333","","","","",""
"2363","magazine","gundi,mchawi,kiti,bahandi","kiti","j","3","html-keyboard-response","334","j","kiti","true","","4"
"1887.2999999523163","","","","","3","html-slider-response","335","","","","4",""
"null","","","","","3","html-keyboard-response","336","","","","",""
"3038","column","pundok,dila,ufagio,pala","ufagio","j","3","html-keyboard-response","337","j","ufagio","true","","1"
"2466.5","","","","","3","html-slider-response","338","","","","4",""
"null","","","","","3","html-keyboard-response","339","","","","",""
"3221","number","mundamo,shule,kengele,choori","mundamo","f","3","html-keyboard-response","340","f","mundamo","true","","4"
"2096.899999976158","","","","","3","html-slider-response","341","","","","4",""
"null","","","","","3","html-keyboard-response","342","","","","",""
"2552","rose","singizi,mwanake,paghalad,amani","paghalad","j","3","html-keyboard-response","343","j","paghalad","true","","4"
"2572.399999976158","","","","","3","html-slider-response","344","","","","2",""
"null","","","","","3","html-keyboard-response","345","","","","",""
"4136","eel","ishara,kunywa,msumari,kabuang","msumari","j","3","html-keyboard-response","346","f","ishara","false","","4"
"2254.5","","","","","3","html-slider-response","347","","","","2",""
"null","","","","","3","html-keyboard-response","348","","","","",""
"4670","gift","baba,nyange,baso,pagtawag","pagtawag","n","3","html-keyboard-response","349","j","baso","false","","4"
"2713.100000023842","","","","","3","html-slider-response","350","","","","2",""
"null","","","","","3","html-keyboard-response","351","","","","",""
"1735","apple","ukame,kisu,estante,edad","kisu","v","3","html-keyboard-response","352","v","kisu","true","","1"
"3103.899999976158","","","","","3","html-slider-response","353","","","","5",""
"null","","","","","3","html-keyboard-response","354","","","","",""
"2473","wheel","punda,tawo,bafuni,baadaye","bafuni","j","3","html-keyboard-response","355","j","bafuni","true","","1"
"2731.899999976158","","","","","3","html-slider-response","356","","","","5",""
"null","","","","","3","html-keyboard-response","357","","","","",""
"5305","knee","mvuke,duka,kubale,bili","duka","v","3","html-keyboard-response","358","j","kubale","false","","4"
"3071.399999976158","","","","","3","html-slider-response","359","","","","2",""
"null","","","","","3","html-keyboard-response","360","","","","",""
"2240","basket","kumbuka,utepe,kumba,hasira","kumba","j","3","html-keyboard-response","361","j","kumba","true","","1"
"3413.6999999284744","","","","","3","html-slider-response","362","","","","5",""
"null","","","","","3","html-keyboard-response","363","","","","",""
"4582","park","tambok,bunifu,pwani,ihalas","bunifu","v","3","html-keyboard-response","364","v","bunifu","true","","4"
"2264.2999999523163","","","","","3","html-slider-response","365","","","","2",""
"null","","","","","3","html-keyboard-response","366","","","","",""
"2491","finger","simu,sufuria,moyo,lima","moyo","j","3","html-keyboard-response","367","j","moyo","true","","4"
"2188.8000000715256","","","","","3","html-slider-response","368","","","","5",""
"null","","","","","3","html-keyboard-response","369","","","","",""
"7345","boat","agalon,hamsi,pombe,kitanda","agalon","f","3","html-keyboard-response","370","n","kitanda","false","","4"
"2453.600000023842","","","","","3","html-slider-response","371","","","","2",""
"null","","","","","3","html-keyboard-response","372","","","","",""
"5070","hill","matumbo,kushoto,kukimba,sweta","matumbo","f","3","html-keyboard-response","373","f","matumbo","true","","4"
"1773.5","","","","","3","html-slider-response","374","","","","2",""
"null","","","","","3","html-keyboard-response","375","","","","",""
"5486","train","itik,sayari,dakika,mungu","sayari","v","3","html-keyboard-response","376","v","sayari","true","","4"
"1878.8999999761581","","","","","3","html-slider-response","377","","","","2",""
"null","","","","","3","html-keyboard-response","378","","","","",""
"4308","wolf","kaburi,ndizi,lugha,mchuzi","lugha","j","3","html-keyboard-response","379","j","lugha","true","","4"
"2781.5","","","","","3","html-slider-response","380","","","","2",""
"null","","","","","3","html-keyboard-response","381","","","","",""
"3761","snake","jansa,pagtukod,karon,mvringo","pagtukod","v","3","html-keyboard-response","382","n","mvringo","false","","4"
"1921.4000000953674","","","","","3","html-slider-response","383","","","","2",""
"null","","","","","3","html-keyboard-response","384","","","","",""
"3600","tooth","kabalaka,kijiko,uadui,pahiyum","kabalaka","f","3","html-keyboard-response","385","f","kabalaka","true","","4"
"1739.6000000238419","","","","","3","html-slider-response","386","","","","2",""
"null","","","","","3","html-keyboard-response","387","","","","",""
"3422","notebook","msitu,kila,kemia,mdudu","kemia","j","3","html-keyboard-response","388","j","kemia","true","","4"
"2376.899999976158","","","","","3","html-slider-response","389","","","","1",""
"null","","","","","3","html-keyboard-response","390","","","","",""
"5950","flag","ndege,mkate,trekta,kawa","trekta","j","3","html-keyboard-response","391","n","kawa","false","","4"
"1955.8000000715256","","","","","3","html-slider-response","392","","","","2",""
"null","","","","","3","html-keyboard-response","393","","","","",""
"4853","squirrel","mahugaw,hofu,ukweli,kichwa","hofu","v","3","html-keyboard-response","394","n","kichwa","false","","4"
"1978.7000000476837","","","","","3","html-slider-response","395","","","","1",""
"null","","","","","3","html-keyboard-response","396","","","","",""
"4577","door","tena,soko,surali,nyota","surali","j","3","html-keyboard-response","397","j","surali","true","","4"
"2542.3000000715256","","","","","3","html-slider-response","398","","","","2",""
"null","","","","","3","html-keyboard-response","399","","","","",""
"4857","salmon","mzungu,seri,sensilyo,baharia","sensilyo","j","3","html-keyboard-response","400","j","sensilyo","true","","4"
"2372.100000023842","","","","","3","html-slider-response","401","","","","5",""
"null","","","","","3","html-keyboard-response","402","","","","",""
"7153","shoulder","kelele,ndaniya,mkuu,guruwe","mkuu","j","3","html-keyboard-response","403","v","ndaniya","false","","4"
"2107.100000023842","","","","","3","html-slider-response","404","","","","2",""
"null","","","","","3","html-keyboard-response","405","","","","",""
"4170","lamp","daub,afya,bilaska,mbolea","afya","v","3","html-keyboard-response","406","j","bilaska","false","","4"
"3401.399999976158","","","","","3","html-slider-response","407","","","","2",""
"null","","","","","3","html-keyboard-response","408","","","","",""
"2232","shelf","pamahaw,bungtod,kadaot,awit","pamahaw","f","3","html-keyboard-response","409","f","pamahaw","true","","1"
"4015.399999976158","","","","","3","html-slider-response","410","","","","5",""
"null","","","","","3","html-keyboard-response","411","","","","",""
"3577","human","bado,kikapu,tinapay,punguza","tinapay","j","3","html-keyboard-response","412","j","tinapay","true","","4"
"2656.1999999284744","","","","","3","html-slider-response","413","","","","4",""
"null","","","","","3","html-keyboard-response","414","","","","",""
"3761","towel","pagpalit,tembo,funzi,pito","pagpalit","f","3","html-keyboard-response","415","f","pagpalit","true","","4"
"3161.100000023842","","","","","3","html-slider-response","416","","","","3",""
"null","","","","","3","html-keyboard-response","417","","","","",""
"2610","cat","neyemba,baki,akili,paghukom","paghukom","n","3","html-keyboard-response","418","v","baki","false","","4"
"3537.399999976158","","","","","3","html-slider-response","419","","","","2",""
"null","","","","","3","html-keyboard-response","420","","","","",""
"4013","spider","bunyag,mkboa,kamwe,atop","kamwe","j","3","html-keyboard-response","421","j","kamwe","true","","4"
"2863","","","","","3","html-slider-response","422","","","","5",""
"null","","","","","3","html-keyboard-response","423","","","","",""
"5437","window","nanga,kujenga,kweli,umaga","kweli","j","3","html-keyboard-response","424","n","umaga","false","","4"
"2207.899999976158","","","","","3","html-slider-response","425","","","","2",""
"null","","","","","3","html-keyboard-response","426","","","","",""
"7695","woman","pagtabon,bandari,bituin,kovuli","pagtabon","f","3","html-keyboard-response","427","f","pagtabon","true","","1"
"2345.8000000715256","","","","","3","html-slider-response","428","","","","2",""
"null","","","","","3","html-keyboard-response","429","","","","",""
"7390","giraffe","daraja,jumatu,hangyo,mahitabo","mahitabo","n","3","html-keyboard-response","430","f","daraja","false","","4"
"2023.8999999761581","","","","","3","html-slider-response","431","","","","2",""
"null","","","","","3","html-keyboard-response","432","","","","",""
"5377","elephant","petye,kito,pagduol,suka","kito","v","3","html-keyboard-response","433","n","suka","false","","4"
"2621.7000000476837","","","","","3","html-slider-response","434","","","","2",""
"null","","","","","3","html-keyboard-response","435","","","","",""
"5593","cave","kesho,ganti,maisha,nyundo","kesho","f","3","html-keyboard-response","436","n","nyundo","false","","4"
"2116.1999999284744","","","","","3","html-slider-response","437","","","","2",""
"null","","","","","3","html-keyboard-response","438","","","","",""
"10237","bread","dari,kaili,dizeli,bugas","dari","f","3","html-keyboard-response","439","n","bugas","false","","4"
"1685.3999999761581","","","","","3","html-slider-response","440","","","","2",""
"null","","","","","3","html-keyboard-response","441","","","","",""
"4269","stone","ulimwengu,wingi,mkasi,asili","wingi","v","3","html-keyboard-response","442","v","wingi","true","","4"
"1920","","","","","3","html-slider-response","443","","","","4",""
"null","","","","","3","html-keyboard-response","444","","","","",""
"8579","donkey","bloke,lalake,elfu,rombus","elfu","j","3","html-keyboard-response","445","j","elfu","true","","4"
"3257.6999999284744","","","","","3","html-slider-response","446","","","","2",""
"null","","","","","3","html-keyboard-response","447","","","","",""
"4119","bridge","daima,ngono,panya,sahani","sahani","n","3","html-keyboard-response","448","n","sahani","true","","4"
"2240.3000000715256","","","","","3","html-slider-response","449","","","","2",""
"null","","","","","3","html-keyboard-response","450","","","","",""
"5319","bonfire","mwezi,mfuko,kusanya,goti","goti","n","3","html-keyboard-response","451","n","goti","true","","4"
"2480.7999999523163","","","","","3","html-slider-response","452","","","","4",""
"null","","","","","3","html-keyboard-response","453","","","","",""
"5289","book","kuhesa,mali,picha,mara","mali","v","3","html-keyboard-response","454","v","mali","true","","4"
"2043.8999999761581","","","","","3","html-slider-response","455","","","","2",""
"null","","","","","3","html-keyboard-response","456","","","","",""
"4185","fish","bala,buli,baho,imani","buli","v","3","html-keyboard-response","457","j","baho","false","","4"
"3201.7000000476837","","","","","3","html-slider-response","458","","","","3",""
"null","","","","","3","html-keyboard-response","459","","","","",""
"2325","spoon","betri,pagsulod,nzuri,ngazi","pagsulod","v","3","html-keyboard-response","460","v","pagsulod","true","","4"
"1842.6999999284744","","","","","3","html-slider-response","461","","","","4",""
"null","","","","","3","html-keyboard-response","462","","","","",""
"4887","scissors","duga,tanuri,mtawa,suga","tanuri","v","3","html-keyboard-response","463","v","tanuri","true","","4"
"2166.7999999523163","","","","","3","html-slider-response","464","","","","2",""
"null","","","","","3","html-keyboard-response","465","","","","",""
"5403","page","wimbo,wakala,ishiri,skina","wimbo","f","3","html-keyboard-response","466","f","wimbo","true","","4"
"3168.7000000476837","","","","","3","html-slider-response","467","","","","2",""
"null","","","","","3","html-keyboard-response","468","","","","",""
"1633","nose","gubat,kopa,sehemu,kidole","sehemu","j","3","html-keyboard-response","469","j","sehemu","true","","1"
"3018.6999999284744","","","","","3","html-slider-response","470","","","","4",""
"null","","","","","3","html-keyboard-response","471","","","","",""
"7861","ceiling","kugita,kawaida,rayna,maua","maua","n","3","html-keyboard-response","472","v","kawaida","false","","4"
"1905.6000000238419","","","","","3","html-slider-response","473","","","","2",""
"null","","","","","3","html-keyboard-response","474","","","","",""
"7483","bucket","baga,kiatu,ijayo,init","kiatu","v","3","html-keyboard-response","475","f","baga","false","","4"
"3054.2999999523163","","","","","3","html-slider-response","476","","","","2",""
"null","","","","","3","html-keyboard-response","477","","","","",""
"3744","berry","abogado,kofia,nogozi,kinywa","kofia","v","3","html-keyboard-response","478","v","kofia","true","","1"
"3547.5","","","","","3","html-slider-response","479","","","","2",""
"null","","","","","3","html-keyboard-response","480","","","","",""
"4189","mother","babaye,kahawa,mbuzi,jokofu","babaye","f","3","html-keyboard-response","481","f","babaye","true","","1"
"4417.5","","","","","3","html-slider-response","482","","","","2",""
"null","","","","","3","html-keyboard-response","483","","","","",""
"2928","mosquito","isda,martilyo,taras,gutom","martilyo","v","3","html-keyboard-response","484","v","martilyo","true","","4"
"3553.3000000715256","","","","","3","html-slider-response","485","","","","4",""
"null","","","","","3","html-keyboard-response","486","","","","",""
"3260","perfume","bino,sungura,katuyoan,ndogo","katuyoan","j","3","html-keyboard-response","487","j","katuyoan","true","","4"
"3386.399999976158","","","","","3","html-slider-response","488","","","","4",""
"null","","","","","3","html-keyboard-response","489","","","","",""
"7322","sheet","juuya,watu,bililhon,kamantis","bililhon","j","3","html-keyboard-response","490","n","kamantis","false","","4"
"2479.1999999284744","","","","","3","html-slider-response","491","","","","2",""
"null","","","","","3","html-keyboard-response","492","","","","",""
"4185","puppet","napulo,lamok,mazishi,godoro","mazishi","j","3","html-keyboard-response","493","j","mazishi","true","","1"
"3494.600000023842","","","","","3","html-slider-response","494","","","","4",""
"null","","","","","3","html-keyboard-response","495","","","","",""
"20198","poster","nchi,madungog,fedha,kasuko","madungog","v","3","html-keyboard-response","496","n","kasuko","false","","4"
"3386.2000000476837","","","","","3","html-slider-response","497","","","","2",""
"null","","","","","3","html-keyboard-response","498","","","","",""
"11755","music","mraba,mageho,baiski,tumbo","baiski","j","3","html-keyboard-response","499","j","baiski","true","","4"
"4466.299999952316","","","","","3","html-slider-response","500","","","","2",""
"null","","","","","3","html-keyboard-response","501","","","","",""
"12922","key","miaka,goma,ahos,chombo","chombo","n","3","html-keyboard-response","502","n","chombo","true","","4"
"3793.8000000715256","","","","","3","html-slider-response","503","","","","2",""
"null","","","","","3","html-keyboard-response","504","","","","",""
"14970","sock","mamba,ndoora,kimysa,mtirka","mamba","f","3","html-keyboard-response","505","n","mtirka","false","","4"
"2191","","","","","3","html-slider-response","506","","","","2",""
"null","","","","","3","html-keyboard-response","507","","","","",""
"14187","marker","mapafu,maji,salita,atay","maji","v","3","html-keyboard-response","508","v","maji","true","","4"
"1915.2999999523163","","","","","3","html-slider-response","509","","","","4",""
"null","","","","","3","html-keyboard-response","510","","","","",""
"7465","office","leso,hazini,yatima,kuna","leso","f","3","html-keyboard-response","511","f","leso","true","","4"
"4661.700000047684","","","","","3","html-slider-response","512","","","","4",""
"null","","","","","3","html-keyboard-response","513","","","","",""
"5702","shoe","nyeusi,hatua,uyoga,kama","uyoga","j","3","html-keyboard-response","514","j","uyoga","true","","4"
"2889","","","","","3","html-slider-response","515","","","","2",""
"null","","","","","3","html-keyboard-response","516","","","","",""
"6650","cop","bustani,jikoni,bakus,mechezo","mechezo","n","3","html-keyboard-response","517","n","mechezo","true","","4"
"3806.2000000476837","","","","","3","html-slider-response","518","","","","2",""
"null","","","","","3","html-keyboard-response","519","","","","",""
"9034","bank","kudhibi,tualya,silingan,ofisi","silingan","j","3","html-keyboard-response","520","n","ofisi","false","","4"
"2456.2000000476837","","","","","3","html-slider-response","521","","","","2",""
"null","","","","","3","html-keyboard-response","522","","","","",""
"1748","letter","filimbi,chuma,uhuru,kifua","kifua","n","3","html-keyboard-response","523","n","kifua","true","","1"
"2529","","","","","3","html-slider-response","524","","","","4",""
"null","","","","","3","html-keyboard-response","525","","","","",""
"2611","dog","lubi,washia,kalamu,bahari","bahari","n","3","html-keyboard-response","526","n","bahari","true","","1"
"2114.8000000715256","","","","","3","html-slider-response","527","","","","4",""
"null","","","","","3","html-keyboard-response","528","","","","",""
"4340","shop","nopya,samaki,kerida,ndezu","samaki","v","3","html-keyboard-response","529","v","samaki","true","","4"
"2400.9000000953674","","","","","3","html-slider-response","530","","","","4",""
"null","","","","","3","html-keyboard-response","531","","","","",""
"6354","flower","tamasha,lobo,usiku,bega","bega","n","3","html-keyboard-response","532","n","bega","true","","4"
"1961.5","","","","","3","html-slider-response","533","","","","4",""
"null","","","","","3","html-keyboard-response","534","","","","",""
"2232","cigar","ndugu,kuta,mlango,adhabu","adhabu","n","3","html-keyboard-response","535","n","adhabu","true","","1"
"2578.600000023842","","","","","3","html-slider-response","536","","","","5",""
"null","","","","","3","html-keyboard-response","537","","","","",""
"4422","hammer","mekno,kitovu,layag,napakyas","napakyas","n","3","html-keyboard-response","538","n","napakyas","true","","4"
"1863.8999999761581","","","","","3","html-slider-response","539","","","","4",""
"null","","","","","3","html-keyboard-response","540","","","","",""
"3080","fork","baboy,paghago,gorisi,mgonjwa","mgonjwa","n","3","html-keyboard-response","541","v","paghago","false","","4"
"3696.5","","","","","3","html-slider-response","542","","","","2",""
"null","","","","","3","html-keyboard-response","543","","","","",""
"4659","sun","basi,bendi,luha,uongo","basi","f","3","html-keyboard-response","544","f","basi","true","","1"
"2884.600000023842","","","","","3","html-slider-response","545","","","","4",""
"null","","","","","3","html-keyboard-response","546","","","","",""
"8297","ladder","mashua,pangalan,mwanga,kamba","pangalan","v","3","html-keyboard-response","547","v","pangalan","true","","4"
"1859.2000000476837","","","","","3","html-slider-response","548","","","","2",""
"null","","","","","3","html-keyboard-response","549","","","","",""
"1374","banana","kasamok,hagdan,kazi,twai","kazi","j","3","html-keyboard-response","550","j","kazi","true","","1"
"2031","","","","","3","html-slider-response","551","","","","2",""
"null","","","","","3","html-keyboard-response","552","","","","",""
"3843","pudding","abug,mpishi,aibu,iring","aibu","j","3","html-keyboard-response","553","j","aibu","true","","4"
"2121.3000000715256","","","","","3","html-slider-response","554","","","","2",""
"null","","","","","3","html-keyboard-response","555","","","","",""
"4385","body","tindashan,nyundu,jibini,kununa","tindashan","f","3","html-keyboard-response","556","f","tindashan","true","","4"
"2444.6999999284744","","","","","3","html-slider-response","557","","","","4",""
"null","","","","","3","html-keyboard-response","558","","","","",""
"2865","bed","kalipay,haraka,starehe,mapintas","mapintas","n","3","html-keyboard-response","559","f","kalipay","false","","4"
"2609","","","","","3","html-slider-response","560","","","","4",""
"null","","","","","3","html-keyboard-response","561","","","","",""
"8256","tissue","lamigas,kisiwa,katika,ugomvi","ugomvi","n","3","html-keyboard-response","562","j","katika","false","","4"
"2085.600000023842","","","","","3","html-slider-response","563","","","","2",""
"null","","","","","3","html-keyboard-response","564","","","","",""
"4384","candle","geza,gabi,farasi,kupanda","geza","f","3","html-keyboard-response","565","n","kupanda","false","","4"
"2188.5999999046326","","","","","3","html-slider-response","566","","","","2",""
"null","","","","","3","html-keyboard-response","567","","","","",""
"2033","tomato","chupi,chupa,takatak,mvua","mvua","n","3","html-keyboard-response","568","n","mvua","true","","1"
"3010","","","","","3","html-slider-response","569","","","","4",""
"null","","","","","3","html-keyboard-response","570","","","","",""
"4316","list","alizeti,kuzama,wingu,kaso","wingu","j","3","html-keyboard-response","571","j","wingu","true","","4"
"2206.2000000476837","","","","","3","html-slider-response","572","","","","2",""
"null","","","","","3","html-keyboard-response","573","","","","",""
"3560","olive","jiwe,bata,siagi,welder","jiwe","f","3","html-keyboard-response","574","f","jiwe","true","","4"
"1790.7000000476837","","","","","3","html-slider-response","575","","","","2",""
"null","","","","","3","html-keyboard-response","576","","","","",""
"1637","picture","kubwa,silya,chaki,asin","kubwa","f","3","html-keyboard-response","577","f","kubwa","true","","1"
"3774.7999999523163","","","","","3","html-slider-response","578","","","","4",""
"null","","","","","3","html-keyboard-response","579","","","","",""
