"rt","en_word","options","swa_word","correct_answer","phase","trial_type","trial_index","input_answer","input_word","accuracy","certainty","amt_choices"
"4284","bonfire","mwezi,goti,mfuko,kusanya","goti","v","2","html-keyboard-response","114","j","mfuko","false","",""
"1854.5999999642372","","","","","2","html-slider-response","115","","","","1",""
"3848","flower","tamasha,lobo,usiku,bega","bega","n","2","html-keyboard-response","116","n","bega","true","",""
"1686.3999999761581","","","","","2","html-slider-response","117","","","","1",""
"4086","column","ufagio,pundok,dila,pala","ufagio","f","2","html-keyboard-response","118","f","ufagio","true","",""
"2933.899999976158","","","","","2","html-slider-response","119","","","","4",""
"3711","music","baiski,mraba,mageho,tumbo","baiski","f","2","html-keyboard-response","120","n","tumbo","false","",""
"1622.2000000476837","","","","","2","html-slider-response","121","","","","1",""
"6119","spider","bunyag,mkboa,atop,kamwe","kamwe","n","2","html-keyboard-response","122","n","kamwe","true","",""
"2109.599999964237","","","","","2","html-slider-response","123","","","","4",""
"3680","fork","baboy,paghago,mgonjwa,gorisi","mgonjwa","j","2","html-keyboard-response","124","j","mgonjwa","true","",""
"1246","","","","","2","html-slider-response","125","","","","2",""
"3411","mosquito","isda,martilyo,taras,gutom","martilyo","v","2","html-keyboard-response","126","v","martilyo","true","",""
"2347.800000011921","","","","","2","html-slider-response","127","","","","3",""
"8400","banana","kasamok,hagdan,twai,kazi","kazi","n","2","html-keyboard-response","128","f","kasamok","false","",""
"1189","","","","","2","html-slider-response","129","","","","2",""
"2866","cup","matumai,dagat,shimoni,jeraha","matumai","f","2","html-keyboard-response","130","n","jeraha","false","",""
"1139.8999999761581","","","","","2","html-slider-response","131","","","","1",""
"4823","shop","nopya,kerida,ndezu,samaki","samaki","n","2","html-keyboard-response","132","v","kerida","false","",""
"1350","","","","","2","html-slider-response","133","","","","1",""
"6888","elephant","petye,kito,pagduol,suka","kito","v","2","html-keyboard-response","134","v","kito","true","",""
"1101.5","","","","","2","html-slider-response","135","","","","2",""
"2575","bucket","baga,ijayo,init,kiatu","kiatu","n","2","html-keyboard-response","136","f","baga","false","",""
"1878.5999999642372","","","","","2","html-slider-response","137","","","","3",""
"4776","book","mali,kuhesa,picha,mara","mali","f","2","html-keyboard-response","138","j","picha","false","",""
"1493.800000011921","","","","","2","html-slider-response","139","","","","2",""
"3016","mirror","rangi,kanding,sulagma,furaha","sulagma","j","2","html-keyboard-response","140","j","sulagma","true","",""
"1213","","","","","2","html-slider-response","141","","","","2",""
"2855","office","hazini,yatima,kuna,leso","leso","n","2","html-keyboard-response","142","j","kuna","false","",""
"2038.300000011921","","","","","2","html-slider-response","143","","","","2",""
"5769","body","nyundu,jibini,kununa,tindashan","tindashan","n","2","html-keyboard-response","144","v","jibini","false","",""
"1220.0999999642372","","","","","2","html-slider-response","145","","","","1",""
"4352","perfume","bino,sungura,ndogo,katuyoan","katuyoan","n","2","html-keyboard-response","146","f","bino","false","",""
"2071.099999964237","","","","","2","html-slider-response","147","","","","1",""
"2957","olive","bata,siagi,welder,jiwe","jiwe","n","2","html-keyboard-response","148","n","jiwe","true","",""
"2239.900000035763","","","","","2","html-slider-response","149","","","","3",""
"3134","magazine","gundi,mchawi,kiti,bahandi","kiti","j","2","html-keyboard-response","150","v","mchawi","false","",""
"1238.3999999761581","","","","","2","html-slider-response","151","","","","1",""
"4144","bread","dari,kaili,dizeli,bugas","dari","f","2","html-keyboard-response","152","f","dari","true","",""
"1654.800000011921","","","","","2","html-slider-response","153","","","","1",""
"3317","cave","kesho,ganti,maisha,nyundo","kesho","f","2","html-keyboard-response","154","f","kesho","true","",""
"1469.9000000357628","","","","","2","html-slider-response","155","","","","4",""
"4143","ladder","mashua,mwanga,kamba,pangalan","pangalan","n","2","html-keyboard-response","156","n","pangalan","true","",""
"1734","","","","","2","html-slider-response","157","","","","2",""
"3080","human","bado,kikapu,tinapay,punguza","tinapay","j","2","html-keyboard-response","158","j","tinapay","true","",""
"1477.699999988079","","","","","2","html-slider-response","159","","","","2",""
"2447","clock","kartasi,abang,osha,mbwa","mbwa","n","2","html-keyboard-response","160","j","osha","false","",""
"1694.1000000238419","","","","","2","html-slider-response","161","","","","1",""
"3870","shelf","bungtod,pamahaw,kadaot,awit","pamahaw","v","2","html-keyboard-response","162","v","pamahaw","true","",""
"2679.899999976158","","","","","2","html-slider-response","163","","","","2",""
"3478","salmon","mzungu,seri,baharia,sensilyo","sensilyo","n","2","html-keyboard-response","164","n","sensilyo","true","",""
"1135","","","","","2","html-slider-response","165","","","","4",""
"3050","coffin","kioo,barua,tubag,hulma","kioo","f","2","html-keyboard-response","166","f","kioo","true","",""
"1348.699999988079","","","","","2","html-slider-response","167","","","","2",""
"4463","notebook","kemia,msitu,kila,mdudu","kemia","f","2","html-keyboard-response","168","n","mdudu","false","",""
"1263.5999999642372","","","","","2","html-slider-response","169","","","","1",""
"3421","shoulder","kelele,mkuu,ndaniya,guruwe","mkuu","v","2","html-keyboard-response","170","v","mkuu","true","",""
"1166.1000000238419","","","","","2","html-slider-response","171","","","","1",""
"3750","park","bunifu,tambok,pwani,ihalas","bunifu","f","2","html-keyboard-response","172","j","pwani","false","",""
"1854.6000000238419","","","","","2","html-slider-response","173","","","","1",""
"3209","number","shule,kengele,mundamo,choori","mundamo","j","2","html-keyboard-response","174","n","choori","false","",""
"1212.3999999761581","","","","","2","html-slider-response","175","","","","1",""
"3272","apple","kisu,ukame,estante,edad","kisu","f","2","html-keyboard-response","176","v","ukame","false","",""
"1351","","","","","2","html-slider-response","177","","","","1",""
"3255","letter","filimbi,chuma,uhuru,kifua","kifua","n","2","html-keyboard-response","178","n","kifua","true","",""
"1102.9000000357628","","","","","2","html-slider-response","179","","","","1",""
"10255","eel","ishara,kunywa,msumari,kabuang","msumari","j","2","html-keyboard-response","180","j","msumari","true","",""
"1549.300000011921","","","","","2","html-slider-response","181","","","","2",""
"6111","cop","bustani,jikoni,bakus,mechezo","mechezo","n","2","html-keyboard-response","182","n","mechezo","true","",""
"1677.699999988079","","","","","2","html-slider-response","183","","","","1",""
"3894","wolf","kaburi,ndizi,lugha,mchuzi","lugha","j","2","html-keyboard-response","184","j","lugha","true","",""
"1582","","","","","2","html-slider-response","185","","","","1",""
"5704","squirrel","mahugaw,ukweli,kichwa,hofu","hofu","n","2","html-keyboard-response","186","f","mahugaw","false","",""
"1140.699999988079","","","","","2","html-slider-response","187","","","","1",""
"4328","nose","gubat,sehemu,kopa,kidole","sehemu","v","2","html-keyboard-response","188","n","kidole","false","",""
"1109.5999999642372","","","","","2","html-slider-response","189","","","","1",""
"2600","sock","ndoora,mamba,kimysa,mtirka","mamba","v","2","html-keyboard-response","190","j","kimysa","false","",""
"1909.800000011921","","","","","2","html-slider-response","191","","","","2",""
"5694","bank","silingan,kudhibi,tualya,ofisi","silingan","f","2","html-keyboard-response","192","f","silingan","true","",""
"1417.4000000357628","","","","","2","html-slider-response","193","","","","1",""
"4206","donkey","elfu,bloke,lalake,rombus","elfu","f","2","html-keyboard-response","194","n","rombus","false","",""
"1237.199999988079","","","","","2","html-slider-response","195","","","","1",""
"4431","poster","nchi,madungog,fedha,kasuko","madungog","v","2","html-keyboard-response","196","f","nchi","false","",""
"1381.6000000238419","","","","","2","html-slider-response","197","","","","1",""
"3200","puppet","napulo,lamok,godoro,mazishi","mazishi","n","2","html-keyboard-response","198","n","mazishi","true","",""
"1309.5","","","","","2","html-slider-response","199","","","","1",""
"3062","hill","kushoto,kukimba,matumbo,sweta","matumbo","j","2","html-keyboard-response","200","n","sweta","false","",""
"1391.300000011921","","","","","2","html-slider-response","201","","","","1",""
"5247","tooth","kabalaka,kijiko,uadui,pahiyum","kabalaka","f","2","html-keyboard-response","202","j","uadui","false","",""
"1190.3999999761581","","","","","2","html-slider-response","203","","","","1",""
"2743","woman","bandari,bituin,kovuli,pagtabon","pagtabon","n","2","html-keyboard-response","204","f","bandari","false","",""
"950.2000000476837","","","","","2","html-slider-response","205","","","","2",""
"3896","wheel","punda,bafuni,tawo,baadaye","bafuni","v","2","html-keyboard-response","206","f","punda","false","",""
"1396.7000000476837","","","","","2","html-slider-response","207","","","","1",""
"3936","mother","babaye,kahawa,mbuzi,jokofu","babaye","f","2","html-keyboard-response","208","f","babaye","true","",""
"1358","","","","","2","html-slider-response","209","","","","5",""
"4072","bed","kalipay,haraka,mapintas,starehe","mapintas","j","2","html-keyboard-response","210","f","kalipay","false","",""
"1486.6000000238419","","","","","2","html-slider-response","211","","","","2",""
"3517","key","chombo,miaka,goma,ahos","chombo","f","2","html-keyboard-response","212","f","chombo","true","",""
"1358.699999988079","","","","","2","html-slider-response","213","","","","2",""
"3073","page","wakala,ishiri,wimbo,skina","wimbo","j","2","html-keyboard-response","214","f","wakala","false","",""
"1284.4000000357628","","","","","2","html-slider-response","215","","","","1",""
"2921","pants","pintal,haki,chuki,hari","haki","v","2","html-keyboard-response","216","j","chuki","false","",""
"1774.6000000238419","","","","","2","html-slider-response","217","","","","3",""
"3471","sun","bendi,luha,uongo,basi","basi","n","2","html-keyboard-response","218","v","luha","false","",""
"1590.800000011921","","","","","2","html-slider-response","219","","","","2",""
"3094","finger","moyo,simu,sufuria,lima","moyo","f","2","html-keyboard-response","220","n","lima","false","",""
"1345.6000000238419","","","","","2","html-slider-response","221","","","","2",""
"4033","shoe","nyeusi,uyoga,hatua,kama","uyoga","v","2","html-keyboard-response","222","j","hatua","false","",""
"1098.9000000357628","","","","","2","html-slider-response","223","","","","1",""
"4512","giraffe","daraja,mahitabo,jumatu,hangyo","mahitabo","v","2","html-keyboard-response","224","v","mahitabo","true","",""
"1684.800000011921","","","","","2","html-slider-response","225","","","","3",""
"3129","dog","lubi,bahari,washia,kalamu","bahari","v","2","html-keyboard-response","226","f","lubi","false","",""
"1125","","","","","2","html-slider-response","227","","","","1",""
"2607","box","kuacha,rafiki,kitande,adui","adui","n","2","html-keyboard-response","228","n","adui","true","",""
"1189.300000011921","","","","","2","html-slider-response","229","","","","1",""
"3064","scissors","duga,mtawa,suga,tanuri","tanuri","n","2","html-keyboard-response","230","j","suga","false","",""
"2060.300000011921","","","","","2","html-slider-response","231","","","","3",""
"4226","cat","neyemba,paghukom,baki,akili","paghukom","v","2","html-keyboard-response","232","j","baki","false","",""
"1116.6000000238419","","","","","2","html-slider-response","233","","","","1",""
"4792","basket","kumbuka,utepe,hasira,kumba","kumba","n","2","html-keyboard-response","234","j","hasira","false","",""
"1757.699999988079","","","","","2","html-slider-response","235","","","","1",""
"4711","snake","jansa,karon,mvringo,pagtukod","pagtukod","n","2","html-keyboard-response","236","n","pagtukod","true","",""
"1237","","","","","2","html-slider-response","237","","","","1",""
"4247","gift","baba,nyange,baso,pagtawag","pagtawag","n","2","html-keyboard-response","238","j","baso","false","",""
"1351.5","","","","","2","html-slider-response","239","","","","1",""
"3084","train","itik,dakika,sayari,mungu","sayari","j","2","html-keyboard-response","240","v","dakika","false","",""
"1086.4000000357628","","","","","2","html-slider-response","241","","","","1",""
"3113","pudding","abug,aibu,mpishi,iring","aibu","v","2","html-keyboard-response","242","n","iring","false","",""
"1046","","","","","2","html-slider-response","243","","","","1",""
"3489","tomato","chupi,mvua,chupa,takatak","mvua","v","2","html-keyboard-response","244","j","chupa","false","",""
"1074.699999988079","","","","","2","html-slider-response","245","","","","1",""
"2498","stone","wingi,ulimwengu,mkasi,asili","wingi","f","2","html-keyboard-response","246","v","ulimwengu","false","",""
"1199.2999999523163","","","","","2","html-slider-response","247","","","","1",""
"3263","hammer","mekno,napakyas,kitovu,layag","napakyas","v","2","html-keyboard-response","248","f","mekno","false","",""
"1590.8999999761581","","","","","2","html-slider-response","249","","","","1",""
"4097","knee","mvuke,kubale,bili,duka","duka","n","2","html-keyboard-response","250","f","mvuke","false","",""
"1389.0999999642372","","","","","2","html-slider-response","251","","","","1",""
"2689","ceiling","kugita,kawaida,rayna,maua","maua","n","2","html-keyboard-response","252","n","maua","true","",""
"1388.7999999523163","","","","","2","html-slider-response","253","","","","1",""
"2663","spoon","betri,nzuri,pagsulod,ngazi","pagsulod","j","2","html-keyboard-response","254","j","pagsulod","true","",""
"1263.300000011921","","","","","2","html-slider-response","255","","","","1",""
"3137","marker","mapafu,salita,atay,maji","maji","n","2","html-keyboard-response","256","f","mapafu","false","",""
"1925.5","","","","","2","html-slider-response","257","","","","2",""
"3271","candle","gabi,farasi,kupanda,geza","geza","n","2","html-keyboard-response","258","n","geza","true","",""
"1173.5","","","","","2","html-slider-response","259","","","","5",""
"3897","tissue","lamigas,kisiwa,katika,ugomvi","ugomvi","n","2","html-keyboard-response","260","v","kisiwa","false","",""
"1724.7999999523163","","","","","2","html-slider-response","261","","","","3",""
"7352","bridge","sahani,daima,ngono,panya","sahani","f","2","html-keyboard-response","262","j","ngono","false","",""
"1171.7000000476837","","","","","2","html-slider-response","263","","","","2",""
"4736","berry","abogado,nogozi,kofia,kinywa","kofia","j","2","html-keyboard-response","264","j","kofia","true","",""
"1189","","","","","2","html-slider-response","265","","","","5",""
"2982","triangle","kasadpan,kihozi,bentaha,liog","kasadpan","f","2","html-keyboard-response","266","f","kasadpan","true","",""
"1200.699999988079","","","","","2","html-slider-response","267","","","","4",""
"3878","door","tena,soko,nyota,surali","surali","n","2","html-keyboard-response","268","f","tena","false","",""
"1461.0999999642372","","","","","2","html-slider-response","269","","","","1",""
"4838","fish","bala,baho,imani,buli","buli","n","2","html-keyboard-response","270","f","bala","false","",""
"1288","","","","","2","html-slider-response","271","","","","2",""
"3607","curtain","mchanga,lisud,bulwawan,chubani","mchanga","f","2","html-keyboard-response","272","v","lisud","false","",""
"1135.4000000357628","","","","","2","html-slider-response","273","","","","1",""
"3822","flag","ndege,trekta,mkate,kawa","trekta","v","2","html-keyboard-response","274","n","kawa","false","",""
"1822","","","","","2","html-slider-response","275","","","","3",""
"3383","boat","hamsi,pombe,agalon,kitanda","agalon","j","2","html-keyboard-response","276","v","pombe","false","",""
"1318.4000000357628","","","","","2","html-slider-response","277","","","","2",""
"4570","rose","singizi,mwanake,paghalad,amani","paghalad","j","2","html-keyboard-response","278","j","paghalad","true","",""
"2066.599999964237","","","","","2","html-slider-response","279","","","","3",""
"3944","lamp","daub,bilaska,mbolea,afya","afya","n","2","html-keyboard-response","280","f","daub","false","",""
"1517.3999999761581","","","","","2","html-slider-response","281","","","","1",""
"3897","cigar","ndugu,kuta,mlango,adhabu","adhabu","n","2","html-keyboard-response","282","f","ndugu","false","",""
"2092.899999976158","","","","","2","html-slider-response","283","","","","2",""
"7279","list","alizeti,wingu,kuzama,kaso","wingu","v","2","html-keyboard-response","284","n","kaso","false","",""
"1142.0999999642372","","","","","2","html-slider-response","285","","","","2",""
"2473","sheet","juuya,watu,bililhon,kamantis","bililhon","j","2","html-keyboard-response","286","j","bililhon","true","",""
"1613","","","","","2","html-slider-response","287","","","","2",""
"3246","picture","silya,chaki,asin,kubwa","kubwa","n","2","html-keyboard-response","288","v","chaki","false","",""
"1686","","","","","2","html-slider-response","289","","","","1",""
"12719","towel","tembo,pagpalit,funzi,pito","pagpalit","v","2","html-keyboard-response","290","j","funzi","false","",""
"1780.8999999761581","","","","","2","html-slider-response","291","","","","1",""
"2521","window","nanga,kujenga,kweli,umaga","kweli","j","2","html-keyboard-response","292","f","nanga","false","",""
"1221","","","","","2","html-slider-response","293","","","","1",""
"3703","box","kuacha,adui,rafiki,kitande","adui","v","3","html-keyboard-response","310","n","kitande","false","","4"
"1398.4000000357628","","","","","3","html-slider-response","311","","","","1",""
"null","","","","","3","html-keyboard-response","312","","","","",""
"3022","pants","haki,pintal,chuki,hari","haki","f","3","html-keyboard-response","313","j","chuki","false","","4"
"1157.699999988079","","","","","3","html-slider-response","314","","","","4",""
"null","","","","","3","html-keyboard-response","315","","","","",""
"2791","cup","dagat,shimoni,jeraha,matumai","matumai","n","3","html-keyboard-response","316","n","matumai","true","","4"
"2253.599999964237","","","","","3","html-slider-response","317","","","","1",""
"null","","","","","3","html-keyboard-response","318","","","","",""
"2701","triangle","kihozi,bentaha,liog,kasadpan","kasadpan","n","3","html-keyboard-response","319","n","kasadpan","true","","4"
"1565.300000011921","","","","","3","html-slider-response","320","","","","4",""
"null","","","","","3","html-keyboard-response","321","","","","",""
"2600","curtain","lisud,bulwawan,mchanga,chubani","mchanga","j","3","html-keyboard-response","322","n","chubani","false","","4"
"1493.5999999642372","","","","","3","html-slider-response","323","","","","1",""
"null","","","","","3","html-keyboard-response","324","","","","",""
"2899","clock","kartasi,mbwa,abang,osha","mbwa","v","3","html-keyboard-response","325","n","osha","false","","4"
"1404.8999999761581","","","","","3","html-slider-response","326","","","","2",""
"null","","","","","3","html-keyboard-response","327","","","","",""
"2543","mirror","rangi,kanding,furaha,sulagma","sulagma","n","3","html-keyboard-response","328","j","furaha","false","","4"
"1774.8999999761581","","","","","3","html-slider-response","329","","","","1",""
"null","","","","","3","html-keyboard-response","330","","","","",""
"1637","coffin","kioo,barua,tubag,hulma","kioo","f","3","html-keyboard-response","331","f","kioo","true","","1"
"1470","","","","","3","html-slider-response","332","","","","5",""
"null","","","","","3","html-keyboard-response","333","","","","",""
"3754","magazine","gundi,kiti,mchawi,bahandi","kiti","v","3","html-keyboard-response","334","v","kiti","true","","4"
"1584.300000011921","","","","","3","html-slider-response","335","","","","1",""
"null","","","","","3","html-keyboard-response","336","","","","",""
"2864","column","ufagio,pundok,dila,pala","ufagio","f","3","html-keyboard-response","337","f","ufagio","true","","1"
"1237.800000011921","","","","","3","html-slider-response","338","","","","5",""
"null","","","","","3","html-keyboard-response","339","","","","",""
"2500","number","shule,kengele,mundamo,choori","mundamo","j","3","html-keyboard-response","340","n","choori","false","","4"
"1309.5","","","","","3","html-slider-response","341","","","","1",""
"null","","","","","3","html-keyboard-response","342","","","","",""
"2537","rose","paghalad,singizi,mwanake,amani","paghalad","f","3","html-keyboard-response","343","f","paghalad","true","","4"
"1390.5","","","","","3","html-slider-response","344","","","","4",""
"null","","","","","3","html-keyboard-response","345","","","","",""
"3369","eel","ishara,kunywa,msumari,kabuang","msumari","j","3","html-keyboard-response","346","n","kabuang","false","","4"
"1253.9000000357628","","","","","3","html-slider-response","347","","","","2",""
"null","","","","","3","html-keyboard-response","348","","","","",""
"3764","gift","pagtawag,baba,nyange,baso","pagtawag","f","3","html-keyboard-response","349","v","baba","false","","4"
"1900.6000000238419","","","","","3","html-slider-response","350","","","","2",""
"null","","","","","3","html-keyboard-response","351","","","","",""
"2693","apple","ukame,estante,kisu,edad","kisu","j","3","html-keyboard-response","352","j","kisu","true","","1"
"1958.699999988079","","","","","3","html-slider-response","353","","","","5",""
"null","","","","","3","html-keyboard-response","354","","","","",""
"2568","wheel","punda,bafuni,tawo,baadaye","bafuni","v","3","html-keyboard-response","355","v","bafuni","true","","1"
"1708.800000011921","","","","","3","html-slider-response","356","","","","5",""
"null","","","","","3","html-keyboard-response","357","","","","",""
"3736","knee","mvuke,duka,kubale,bili","duka","v","3","html-keyboard-response","358","n","bili","false","","4"
"1590.6000000238419","","","","","3","html-slider-response","359","","","","1",""
"null","","","","","3","html-keyboard-response","360","","","","",""
"2538","basket","kumba,kumbuka,utepe,hasira","kumba","f","3","html-keyboard-response","361","f","kumba","true","","1"
"1589.8999999761581","","","","","3","html-slider-response","362","","","","5",""
"null","","","","","3","html-keyboard-response","363","","","","",""
"3518","park","tambok,bunifu,pwani,ihalas","bunifu","v","3","html-keyboard-response","364","j","pwani","false","","4"
"1461.2999999523163","","","","","3","html-slider-response","365","","","","1",""
"null","","","","","3","html-keyboard-response","366","","","","",""
"4265","finger","simu,sufuria,lima,moyo","moyo","n","3","html-keyboard-response","367","f","simu","false","","4"
"1213.2000000476837","","","","","3","html-slider-response","368","","","","2",""
"null","","","","","3","html-keyboard-response","369","","","","",""
"3687","boat","hamsi,pombe,agalon,kitanda","agalon","j","3","html-keyboard-response","370","n","kitanda","false","","4"
"1413.199999988079","","","","","3","html-slider-response","371","","","","2",""
"null","","","","","3","html-keyboard-response","372","","","","",""
"2479","hill","kushoto,matumbo,kukimba,sweta","matumbo","v","3","html-keyboard-response","373","n","sweta","false","","4"
"1124.800000011921","","","","","3","html-slider-response","374","","","","2",""
"null","","","","","3","html-keyboard-response","375","","","","",""
"3673","train","itik,sayari,dakika,mungu","sayari","v","3","html-keyboard-response","376","f","itik","false","","4"
"1445.7000000476837","","","","","3","html-slider-response","377","","","","1",""
"null","","","","","3","html-keyboard-response","378","","","","",""
"2701","wolf","lugha,kaburi,ndizi,mchuzi","lugha","f","3","html-keyboard-response","379","n","mchuzi","false","","4"
"1381.8999999761581","","","","","3","html-slider-response","380","","","","1",""
"null","","","","","3","html-keyboard-response","381","","","","",""
"2850","snake","jansa,karon,pagtukod,mvringo","pagtukod","j","3","html-keyboard-response","382","v","karon","false","","4"
"1607.0999999642372","","","","","3","html-slider-response","383","","","","1",""
"null","","","","","3","html-keyboard-response","384","","","","",""
"4532","tooth","kijiko,kabalaka,uadui,pahiyum","kabalaka","v","3","html-keyboard-response","385","n","pahiyum","false","","4"
"1269.300000011921","","","","","3","html-slider-response","386","","","","1",""
"null","","","","","3","html-keyboard-response","387","","","","",""
"5186","notebook","msitu,kila,mdudu,kemia","kemia","n","3","html-keyboard-response","388","f","msitu","false","","4"
"1430","","","","","3","html-slider-response","389","","","","2",""
"null","","","","","3","html-keyboard-response","390","","","","",""
"2418","flag","trekta,ndege,mkate,kawa","trekta","f","3","html-keyboard-response","391","n","kawa","false","","4"
"1767","","","","","3","html-slider-response","392","","","","3",""
"null","","","","","3","html-keyboard-response","393","","","","",""
"3890","squirrel","hofu,mahugaw,ukweli,kichwa","hofu","f","3","html-keyboard-response","394","f","hofu","true","","4"
"1544.0999999642372","","","","","3","html-slider-response","395","","","","1",""
"null","","","","","3","html-keyboard-response","396","","","","",""
"3787","door","surali,tena,soko,nyota","surali","f","3","html-keyboard-response","397","j","soko","false","","4"
"1372.3999999761581","","","","","3","html-slider-response","398","","","","2",""
"null","","","","","3","html-keyboard-response","399","","","","",""
"5693","salmon","mzungu,sensilyo,seri,baharia","sensilyo","v","3","html-keyboard-response","400","j","seri","false","","4"
"1142","","","","","3","html-slider-response","401","","","","2",""
"null","","","","","3","html-keyboard-response","402","","","","",""
"3087","shoulder","mkuu,kelele,ndaniya,guruwe","mkuu","f","3","html-keyboard-response","403","n","guruwe","false","","4"
"1125.7999999523163","","","","","3","html-slider-response","404","","","","1",""
"null","","","","","3","html-keyboard-response","405","","","","",""
"4306","lamp","afya,daub,bilaska,mbolea","afya","f","3","html-keyboard-response","406","f","afya","true","","4"
"1446","","","","","3","html-slider-response","407","","","","2",""
"null","","","","","3","html-keyboard-response","408","","","","",""
"3379","shelf","bungtod,kadaot,awit,pamahaw","pamahaw","n","3","html-keyboard-response","409","n","pamahaw","true","","1"
"2108.800000011921","","","","","3","html-slider-response","410","","","","5",""
"null","","","","","3","html-keyboard-response","411","","","","",""
"4190","human","tinapay,bado,kikapu,punguza","tinapay","f","3","html-keyboard-response","412","j","kikapu","false","","4"
"2015.1000000238419","","","","","3","html-slider-response","413","","","","2",""
"null","","","","","3","html-keyboard-response","414","","","","",""
"2936","towel","tembo,funzi,pagpalit,pito","pagpalit","j","3","html-keyboard-response","415","f","tembo","false","","4"
"1364.800000011921","","","","","3","html-slider-response","416","","","","1",""
"null","","","","","3","html-keyboard-response","417","","","","",""
"3859","cat","neyemba,baki,akili,paghukom","paghukom","n","3","html-keyboard-response","418","n","paghukom","true","","4"
"1774.3999999761581","","","","","3","html-slider-response","419","","","","2",""
"null","","","","","3","html-keyboard-response","420","","","","",""
"3947","spider","bunyag,kamwe,mkboa,atop","kamwe","v","3","html-keyboard-response","421","v","kamwe","true","","4"
"992.3000000119209","","","","","3","html-slider-response","422","","","","4",""
"null","","","","","3","html-keyboard-response","423","","","","",""
"2572","window","nanga,kujenga,umaga,kweli","kweli","n","3","html-keyboard-response","424","f","nanga","false","","4"
"1307.7999999523163","","","","","3","html-slider-response","425","","","","1",""
"null","","","","","3","html-keyboard-response","426","","","","",""
"3333","woman","bandari,bituin,kovuli,pagtabon","pagtabon","n","3","html-keyboard-response","427","n","pagtabon","true","","1"
"1525.1000000238419","","","","","3","html-slider-response","428","","","","5",""
"null","","","","","3","html-keyboard-response","429","","","","",""
"3399","giraffe","daraja,mahitabo,jumatu,hangyo","mahitabo","v","3","html-keyboard-response","430","v","mahitabo","true","","4"
"1046.4000000357628","","","","","3","html-slider-response","431","","","","2",""
"null","","","","","3","html-keyboard-response","432","","","","",""
"3604","elephant","petye,kito,pagduol,suka","kito","v","3","html-keyboard-response","433","j","pagduol","false","","4"
"974.1999999880791","","","","","3","html-slider-response","434","","","","2",""
"null","","","","","3","html-keyboard-response","435","","","","",""
"3012","cave","kesho,ganti,maisha,nyundo","kesho","f","3","html-keyboard-response","436","v","ganti","false","","4"
"2207","","","","","3","html-slider-response","437","","","","3",""
"null","","","","","3","html-keyboard-response","438","","","","",""
"4979","bread","kaili,dizeli,bugas,dari","dari","n","3","html-keyboard-response","439","j","bugas","false","","4"
"1166.699999988079","","","","","3","html-slider-response","440","","","","2",""
"null","","","","","3","html-keyboard-response","441","","","","",""
"2682","stone","wingi,ulimwengu,mkasi,asili","wingi","f","3","html-keyboard-response","442","n","asili","false","","4"
"2134.199999988079","","","","","3","html-slider-response","443","","","","1",""
"null","","","","","3","html-keyboard-response","444","","","","",""
"2385","donkey","bloke,lalake,rombus,elfu","elfu","n","3","html-keyboard-response","445","f","bloke","false","","4"
"1589.7000000476837","","","","","3","html-slider-response","446","","","","1",""
"null","","","","","3","html-keyboard-response","447","","","","",""
"3109","bridge","daima,ngono,panya,sahani","sahani","n","3","html-keyboard-response","448","j","panya","false","","4"
"1358.5","","","","","3","html-slider-response","449","","","","2",""
"null","","","","","3","html-keyboard-response","450","","","","",""
"3574","bonfire","goti,mwezi,mfuko,kusanya","goti","f","3","html-keyboard-response","451","v","mwezi","false","","4"
"1614","","","","","3","html-slider-response","452","","","","1",""
"null","","","","","3","html-keyboard-response","453","","","","",""
"2333","book","mali,kuhesa,picha,mara","mali","f","3","html-keyboard-response","454","j","picha","false","","4"
"1510.5","","","","","3","html-slider-response","455","","","","3",""
"null","","","","","3","html-keyboard-response","456","","","","",""
"4758","fish","bala,buli,baho,imani","buli","v","3","html-keyboard-response","457","j","baho","false","","4"
"1140.300000011921","","","","","3","html-slider-response","458","","","","2",""
"null","","","","","3","html-keyboard-response","459","","","","",""
"2659","spoon","betri,pagsulod,nzuri,ngazi","pagsulod","v","3","html-keyboard-response","460","n","ngazi","false","","4"
"1222.800000011921","","","","","3","html-slider-response","461","","","","1",""
"null","","","","","3","html-keyboard-response","462","","","","",""
"2741","scissors","duga,tanuri,mtawa,suga","tanuri","v","3","html-keyboard-response","463","n","suga","false","","4"
"2277","","","","","3","html-slider-response","464","","","","3",""
"null","","","","","3","html-keyboard-response","465","","","","",""
"2678","page","wakala,ishiri,wimbo,skina","wimbo","j","3","html-keyboard-response","466","j","wimbo","true","","4"
"1317.6000000238419","","","","","3","html-slider-response","467","","","","2",""
"null","","","","","3","html-keyboard-response","468","","","","",""
"2111","nose","gubat,sehemu,kopa,kidole","sehemu","v","3","html-keyboard-response","469","v","sehemu","true","","1"
"1798.800000011921","","","","","3","html-slider-response","470","","","","5",""
"null","","","","","3","html-keyboard-response","471","","","","",""
"2499","ceiling","kugita,kawaida,rayna,maua","maua","n","3","html-keyboard-response","472","j","rayna","false","","4"
"1271.7999999523163","","","","","3","html-slider-response","473","","","","2",""
"null","","","","","3","html-keyboard-response","474","","","","",""
"2957","bucket","baga,ijayo,kiatu,init","kiatu","j","3","html-keyboard-response","475","f","baga","false","","4"
"2622.900000035763","","","","","3","html-slider-response","476","","","","3",""
"null","","","","","3","html-keyboard-response","477","","","","",""
"2862","berry","abogado,kofia,nogozi,kinywa","kofia","v","3","html-keyboard-response","478","v","kofia","true","","1"
"1646.199999988079","","","","","3","html-slider-response","479","","","","5",""
"null","","","","","3","html-keyboard-response","480","","","","",""
"2420","mother","babaye,kahawa,mbuzi,jokofu","babaye","f","3","html-keyboard-response","481","f","babaye","true","","1"
"1563.8999999761581","","","","","3","html-slider-response","482","","","","5",""
"null","","","","","3","html-keyboard-response","483","","","","",""
"4548","mosquito","isda,martilyo,taras,gutom","martilyo","v","3","html-keyboard-response","484","v","martilyo","true","","4"
"1524.4000000357628","","","","","3","html-slider-response","485","","","","4",""
"null","","","","","3","html-keyboard-response","486","","","","",""
"2824","perfume","katuyoan,bino,sungura,ndogo","katuyoan","f","3","html-keyboard-response","487","n","ndogo","false","","4"
"2030.199999988079","","","","","3","html-slider-response","488","","","","1",""
"null","","","","","3","html-keyboard-response","489","","","","",""
"2045","sheet","juuya,watu,kamantis,bililhon","bililhon","n","3","html-keyboard-response","490","f","juuya","false","","4"
"1366.300000011921","","","","","3","html-slider-response","491","","","","1",""
"null","","","","","3","html-keyboard-response","492","","","","",""
"3169","puppet","napulo,lamok,godoro,mazishi","mazishi","n","3","html-keyboard-response","493","n","mazishi","true","","1"
"1364.5","","","","","3","html-slider-response","494","","","","5",""
"null","","","","","3","html-keyboard-response","495","","","","",""
"3437","poster","nchi,fedha,kasuko,madungog","madungog","n","3","html-keyboard-response","496","n","madungog","true","","4"
"1583.1000000238419","","","","","3","html-slider-response","497","","","","1",""
"null","","","","","3","html-keyboard-response","498","","","","",""
"2516","music","baiski,mraba,mageho,tumbo","baiski","f","3","html-keyboard-response","499","v","mraba","false","","4"
"1430.0999999642372","","","","","3","html-slider-response","500","","","","2",""
"null","","","","","3","html-keyboard-response","501","","","","",""
"3093","key","miaka,goma,chombo,ahos","chombo","j","3","html-keyboard-response","502","n","ahos","false","","4"
"1382.3999999761581","","","","","3","html-slider-response","503","","","","1",""
"null","","","","","3","html-keyboard-response","504","","","","",""
"3258","sock","mamba,ndoora,kimysa,mtirka","mamba","f","3","html-keyboard-response","505","j","kimysa","false","","4"
"1381.300000011921","","","","","3","html-slider-response","506","","","","1",""
"null","","","","","3","html-keyboard-response","507","","","","",""
"3364","marker","mapafu,salita,atay,maji","maji","n","3","html-keyboard-response","508","n","maji","true","","4"
"2647.199999988079","","","","","3","html-slider-response","509","","","","1",""
"null","","","","","3","html-keyboard-response","510","","","","",""
"4716","office","leso,hazini,yatima,kuna","leso","f","3","html-keyboard-response","511","n","kuna","false","","4"
"1670.300000011921","","","","","3","html-slider-response","512","","","","3",""
"null","","","","","3","html-keyboard-response","513","","","","",""
"3129","shoe","uyoga,nyeusi,hatua,kama","uyoga","f","3","html-keyboard-response","514","v","nyeusi","false","","4"
"1367.199999988079","","","","","3","html-slider-response","515","","","","1",""
"null","","","","","3","html-keyboard-response","516","","","","",""
"3574","cop","bustani,mechezo,jikoni,bakus","mechezo","v","3","html-keyboard-response","517","j","jikoni","false","","4"
"2046","","","","","3","html-slider-response","518","","","","1",""
"null","","","","","3","html-keyboard-response","519","","","","",""
"6086","bank","silingan,kudhibi,tualya,ofisi","silingan","f","3","html-keyboard-response","520","f","silingan","true","","4"
"1765","","","","","3","html-slider-response","521","","","","1",""
"null","","","","","3","html-keyboard-response","522","","","","",""
"2537","letter","kifua,filimbi,chuma,uhuru","kifua","f","3","html-keyboard-response","523","f","kifua","true","","1"
"1512.3999999761581","","","","","3","html-slider-response","524","","","","5",""
"null","","","","","3","html-keyboard-response","525","","","","",""
"2308","dog","lubi,washia,bahari,kalamu","bahari","j","3","html-keyboard-response","526","j","bahari","true","","1"
"1605.6000000238419","","","","","3","html-slider-response","527","","","","5",""
"null","","","","","3","html-keyboard-response","528","","","","",""
"6608","shop","nopya,samaki,kerida,ndezu","samaki","v","3","html-keyboard-response","529","v","samaki","true","","4"
"1276.1000000238419","","","","","3","html-slider-response","530","","","","2",""
"null","","","","","3","html-keyboard-response","531","","","","",""
"5269","flower","tamasha,lobo,usiku,bega","bega","n","3","html-keyboard-response","532","f","tamasha","false","","4"
"1357.800000011921","","","","","3","html-slider-response","533","","","","2",""
"null","","","","","3","html-keyboard-response","534","","","","",""
"2748","cigar","adhabu,ndugu,kuta,mlango","adhabu","f","3","html-keyboard-response","535","f","adhabu","true","","1"
"1502.300000011921","","","","","3","html-slider-response","536","","","","5",""
"null","","","","","3","html-keyboard-response","537","","","","",""
"2477","hammer","mekno,napakyas,kitovu,layag","napakyas","v","3","html-keyboard-response","538","n","layag","false","","4"
"1509.5999999642372","","","","","3","html-slider-response","539","","","","1",""
"null","","","","","3","html-keyboard-response","540","","","","",""
"6405","fork","baboy,paghago,gorisi,mgonjwa","mgonjwa","n","3","html-keyboard-response","541","j","gorisi","false","","4"
"1628.9000000357628","","","","","3","html-slider-response","542","","","","1",""
"null","","","","","3","html-keyboard-response","543","","","","",""
"2045","sun","bendi,luha,uongo,basi","basi","n","3","html-keyboard-response","544","n","basi","true","","1"
"1606","","","","","3","html-slider-response","545","","","","5",""
"null","","","","","3","html-keyboard-response","546","","","","",""
"4096","ladder","pangalan,mashua,mwanga,kamba","pangalan","f","3","html-keyboard-response","547","f","pangalan","true","","4"
"1589.800000011921","","","","","3","html-slider-response","548","","","","2",""
"null","","","","","3","html-keyboard-response","549","","","","",""
"2106","banana","kazi,kasamok,hagdan,twai","kazi","f","3","html-keyboard-response","550","f","kazi","true","","1"
"1837.3999999761581","","","","","3","html-slider-response","551","","","","5",""
"null","","","","","3","html-keyboard-response","552","","","","",""
"3368","pudding","abug,aibu,mpishi,iring","aibu","v","3","html-keyboard-response","553","v","aibu","true","","4"
"1101.800000011921","","","","","3","html-slider-response","554","","","","2",""
"null","","","","","3","html-keyboard-response","555","","","","",""
"2796","body","nyundu,jibini,kununa,tindashan","tindashan","n","3","html-keyboard-response","556","j","kununa","false","","4"
"1646.300000011921","","","","","3","html-slider-response","557","","","","2",""
"null","","","","","3","html-keyboard-response","558","","","","",""
"3685","bed","kalipay,haraka,starehe,mapintas","mapintas","n","3","html-keyboard-response","559","j","starehe","false","","4"
"1134.5","","","","","3","html-slider-response","560","","","","2",""
"null","","","","","3","html-keyboard-response","561","","","","",""
"4482","tissue","ugomvi,lamigas,kisiwa,katika","ugomvi","f","3","html-keyboard-response","562","n","katika","false","","4"
"1040.5999999642372","","","","","3","html-slider-response","563","","","","2",""
"null","","","","","3","html-keyboard-response","564","","","","",""
"2522","candle","gabi,farasi,kupanda,geza","geza","n","3","html-keyboard-response","565","n","geza","true","","4"
"1070.6000000238419","","","","","3","html-slider-response","566","","","","5",""
"null","","","","","3","html-keyboard-response","567","","","","",""
"2925","tomato","chupi,chupa,mvua,takatak","mvua","j","3","html-keyboard-response","568","j","mvua","true","","1"
"2757.800000011921","","","","","3","html-slider-response","569","","","","5",""
"null","","","","","3","html-keyboard-response","570","","","","",""
"4374","list","wingu,alizeti,kuzama,kaso","wingu","f","3","html-keyboard-response","571","n","kaso","false","","4"
"1325.1000000238419","","","","","3","html-slider-response","572","","","","2",""
"null","","","","","3","html-keyboard-response","573","","","","",""
"3662","olive","jiwe,bata,siagi,welder","jiwe","f","3","html-keyboard-response","574","f","jiwe","true","","4"
"1093.5","","","","","3","html-slider-response","575","","","","4",""
"null","","","","","3","html-keyboard-response","576","","","","",""
"2821","picture","silya,chaki,kubwa,asin","kubwa","j","3","html-keyboard-response","577","j","kubwa","true","","1"
"1174.300000011921","","","","","3","html-slider-response","578","","","","5",""
"null","","","","","3","html-keyboard-response","579","","","","",""
